subj_id,date,computer,experimenter,version,generation,inherit_from,sight_radius,n_gabors,block_ix,landscape_name,starting_pos,starting_score,trial,pos,stims,selected,rt,score,delta,exp_time,landscape_ix
GEMS129,2018_Oct_04_1518,Kramer,VC,1.2,2,GEMS115,10,6,1,SimpleHill,0-0,0,0,0-0,7-2;7-5;4-0;1-3;0-4;4-1,7-5,6.4,22,22,80.1552721449,1
GEMS129,2018_Oct_04_1518,Kramer,VC,1.2,2,GEMS115,10,6,1,SimpleHill,0-0,0,1,7-5,5-4;16-8;9-1;16-1;1-0;11-12,11-12,4.53,40,18,88.7610708274,1
GEMS129,2018_Oct_04_1518,Kramer,VC,1.2,2,GEMS115,10,6,1,SimpleHill,0-0,0,2,11-12,2-13;8-21;5-12;21-12;12-13;15-15,8-21,8.22,47,7,101.051882005,1
GEMS129,2018_Oct_04_1518,Kramer,VC,1.2,2,GEMS115,10,6,1,SimpleHill,0-0,0,3,8-21,13-29;5-30;9-12;1-25;15-20;3-13,3-13,5.56,28,-19,110.693347725,1
GEMS129,2018_Oct_04_1518,Kramer,VC,1.2,2,GEMS115,10,6,1,SimpleHill,0-0,0,4,3-13,1-13;6-9;1-17;11-13;10-13;9-19,6-9,6.49,27,-1,121.258354996,1
GEMS129,2018_Oct_04_1518,Kramer,VC,1.2,2,GEMS115,10,6,1,SimpleHill,0-0,0,5,6-9,7-9;10-16;13-13;12-2;5-3;11-17,12-2,1.81,25,-2,127.139258517,1
GEMS129,2018_Oct_04_1518,Kramer,VC,1.2,2,GEMS115,10,6,1,SimpleHill,0-0,0,6,12-2,7-7;13-8;11-11;9-3;9-8;8-10,7-7,5.44,26,1,136.651393094,1
GEMS129,2018_Oct_04_1518,Kramer,VC,1.2,2,GEMS115,10,6,1,SimpleHill,0-0,0,7,7-7,1-7;11-13;7-7;15-7;13-9;15-3,11-13,4.63,42,16,145.36498512,1
GEMS129,2018_Oct_04_1518,Kramer,VC,1.2,2,GEMS115,10,6,1,SimpleHill,0-0,0,8,11-13,4-12;14-17;8-14;11-15;5-18;3-11,14-17,5.17,52,10,154.621152598,1
GEMS129,2018_Oct_04_1518,Kramer,VC,1.2,2,GEMS115,10,6,1,SimpleHill,0-0,0,9,14-17,15-16;15-20;15-10;17-24;18-14;15-24,15-20,1.85,57,5,160.556003046,1
GEMS129,2018_Oct_04_1518,Kramer,VC,1.2,2,GEMS115,10,6,1,SimpleHill,0-0,0,10,15-20,19-22;11-20;9-26;11-16;9-12;17-29,9-12,5.09,37,-20,169.733424048,1
GEMS129,2018_Oct_04_1518,Kramer,VC,1.2,2,GEMS115,10,6,1,SimpleHill,0-0,0,11,9-12,4-7;3-6;10-19;7-15;10-11;5-15,10-19,2.89,48,11,176.700249577,1
GEMS129,2018_Oct_04_1518,Kramer,VC,1.2,2,GEMS115,10,6,1,SimpleHill,0-0,0,12,10-19,11-22;12-20;2-14;4-11;8-25;14-17,8-25,5.03,52,4,185.802960159,1
GEMS129,2018_Oct_04_1518,Kramer,VC,1.2,2,GEMS115,10,6,1,SimpleHill,0-0,0,13,8-25,15-31;7-21;8-23;12-33;13-27;6-34,12-33,1.91,65,13,191.832904888,1
GEMS129,2018_Oct_04_1518,Kramer,VC,1.2,2,GEMS115,10,6,1,SimpleHill,0-0,0,14,12-33,11-37;21-30;11-24;9-38;8-34;16-26,8-34,2.89,59,-6,198.806569851,1
GEMS129,2018_Oct_04_1518,Kramer,VC,1.2,2,GEMS115,10,6,1,SimpleHill,0-0,0,15,8-34,13-26;10-28;7-42;17-38;3-27;4-28,7-42,2.73,61,2,205.622319979,1
GEMS129,2018_Oct_04_1518,Kramer,VC,1.2,2,GEMS115,10,6,1,SimpleHill,0-0,0,16,7-42,9-43;12-48;4-43;6-48;7-50;12-46,7-50,7.95,63,2,217.632720451,1
GEMS129,2018_Oct_04_1518,Kramer,VC,1.2,2,GEMS115,10,6,1,SimpleHill,0-0,0,17,7-50,11-50;3-46;7-42;0-51;9-50;8-51,0-51,4.98,49,-14,226.676643655,1
GEMS129,2018_Oct_04_1518,Kramer,VC,1.2,2,GEMS115,10,6,1,SimpleHill,0-0,0,18,0-51,7-49;3-53;2-59;4-54;5-53;2-46,2-59,4.09,52,3,234.837108994,1
GEMS129,2018_Oct_04_1518,Kramer,VC,1.2,2,GEMS115,10,6,1,SimpleHill,0-0,0,19,2-59,8-53;7-54;6-64;2-51;6-51;9-57,6-64,1.67,57,5,240.585930811,1
GEMS129,2018_Oct_04_1518,Kramer,VC,1.2,2,GEMS115,10,6,1,SimpleHill,0-0,0,20,6-64,6-65;12-65;10-66;3-56;8-62;13-64,8-62,5.09,61,4,249.761939561,1
GEMS129,2018_Oct_04_1518,Kramer,VC,1.2,2,GEMS115,10,6,1,SimpleHill,0-0,0,21,8-62,1-68;4-56;16-68;6-62;3-63;3-66,6-62,1.27,58,-3,255.09460838,1
GEMS129,2018_Oct_04_1518,Kramer,VC,1.2,2,GEMS115,10,6,1,SimpleHill,0-0,0,22,6-62,9-58;1-63;4-62;0-70;4-64;1-62,0-70,1.61,42,-16,260.778749581,1
GEMS129,2018_Oct_04_1518,Kramer,VC,1.2,2,GEMS115,10,6,1,SimpleHill,0-0,0,23,0-70,5-63;0-65;1-63;3-61;8-69;8-67,5-63,3.69,56,14,268.548345134,1
GEMS129,2018_Oct_04_1518,Kramer,VC,1.2,2,GEMS115,10,6,1,SimpleHill,0-0,0,24,5-63,5-60;13-62;11-69;6-67;8-64;5-68,5-60,3.77,57,1,276.394043512,1
GEMS129,2018_Oct_04_1518,Kramer,VC,1.2,2,GEMS115,10,6,1,SimpleHill,0-0,0,25,5-60,2-53;12-53;2-58;5-50;3-57;7-63,2-58,5.4,52,-5,285.875776266,1
GEMS129,2018_Oct_04_1518,Kramer,VC,1.2,2,GEMS115,10,6,1,SimpleHill,0-0,0,26,2-58,3-63;6-51;5-63;11-58;1-55;6-53,3-63,5.52,52,0,295.468196969,1
GEMS129,2018_Oct_04_1518,Kramer,VC,1.2,2,GEMS115,10,6,1,SimpleHill,0-0,0,27,3-63,9-62;10-69;6-58;2-62;7-55;2-64,10-69,2.98,60,8,302.494527845,1
GEMS129,2018_Oct_04_1518,Kramer,VC,1.2,2,GEMS115,10,6,1,SimpleHill,0-0,0,28,10-69,1-65;19-69;8-64;8-62;5-61;14-67,19-69,1.57,73,13,308.123657168,1
GEMS129,2018_Oct_04_1518,Kramer,VC,1.2,2,GEMS115,10,6,1,SimpleHill,0-0,0,29,19-69,17-64;17-61;13-70;20-70;22-68;17-65,13-70,18.15,64,-9,330.338997064,1
GEMS129,2018_Oct_04_1518,Kramer,VC,1.2,2,GEMS115,10,6,1,SimpleHill,0-0,0,30,13-70,17-61;6-66;15-61;21-65;16-70;6-69,16-70,5.24,68,4,339.631302117,1
GEMS129,2018_Oct_04_1518,Kramer,VC,1.2,2,GEMS115,10,6,1,SimpleHill,0-0,0,31,16-70,12-68;12-70;10-63;17-68;6-70;14-69,12-68,4.51,64,-4,348.214436593,1
GEMS129,2018_Oct_04_1518,Kramer,VC,1.2,2,GEMS115,10,6,1,SimpleHill,0-0,0,32,12-68,21-68;18-64;7-67;15-67;14-64;7-63,15-67,2.81,69,5,355.070121562,1
GEMS129,2018_Oct_04_1518,Kramer,VC,1.2,2,GEMS115,10,6,1,SimpleHill,0-0,0,33,15-67,16-60;21-66;19-60;13-60;18-70;9-66,21-66,5.71,78,9,364.84773097,1
GEMS129,2018_Oct_04_1518,Kramer,VC,1.2,2,GEMS115,10,6,1,SimpleHill,0-0,0,34,21-66,21-65;22-69;23-65;26-64;23-57;31-66,22-69,8.52,77,-1,377.430391708,1
GEMS129,2018_Oct_04_1518,Kramer,VC,1.2,2,GEMS115,10,6,1,SimpleHill,0-0,0,35,22-69,19-61;24-61;17-69;26-60;26-61;25-64,25-64,3.73,83,6,385.219603859,1
GEMS129,2018_Oct_04_1518,Kramer,VC,1.2,2,GEMS115,10,6,1,SimpleHill,0-0,0,36,25-64,25-63;17-65;21-63;27-56;18-68;20-64,20-64,4.62,78,-5,393.915490244,1
GEMS129,2018_Oct_04_1518,Kramer,VC,1.2,2,GEMS115,10,6,1,SimpleHill,0-0,0,37,20-64,29-62;12-58;18-66;27-60;22-68;22-69,29-62,3.55,88,10,401.541981678,1
GEMS129,2018_Oct_04_1518,Kramer,VC,1.2,2,GEMS115,10,6,1,SimpleHill,0-0,0,38,29-62,36-57;35-64;38-59;31-61;30-60;29-61,31-61,4.35,90,2,409.964992995,1
GEMS129,2018_Oct_04_1518,Kramer,VC,1.2,2,GEMS115,10,6,1,SimpleHill,0-0,0,39,31-61,26-67;23-61;30-54;35-67;27-68;33-65,26-67,5.55,82,-8,419.584319461,1
GEMS129,2018_Oct_04_1518,Kramer,VC,1.2,2,GEMS115,10,6,2,SimpleHill,0-0,0,0,0-0,6-2;6-1;5-2;2-9;1-9;0-9,2-9,5.32,20,20,443.409813229,1
GEMS129,2018_Oct_04_1518,Kramer,VC,1.2,2,GEMS115,10,6,2,SimpleHill,0-0,0,1,2-9,8-8;2-5;2-2;11-6;1-6;7-6,11-6,1.43,30,10,448.910123879,1
GEMS129,2018_Oct_04_1518,Kramer,VC,1.2,2,GEMS115,10,6,2,SimpleHill,0-0,0,2,11-6,8-11;12-7;17-8;11-1;1-6;8-6,17-8,3.73,42,12,456.702117641,1
GEMS129,2018_Oct_04_1518,Kramer,VC,1.2,2,GEMS115,10,6,2,SimpleHill,0-0,0,3,17-8,10-13;25-6;20-14;19-6;21-1;11-9,20-14,8.3,56,14,469.077323981,1
GEMS129,2018_Oct_04_1518,Kramer,VC,1.2,2,GEMS115,10,6,2,SimpleHill,0-0,0,4,20-14,16-20;25-9;16-11;13-8;15-7;21-21,21-21,7.12,66,10,480.266007146,1
GEMS129,2018_Oct_04_1518,Kramer,VC,1.2,2,GEMS115,10,6,2,SimpleHill,0-0,0,5,21-21,15-24;28-17;21-17;13-24;25-20;26-18,25-20,7.44,69,3,491.789495114,1
GEMS129,2018_Oct_04_1518,Kramer,VC,1.2,2,GEMS115,10,6,2,SimpleHill,0-0,0,6,25-20,17-14;30-12;19-13;28-15;26-27;22-23,28-15,4.24,65,-4,500.101664517,1
GEMS129,2018_Oct_04_1518,Kramer,VC,1.2,2,GEMS115,10,6,2,SimpleHill,0-0,0,7,28-15,23-23;25-22;36-18;22-23;26-22;34-11,36-18,1.6,75,10,505.752413584,1
GEMS129,2018_Oct_04_1518,Kramer,VC,1.2,2,GEMS115,10,6,2,SimpleHill,0-0,0,8,36-18,40-14;30-12;33-16;39-23;33-10;42-21,40-14,3.03,72,-3,512.857209254,1
GEMS129,2018_Oct_04_1518,Kramer,VC,1.2,2,GEMS115,10,6,2,SimpleHill,0-0,0,9,40-14,38-11;36-9;35-7;48-14;42-9;44-21,48-14,4.5,74,2,521.426833871,1
GEMS129,2018_Oct_04_1518,Kramer,VC,1.2,2,GEMS115,10,6,2,SimpleHill,0-0,0,10,48-14,43-22;46-13;52-10;46-15;53-21;56-12,52-10,1.69,67,-7,527.200829106,1
GEMS129,2018_Oct_04_1518,Kramer,VC,1.2,2,GEMS115,10,6,2,SimpleHill,0-0,0,11,52-10,52-5;43-8;49-7;50-11;50-16;49-3,52-5,4.18,59,-8,535.454948627,1
GEMS129,2018_Oct_04_1518,Kramer,VC,1.2,2,GEMS115,10,6,2,SimpleHill,0-0,0,12,52-5,49-11;56-8;47-8;60-8;51-6;51-11,47-8,2.41,64,5,541.936376653,1
GEMS129,2018_Oct_04_1518,Kramer,VC,1.2,2,GEMS115,10,6,2,SimpleHill,0-0,0,13,47-8,45-0;54-4;43-12;39-8;51-14;39-5,43-12,2.34,70,6,548.330432328,1
GEMS129,2018_Oct_04_1518,Kramer,VC,1.2,2,GEMS115,10,6,2,SimpleHill,0-0,0,14,43-12,51-14;39-12;37-6;43-9;45-21;51-9,45-21,3.43,82,12,555.825998555,1
GEMS129,2018_Oct_04_1518,Kramer,VC,1.2,2,GEMS115,10,6,2,SimpleHill,0-0,0,15,45-21,45-22;37-21;41-20;50-23;39-16;53-24,53-24,8.97,86,4,568.875362066,1
GEMS129,2018_Oct_04_1518,Kramer,VC,1.2,2,GEMS115,10,6,2,SimpleHill,0-0,0,16,53-24,51-20;52-30;58-32;57-25;57-15;54-22,52-30,5.2,91,5,578.144694982,1
GEMS129,2018_Oct_04_1518,Kramer,VC,1.2,2,GEMS115,10,6,2,SimpleHill,0-0,0,17,52-30,48-28;44-32;49-34;57-32;53-21;54-39,48-28,3.38,90,-1,585.596678584,1
GEMS129,2018_Oct_04_1518,Kramer,VC,1.2,2,GEMS115,10,6,2,SimpleHill,0-0,0,18,48-28,40-33;53-31;48-35;40-27;45-26;43-32,48-35,2.86,95,5,592.528873217,1
GEMS129,2018_Oct_04_1518,Kramer,VC,1.2,2,GEMS115,10,6,2,SimpleHill,0-0,0,19,48-35,52-33;55-30;53-41;54-42;55-33;50-38,53-41,1.32,98,3,597.919691788,1
GEMS129,2018_Oct_04_1518,Kramer,VC,1.2,2,GEMS115,10,6,2,SimpleHill,0-0,0,20,53-41,51-38;51-34;57-33;61-46;47-48;61-35,47-48,2.89,99,1,604.896831364,1
GEMS129,2018_Oct_04_1518,Kramer,VC,1.2,2,GEMS115,10,6,2,SimpleHill,0-0,0,21,47-48,46-48;48-52;55-50;51-45;49-54;48-43,48-52,2.25,99,0,611.235669662,1
GEMS129,2018_Oct_04_1518,Kramer,VC,1.2,2,GEMS115,10,6,2,SimpleHill,0-0,0,22,48-52,46-57;41-53;50-58;45-51;48-51;47-46,50-58,2.67,98,-1,617.974413341,1
GEMS129,2018_Oct_04_1518,Kramer,VC,1.2,2,GEMS115,10,6,2,SimpleHill,0-0,0,23,50-58,56-65;53-51;53-53;51-55;52-56;57-54,53-53,2.88,99,1,624.917087189,1
GEMS129,2018_Oct_04_1518,Kramer,VC,1.2,2,GEMS115,10,6,2,SimpleHill,0-0,0,24,53-53,46-58;55-61;50-49;54-59;54-44;48-50,55-61,2.42,97,-2,631.400571495,1
GEMS129,2018_Oct_04_1518,Kramer,VC,1.2,2,GEMS115,10,6,2,SimpleHill,0-0,0,25,55-61,54-58;50-58;57-69;60-69;59-53;51-64,57-69,1.06,91,-6,636.53166283,1
GEMS129,2018_Oct_04_1518,Kramer,VC,1.2,2,GEMS115,10,6,2,SimpleHill,0-0,0,26,57-69,63-68;57-62;63-67;63-65;48-68;56-67,48-68,2.94,93,2,643.542214706,1
GEMS129,2018_Oct_04_1518,Kramer,VC,1.2,2,GEMS115,10,6,2,SimpleHill,0-0,0,27,48-68,49-59;41-69;42-65;39-70;56-68;55-68,39-70,1.23,89,-4,648.841611106,1
GEMS129,2018_Oct_04_1518,Kramer,VC,1.2,2,GEMS115,10,6,2,SimpleHill,0-0,0,28,39-70,35-70;32-66;33-63;41-61;37-62;33-67,33-67,2.42,88,-1,655.327495792,1
GEMS129,2018_Oct_04_1518,Kramer,VC,1.2,2,GEMS115,10,6,2,SimpleHill,0-0,0,29,33-67,25-68;29-65;24-67;24-63;33-60;31-70,24-67,2.68,80,-8,662.065635134,1
GEMS129,2018_Oct_04_1518,Kramer,VC,1.2,2,GEMS115,10,6,2,SimpleHill,0-0,0,30,24-67,27-58;24-64;21-64;29-69;32-64;20-60,29-69,2.54,83,3,668.685619392,1
GEMS129,2018_Oct_04_1518,Kramer,VC,1.2,2,GEMS115,10,6,2,SimpleHill,0-0,0,31,29-69,23-69;31-70;29-61;36-66;31-65;22-62,23-69,2.97,78,-5,675.722022644,1
GEMS129,2018_Oct_04_1518,Kramer,VC,1.2,2,GEMS115,10,6,2,SimpleHill,0-0,0,32,23-69,31-66;16-62;24-67;17-68;29-61;19-67,31-66,4.72,87,9,684.508182385,1
GEMS129,2018_Oct_04_1518,Kramer,VC,1.2,2,GEMS115,10,6,2,SimpleHill,0-0,0,33,31-66,39-70;35-67;31-66;33-58;36-65;24-60,39-70,9.83,89,2,698.410698927,1
GEMS129,2018_Oct_04_1518,Kramer,VC,1.2,2,GEMS115,10,6,2,SimpleHill,0-0,0,34,39-70,30-69;33-70;41-66;40-62;36-68;48-70,30-69,11.04,84,-5,713.512278619,1
GEMS129,2018_Oct_04_1518,Kramer,VC,1.2,2,GEMS115,10,6,2,SimpleHill,0-0,0,35,30-69,29-64;30-64;39-65;21-68;27-65;37-62,21-68,2.93,76,-8,720.51766771,1
GEMS129,2018_Oct_04_1518,Kramer,VC,1.2,2,GEMS115,10,6,2,SimpleHill,0-0,0,36,21-68,29-65;25-66;24-67;21-67;28-68;27-65,24-67,2.8,80,4,727.393221192,1
GEMS129,2018_Oct_04_1518,Kramer,VC,1.2,2,GEMS115,10,6,2,SimpleHill,0-0,0,37,24-67,27-62;27-66;23-70;29-70;26-65;33-68,33-68,5.35,87,7,736.815662102,1
GEMS129,2018_Oct_04_1518,Kramer,VC,1.2,2,GEMS115,10,6,2,SimpleHill,0-0,0,38,33-68,32-70;35-59;25-67;28-64;42-70;41-70,42-70,2.22,90,3,743.111201057,1
GEMS129,2018_Oct_04_1518,Kramer,VC,1.2,2,GEMS115,10,6,2,SimpleHill,0-0,0,39,42-70,46-65;33-68;50-65;35-67;35-64;49-63,35-64,3.41,91,1,750.589077648,1
GEMS129,2018_Oct_04_1518,Kramer,VC,1.2,2,GEMS115,10,6,3,SimpleHill,0-0,0,0,0-0,1-2;0-9;2-0;0-8;1-8;4-3,2-0,9.32,3,3,900.263747928,1
GEMS129,2018_Oct_04_1518,Kramer,VC,1.2,2,GEMS115,10,6,3,SimpleHill,0-0,0,1,2-0,0-5;2-1;1-3;0-8;9-6;10-5,9-6,2.18,27,24,906.522493117,1
GEMS129,2018_Oct_04_1518,Kramer,VC,1.2,2,GEMS115,10,6,3,SimpleHill,0-0,0,2,9-6,13-4;14-3;17-5;9-1;12-13;0-9,12-13,1.1,43,16,911.694650825,1
GEMS129,2018_Oct_04_1518,Kramer,VC,1.2,2,GEMS115,10,6,3,SimpleHill,0-0,0,3,12-13,7-7;16-12;6-17;3-14;21-16;15-15,21-16,0.97,60,17,916.723217552,1
GEMS129,2018_Oct_04_1518,Kramer,VC,1.2,2,GEMS115,10,6,3,SimpleHill,0-0,0,4,21-16,26-12;22-10;24-21;28-9;21-11;22-17,28-9,4.3,56,-4,925.096366653,1
GEMS129,2018_Oct_04_1518,Kramer,VC,1.2,2,GEMS115,10,6,3,SimpleHill,0-0,0,5,28-9,25-6;31-0;34-6;36-5;34-7;31-18,31-18,1.6,72,16,930.787644654,1
GEMS129,2018_Oct_04_1518,Kramer,VC,1.2,2,GEMS115,10,6,3,SimpleHill,0-0,0,6,31-18,31-27;32-18;26-19;28-24;25-14;37-15,28-24,1.99,76,4,936.861499784,1
GEMS129,2018_Oct_04_1518,Kramer,VC,1.2,2,GEMS115,10,6,3,SimpleHill,0-0,0,7,28-24,35-26;28-17;33-21;29-31;29-18;22-24,29-31,1.15,83,7,942.089259941,1
GEMS129,2018_Oct_04_1518,Kramer,VC,1.2,2,GEMS115,10,6,3,SimpleHill,0-0,0,8,29-31,35-32;29-27;28-22;33-30;29-29;37-37,29-29,4.18,82,-1,950.343724843,1
GEMS129,2018_Oct_04_1518,Kramer,VC,1.2,2,GEMS115,10,6,3,SimpleHill,0-0,0,9,29-29,26-24;24-30;23-25;33-20;25-32;25-20,25-32,3.12,81,-1,957.536534971,1
GEMS129,2018_Oct_04_1518,Kramer,VC,1.2,2,GEMS115,10,6,3,SimpleHill,0-0,0,10,25-32,28-41;30-25;18-30;21-31;34-36;31-31,21-31,5.4,75,-6,967.006673305,1
GEMS129,2018_Oct_04_1518,Kramer,VC,1.2,2,GEMS115,10,6,3,SimpleHill,0-0,0,11,21-31,19-36;16-37;29-30;28-35;15-28;14-27,28-35,2.57,85,10,973.636770271,1
GEMS129,2018_Oct_04_1518,Kramer,VC,1.2,2,GEMS115,10,6,3,SimpleHill,0-0,0,12,28-35,27-43;28-41;30-39;20-40;24-36;27-26,28-41,7.01,88,3,984.716604104,1
GEMS129,2018_Oct_04_1518,Kramer,VC,1.2,2,GEMS115,10,6,3,SimpleHill,0-0,0,13,28-41,31-46;27-50;32-46;37-41;37-42;31-40,37-41,2.13,95,7,990.932640203,1
GEMS129,2018_Oct_04_1518,Kramer,VC,1.2,2,GEMS115,10,6,3,SimpleHill,0-0,0,14,37-41,37-42;29-46;42-35;37-40;38-39;31-36,37-40,6.71,94,-1,1001.72175281,1
GEMS129,2018_Oct_04_1518,Kramer,VC,1.2,2,GEMS115,10,6,3,SimpleHill,0-0,0,15,37-40,41-33;46-44;43-36;31-42;35-44;46-43,46-44,1.78,98,4,1007.55830804,1
GEMS129,2018_Oct_04_1518,Kramer,VC,1.2,2,GEMS115,10,6,3,SimpleHill,0-0,0,16,46-44,45-39;46-52;41-47;49-50;46-54;45-49,46-52,1.84,99,1,1013.46745883,1
GEMS129,2018_Oct_04_1518,Kramer,VC,1.2,2,GEMS115,10,6,3,SimpleHill,0-0,0,17,46-52,47-59;42-43;45-52;48-61;39-48;48-59,47-59,3.91,98,-1,1021.45114976,1
GEMS129,2018_Oct_04_1518,Kramer,VC,1.2,2,GEMS115,10,6,3,SimpleHill,0-0,0,18,47-59,43-52;47-59;43-62;48-64;47-63;48-55,48-64,4.41,96,-2,1029.92980418,1
GEMS129,2018_Oct_04_1518,Kramer,VC,1.2,2,GEMS115,10,6,3,SimpleHill,0-0,0,19,48-64,43-62;57-60;39-68;43-70;49-63;52-57,52-57,1.73,98,2,1035.74182074,1
GEMS129,2018_Oct_04_1518,Kramer,VC,1.2,2,GEMS115,10,6,3,SimpleHill,0-0,0,20,52-57,49-51;59-52;59-54;58-52;60-53;46-64,58-52,1.07,98,0,1040.89150245,1
GEMS129,2018_Oct_04_1518,Kramer,VC,1.2,2,GEMS115,10,6,3,SimpleHill,0-0,0,21,58-52,49-49;62-52;57-61;63-55;54-47;59-52,54-47,0.79,99,1,1045.75203267,1
GEMS129,2018_Oct_04_1518,Kramer,VC,1.2,2,GEMS115,10,6,3,SimpleHill,0-0,0,22,54-47,58-56;45-45;47-51;47-42;63-50;62-47,47-51,5.07,99,0,1054.8996882,1
GEMS129,2018_Oct_04_1518,Kramer,VC,1.2,2,GEMS115,10,6,3,SimpleHill,0-0,0,23,47-51,44-53;49-57;49-45;56-52;40-49;54-44,56-52,4.11,99,0,1063.07875576,1
GEMS129,2018_Oct_04_1518,Kramer,VC,1.2,2,GEMS115,10,6,3,SimpleHill,0-0,0,24,56-52,62-45;64-51;59-48;62-49;56-57;64-54,56-57,5.02,98,-1,1072.18052303,1
GEMS129,2018_Oct_04_1518,Kramer,VC,1.2,2,GEMS115,10,6,3,SimpleHill,0-0,0,25,56-57,50-60;62-63;59-63;58-52;57-54;56-54,50-60,4.6,98,0,1080.86953573,1
GEMS129,2018_Oct_04_1518,Kramer,VC,1.2,2,GEMS115,10,6,3,SimpleHill,0-0,0,26,50-60,55-53;54-63;44-55;56-52;50-63;42-64,54-63,2.23,96,-2,1087.18313531,1
GEMS129,2018_Oct_04_1518,Kramer,VC,1.2,2,GEMS115,10,6,3,SimpleHill,0-0,0,27,54-63,61-56;56-63;56-61;55-64;53-65;62-65,55-64,1.26,95,-1,1092.51677753,1
GEMS129,2018_Oct_04_1518,Kramer,VC,1.2,2,GEMS115,10,6,3,SimpleHill,0-0,0,28,55-64,53-60;46-65;56-68;49-65;61-62;48-59,49-65,1.75,95,0,1098.33036959,1
GEMS129,2018_Oct_04_1518,Kramer,VC,1.2,2,GEMS115,10,6,3,SimpleHill,0-0,0,29,49-65,46-59;55-60;44-58;57-69;42-59;46-63,57-69,1.33,91,-4,1103.73609619,1
GEMS129,2018_Oct_04_1518,Kramer,VC,1.2,2,GEMS115,10,6,3,SimpleHill,0-0,0,30,57-69,53-67;61-66;55-63;51-64;58-60;66-70,58-60,1.3,96,5,1109.09960312,1
GEMS129,2018_Oct_04_1518,Kramer,VC,1.2,2,GEMS115,10,6,3,SimpleHill,0-0,0,31,58-60,51-66;65-56;56-58;57-56;61-66;56-69,61-66,0.9,92,-4,1114.09047149,1
GEMS129,2018_Oct_04_1518,Kramer,VC,1.2,2,GEMS115,10,6,3,SimpleHill,0-0,0,32,61-66,62-57;64-70;60-63;70-65;67-63;57-63,64-70,3.59,88,-4,1121.73354728,1
GEMS129,2018_Oct_04_1518,Kramer,VC,1.2,2,GEMS115,10,6,3,SimpleHill,0-0,0,33,64-70,69-64;61-70;62-65;70-64;62-61;67-62,61-70,4.14,89,1,1129.92012103,1
GEMS129,2018_Oct_04_1518,Kramer,VC,1.2,2,GEMS115,10,6,3,SimpleHill,0-0,0,34,61-70,65-63;64-65;53-69;68-66;55-65;69-69,68-66,5.02,88,-1,1139.00718289,1
GEMS129,2018_Oct_04_1518,Kramer,VC,1.2,2,GEMS115,10,6,3,SimpleHill,0-0,0,35,68-66,62-60;63-60;61-60;64-70;66-59;64-61,64-70,0.97,88,0,1144.04168927,1
GEMS129,2018_Oct_04_1518,Kramer,VC,1.2,2,GEMS115,10,6,3,SimpleHill,0-0,0,36,64-70,61-67;64-64;64-65;62-68;63-67;56-64,62-68,3.39,90,2,1151.50374685,1
GEMS129,2018_Oct_04_1518,Kramer,VC,1.2,2,GEMS115,10,6,3,SimpleHill,0-0,0,37,62-68,64-62;55-69;56-66;56-70;56-68;65-59,56-70,1.41,91,1,1156.96791001,1
GEMS129,2018_Oct_04_1518,Kramer,VC,1.2,2,GEMS115,10,6,3,SimpleHill,0-0,0,38,56-70,61-65;57-70;61-62;54-61;52-67;53-64,57-70,5.49,91,0,1166.53307956,1
GEMS129,2018_Oct_04_1518,Kramer,VC,1.2,2,GEMS115,10,6,3,SimpleHill,0-0,0,39,57-70,64-70;58-62;63-64;61-68;64-66;48-70,64-70,5.11,88,-3,1175.73618389,1
GEMS129,2018_Oct_04_1518,Kramer,VC,1.2,2,GEMS115,10,6,4,SimpleHill,0-0,0,0,0-0,5-7;8-0;8-6;9-3;2-4;9-1,9-1,3.18,18,18,1195.77225713,1
GEMS129,2018_Oct_04_1518,Kramer,VC,1.2,2,GEMS115,10,6,4,SimpleHill,0-0,0,1,9-1,13-4;17-7;11-10;5-6;5-7;17-1,17-7,3.12,41,23,1202.94356243,1
GEMS129,2018_Oct_04_1518,Kramer,VC,1.2,2,GEMS115,10,6,4,SimpleHill,0-0,0,2,17-7,10-8;10-13;16-8;13-14;18-16;22-4,18-16,3.4,56,15,1210.42599203,1
GEMS129,2018_Oct_04_1518,Kramer,VC,1.2,2,GEMS115,10,6,4,SimpleHill,0-0,0,3,18-16,11-18;21-9;13-10;20-22;17-22;16-12,20-22,6.59,66,10,1221.08577444,1
GEMS129,2018_Oct_04_1518,Kramer,VC,1.2,2,GEMS115,10,6,4,SimpleHill,0-0,0,4,20-22,14-24;29-23;17-19;27-29;17-25;23-22,27-29,1.26,80,14,1226.41279842,1
GEMS129,2018_Oct_04_1518,Kramer,VC,1.2,2,GEMS115,10,6,4,SimpleHill,0-0,0,5,27-29,30-30;24-27;34-35;19-32;25-27;27-39,24-27,2.63,75,-5,1233.10479695,1
GEMS129,2018_Oct_04_1518,Kramer,VC,1.2,2,GEMS115,10,6,4,SimpleHill,0-0,0,6,24-27,17-21;14-27;17-22;27-19;22-26;30-34,14-27,5.46,63,-12,1242.62894975,1
GEMS129,2018_Oct_04_1518,Kramer,VC,1.2,2,GEMS115,10,6,4,SimpleHill,0-0,0,7,14-27,6-33;20-26;13-19;19-23;9-30;6-28,19-23,1.52,66,3,1248.22317738,1
GEMS129,2018_Oct_04_1518,Kramer,VC,1.2,2,GEMS115,10,6,4,SimpleHill,0-0,0,8,19-23,15-23;10-26;25-25;10-25;14-17;21-19,25-25,1.75,75,9,1254.02849535,1
GEMS129,2018_Oct_04_1518,Kramer,VC,1.2,2,GEMS115,10,6,4,SimpleHill,0-0,0,9,25-25,28-30;28-26;33-19;25-34;20-18;25-17,33-19,1.93,75,0,1260.0185779,1
GEMS129,2018_Oct_04_1518,Kramer,VC,1.2,2,GEMS115,10,6,4,SimpleHill,0-0,0,10,33-19,34-12;30-10;34-11;32-24;28-24;31-23,32-24,2.09,80,5,1266.19663556,1
GEMS129,2018_Oct_04_1518,Kramer,VC,1.2,2,GEMS115,10,6,4,SimpleHill,0-0,0,11,32-24,32-21;33-26;32-18;27-21;31-28;39-28,27-21,1.02,72,-8,1271.29439078,1
GEMS129,2018_Oct_04_1518,Kramer,VC,1.2,2,GEMS115,10,6,4,SimpleHill,0-0,0,12,27-21,31-18;30-25;21-27;28-24;25-25;35-27,21-27,3.45,72,0,1278.81873852,1
GEMS129,2018_Oct_04_1518,Kramer,VC,1.2,2,GEMS115,10,6,4,SimpleHill,0-0,0,13,21-27,29-31;25-24;12-29;28-21;17-27;23-18,12-29,0.86,62,-10,1283.7541328,1
GEMS129,2018_Oct_04_1518,Kramer,VC,1.2,2,GEMS115,10,6,4,SimpleHill,0-0,0,14,12-29,19-26;19-27;8-33;7-23;10-32;19-25,19-27,3.19,70,8,1291.000701,1
GEMS129,2018_Oct_04_1518,Kramer,VC,1.2,2,GEMS115,10,6,4,SimpleHill,0-0,0,15,19-27,20-27;27-21;15-19;17-25;28-28;15-25,28-28,3.86,80,10,1298.91831315,1
GEMS129,2018_Oct_04_1518,Kramer,VC,1.2,2,GEMS115,10,6,4,SimpleHill,0-0,0,16,28-28,25-37;28-19;35-32;21-28;25-29;29-28,35-32,4.48,89,9,1307.48076287,1
GEMS129,2018_Oct_04_1518,Kramer,VC,1.2,2,GEMS115,10,6,4,SimpleHill,0-0,0,17,35-32,37-25;43-30;33-27;36-25;27-31;32-34,33-27,5.86,83,-6,1317.4236944,1
GEMS129,2018_Oct_04_1518,Kramer,VC,1.2,2,GEMS115,10,6,4,SimpleHill,0-0,0,18,33-27,32-27;33-26;37-32;30-35;29-28;39-20,37-32,2.58,90,7,1324.07887003,1
GEMS129,2018_Oct_04_1518,Kramer,VC,1.2,2,GEMS115,10,6,4,SimpleHill,0-0,0,19,37-32,35-29;31-24;39-31;43-37;46-36;41-30,39-31,2.57,90,0,1330.73243624,1
GEMS129,2018_Oct_04_1518,Kramer,VC,1.2,2,GEMS115,10,6,4,SimpleHill,0-0,0,20,39-31,39-35;30-31;38-39;35-40;46-25;38-23,35-40,4.89,93,3,1339.70355646,1
GEMS129,2018_Oct_04_1518,Kramer,VC,1.2,2,GEMS115,10,6,4,SimpleHill,0-0,0,21,35-40,28-36;26-39;32-32;39-34;32-33;35-34,26-39,3.27,86,-7,1347.03453999,1
GEMS129,2018_Oct_04_1518,Kramer,VC,1.2,2,GEMS115,10,6,4,SimpleHill,0-0,0,22,26-39,27-31;26-43;25-39;17-40;18-43;17-35,17-40,2.94,76,-10,1354.04205866,1
GEMS129,2018_Oct_04_1518,Kramer,VC,1.2,2,GEMS115,10,6,4,SimpleHill,0-0,0,23,17-40,15-35;16-48;12-36;23-32;25-45;14-46,25-45,5.45,87,11,1363.56431235,1
GEMS129,2018_Oct_04_1518,Kramer,VC,1.2,2,GEMS115,10,6,4,SimpleHill,0-0,0,24,25-45,19-53;22-36;25-37;28-38;22-40;25-48,25-48,1.55,87,0,1369.18746905,1
GEMS129,2018_Oct_04_1518,Kramer,VC,1.2,2,GEMS115,10,6,4,SimpleHill,0-0,0,25,25-48,19-53;26-57;19-41;21-48;18-47;22-51,21-48,1.99,83,-4,1375.24204368,1
GEMS129,2018_Oct_04_1518,Kramer,VC,1.2,2,GEMS115,10,6,4,SimpleHill,0-0,0,26,21-48,21-51;23-51;19-47;14-54;21-58;16-56,21-58,1.71,81,-2,1381.02541189,1
GEMS129,2018_Oct_04_1518,Kramer,VC,1.2,2,GEMS115,10,6,4,SimpleHill,0-0,0,27,21-58,21-60;22-57;14-52;28-55;25-50;29-54,28-55,2.1,89,8,1387.20780778,1
GEMS129,2018_Oct_04_1518,Kramer,VC,1.2,2,GEMS115,10,6,4,SimpleHill,0-0,0,28,28-55,31-58;32-60;34-58;35-58;33-63;25-52,35-58,2.38,94,5,1393.6596992,1
GEMS129,2018_Oct_04_1518,Kramer,VC,1.2,2,GEMS115,10,6,4,SimpleHill,0-0,0,29,35-58,35-66;39-50;32-54;31-62;27-64;32-62,31-62,7.15,89,-5,1404.89336571,1
GEMS129,2018_Oct_04_1518,Kramer,VC,1.2,2,GEMS115,10,6,4,SimpleHill,0-0,0,30,31-62,36-60;24-60;38-69;32-69;36-65;26-58,32-69,1.65,86,-3,1410.62247778,1
GEMS129,2018_Oct_04_1518,Kramer,VC,1.2,2,GEMS115,10,6,4,SimpleHill,0-0,0,31,32-69,25-69;32-65;25-65;30-61;30-66;34-63,34-63,8.57,91,5,1423.27566916,1
GEMS129,2018_Oct_04_1518,Kramer,VC,1.2,2,GEMS115,10,6,4,SimpleHill,0-0,0,32,34-63,27-67;36-65;35-60;29-68;28-56;29-55,29-68,8.51,84,-7,1435.85091366,1
GEMS129,2018_Oct_04_1518,Kramer,VC,1.2,2,GEMS115,10,6,4,SimpleHill,0-0,0,33,29-68,19-68;30-64;36-64;37-64;32-68;27-66,37-64,5.02,92,8,1444.94974279,1
GEMS129,2018_Oct_04_1518,Kramer,VC,1.2,2,GEMS115,10,6,4,SimpleHill,0-0,0,34,37-64,28-63;32-70;41-66;43-65;32-66;41-61,41-66,10.43,93,1,1459.43846926,1
GEMS129,2018_Oct_04_1518,Kramer,VC,1.2,2,GEMS115,10,6,4,SimpleHill,0-0,0,35,41-66,43-65;40-67;47-58;33-70;45-64;40-57,33-70,0.92,86,-7,1464.42951017,1
GEMS129,2018_Oct_04_1518,Kramer,VC,1.2,2,GEMS115,10,6,4,SimpleHill,0-0,0,36,33-70,39-68;34-68;35-66;32-68;35-68;39-67,35-66,1.66,90,4,1470.17282798,1
GEMS129,2018_Oct_04_1518,Kramer,VC,1.2,2,GEMS115,10,6,4,SimpleHill,0-0,0,37,35-66,33-59;28-65;30-61;30-59;36-65;34-67,30-59,0.91,90,0,1475.156291,1
GEMS129,2018_Oct_04_1518,Kramer,VC,1.2,2,GEMS115,10,6,4,SimpleHill,0-0,0,38,30-59,27-58;24-51;21-59;38-54;28-51;36-57,21-59,4.91,81,-9,1484.1428474,1
GEMS129,2018_Oct_04_1518,Kramer,VC,1.2,2,GEMS115,10,6,4,SimpleHill,0-0,0,39,21-59,30-63;16-52;24-67;22-60;24-57;22-50,22-60,3.18,82,1,1491.37625849,1
