subj_id,date,computer,experimenter,version,generation,inherit_from,sight_radius,n_gabors,block_ix,landscape_name,starting_pos,starting_score,trial,pos,stims,selected,rt,score,delta,exp_time,landscape_ix
GEMS119,2018_Oct_01_0956,George,VC,1.2,1,,10,6,1,SimpleHill,0-0,0,0,0-0,5-1;4-8;3-5;0-8;1-4;5-8,5-1,31.84,11,11,74.8934728296,1
GEMS119,2018_Oct_01_0956,George,VC,1.2,1,,10,6,1,SimpleHill,0-0,0,1,5-1,1-9;12-3;3-10;10-6;11-1;5-7,11-1,6.04,21,10,85.0867259158,1
GEMS119,2018_Oct_01_0956,George,VC,1.2,1,,10,6,1,SimpleHill,0-0,0,2,11-1,11-5;3-0;13-2;15-8;12-2;11-4,15-8,7.58,40,19,96.7430068548,1
GEMS119,2018_Oct_01_0956,George,VC,1.2,1,,10,6,1,SimpleHill,0-0,0,3,15-8,12-6;7-6;18-2;11-3;19-10;23-4,19-10,9.5,48,8,110.325648228,1
GEMS119,2018_Oct_01_0956,George,VC,1.2,1,,10,6,1,SimpleHill,0-0,0,4,19-10,19-8;20-9;21-4;26-5;17-7;15-8,21-4,5.28,40,-8,119.663040977,1
GEMS119,2018_Oct_01_0956,George,VC,1.2,1,,10,6,1,SimpleHill,0-0,0,5,21-4,14-5;21-8;24-0;23-12;22-5;30-0,23-12,7.24,56,16,130.982445476,1
GEMS119,2018_Oct_01_0956,George,VC,1.2,1,,10,6,1,SimpleHill,0-0,0,6,23-12,24-8;21-13;32-11;16-10;26-13;18-12,24-8,13.48,51,-5,148.547606907,1
GEMS119,2018_Oct_01_0956,George,VC,1.2,1,,10,6,1,SimpleHill,0-0,0,7,24-8,31-7;28-9;23-9;29-15;23-5;20-8,23-5,9.67,44,-7,162.285715063,1
GEMS119,2018_Oct_01_0956,George,VC,1.2,1,,10,6,1,SimpleHill,0-0,0,8,23-5,26-10;26-8;24-13;21-11;25-5;27-9,24-13,3.5,59,15,169.858193813,1
GEMS119,2018_Oct_01_0956,George,VC,1.2,1,,10,6,1,SimpleHill,0-0,0,9,24-13,15-16;17-10;30-21;17-11;20-13;17-7,30-21,4.22,75,16,178.135805729,1
GEMS119,2018_Oct_01_0956,George,VC,1.2,1,,10,6,1,SimpleHill,0-0,0,10,30-21,34-21;33-28;38-18;26-24;29-24;24-14,29-24,11.98,77,2,194.177983064,1
GEMS119,2018_Oct_01_0956,George,VC,1.2,1,,10,6,1,SimpleHill,0-0,0,11,29-24,34-18;32-22;26-33;21-23;36-24;26-32,26-32,10.28,82,5,208.514292619,1
GEMS119,2018_Oct_01_0956,George,VC,1.2,1,,10,6,1,SimpleHill,0-0,0,12,26-32,23-33;24-38;26-31;26-36;34-31;33-39,23-33,13.17,79,-3,225.733526669,1
GEMS119,2018_Oct_01_0956,George,VC,1.2,1,,10,6,1,SimpleHill,0-0,0,13,23-33,23-37;24-24;29-30;16-26;25-35;21-24,24-24,12.92,72,-7,242.711848711,1
GEMS119,2018_Oct_01_0956,George,VC,1.2,1,,10,6,1,SimpleHill,0-0,0,14,24-24,26-28;24-16;26-31;32-30;20-30;31-19,24-16,3.1,63,-9,249.879426202,1
GEMS119,2018_Oct_01_0956,George,VC,1.2,1,,10,6,1,SimpleHill,0-0,0,15,24-16,30-22;18-22;31-12;17-15;24-20;21-19,17-15,4.86,53,-10,258.815937415,1
GEMS119,2018_Oct_01_0956,George,VC,1.2,1,,10,6,1,SimpleHill,0-0,0,16,17-15,23-13;14-10;21-12;23-12;15-16;9-10,9-10,6.51,34,-19,269.384863136,1
GEMS119,2018_Oct_01_0956,George,VC,1.2,1,,10,6,1,SimpleHill,0-0,0,17,9-10,11-17;15-14;7-12;16-7;5-1;8-7,11-17,8.88,47,13,282.323248173,1
GEMS119,2018_Oct_01_0956,George,VC,1.2,1,,10,6,1,SimpleHill,0-0,0,18,11-17,20-14;5-22;13-10;4-22;18-17;9-23,18-17,8.46,57,10,294.86743649,1
GEMS119,2018_Oct_01_0956,George,VC,1.2,1,,10,6,1,SimpleHill,0-0,0,19,18-17,22-14;22-8;21-22;14-26;19-25;28-17,28-17,3.24,68,11,302.179714765,1
GEMS119,2018_Oct_01_0956,George,VC,1.2,1,,10,6,1,SimpleHill,0-0,0,20,28-17,33-25;27-11;32-9;26-16;29-23;26-13,33-25,7.45,81,13,313.694046436,1
GEMS119,2018_Oct_01_0956,George,VC,1.2,1,,10,6,1,SimpleHill,0-0,0,21,33-25,32-17;31-31;30-20;27-18;40-20;31-24,40-20,6.65,80,-1,324.432784214,1
GEMS119,2018_Oct_01_0956,George,VC,1.2,1,,10,6,1,SimpleHill,0-0,0,22,40-20,44-25;46-16;34-14;31-16;37-27;43-29,34-14,4.68,68,-12,333.176101239,1
GEMS119,2018_Oct_01_0956,George,VC,1.2,1,,10,6,1,SimpleHill,0-0,0,23,34-14,41-9;32-22;26-11;35-21;28-22;33-22,41-9,21.24,64,-4,358.485546694,1
GEMS119,2018_Oct_01_0956,George,VC,1.2,1,,10,6,1,SimpleHill,0-0,0,24,41-9,45-9;42-17;41-12;49-13;44-3;44-0,44-0,35.8,49,-15,398.365034354,1
GEMS119,2018_Oct_01_0956,George,VC,1.2,1,,10,6,1,SimpleHill,0-0,0,25,44-0,47-5;36-0;45-9;47-9;44-2;40-3,45-9,7.3,65,16,409.732637772,1
GEMS119,2018_Oct_01_0956,George,VC,1.2,1,,10,6,1,SimpleHill,0-0,0,26,45-9,38-16;39-7;39-8;49-12;48-7;53-8,39-7,6.06,60,-5,419.866373782,1
GEMS119,2018_Oct_01_0956,George,VC,1.2,1,,10,6,1,SimpleHill,0-0,0,27,39-7,37-16;41-3;31-7;31-3;43-13;32-11,41-3,4.56,54,-6,428.509237075,1
GEMS119,2018_Oct_01_0956,George,VC,1.2,1,,10,6,1,SimpleHill,0-0,0,28,41-3,33-5;40-10;42-7;35-2;38-4;35-8,40-10,9.33,66,12,441.907184641,1
GEMS119,2018_Oct_01_0956,George,VC,1.2,1,,10,6,1,SimpleHill,0-0,0,29,40-10,31-6;38-5;42-13;40-11;43-17;47-5,31-6,10.83,54,-12,456.798453632,1
GEMS119,2018_Oct_01_0956,George,VC,1.2,1,,10,6,1,SimpleHill,0-0,0,30,31-6,22-6;39-12;37-5;35-13;29-12;38-13,37-5,6.09,56,2,466.962975838,1
GEMS119,2018_Oct_01_0956,George,VC,1.2,1,,10,6,1,SimpleHill,0-0,0,31,37-5,30-12;33-2;32-3;29-5;32-6;33-9,33-9,13.63,60,4,484.64254128,1
GEMS119,2018_Oct_01_0956,George,VC,1.2,1,,10,6,1,SimpleHill,0-0,0,32,33-9,26-7;34-11;42-8;39-17;34-13;33-4,33-4,15.35,51,-9,504.060736949,1
GEMS119,2018_Oct_01_0956,George,VC,1.2,1,,10,6,1,SimpleHill,0-0,0,33,33-4,39-3;25-4;34-10;41-1;30-1;34-6,34-10,42.45,62,11,550.568090919,1
GEMS119,2018_Oct_01_0956,George,VC,1.2,1,,10,6,1,SimpleHill,0-0,0,34,34-10,38-13;25-13;34-7;32-2;36-13;30-17,38-13,29.25,69,7,583.876078992,1
GEMS119,2018_Oct_01_0956,George,VC,1.2,1,,10,6,1,SimpleHill,0-0,0,35,38-13,46-13;45-6;34-16;40-16;35-22;38-21,46-13,21.04,72,3,608.98101018,1
GEMS119,2018_Oct_01_0956,George,VC,1.2,1,,10,6,1,SimpleHill,0-0,0,36,46-13,54-12;53-12;38-7;41-14;51-12;50-17,54-12,8.73,70,-2,621.789869386,1
GEMS119,2018_Oct_01_0956,George,VC,1.2,1,,10,6,1,SimpleHill,0-0,0,37,54-12,61-5;52-20;60-7;50-4;46-9;59-14,50-4,2.88,57,-13,628.734039778,1
GEMS119,2018_Oct_01_0956,George,VC,1.2,1,,10,6,1,SimpleHill,0-0,0,38,50-4,42-8;45-6;50-2;42-5;54-11;45-3,54-11,1.38,69,12,634.176155655,1
GEMS119,2018_Oct_01_0956,George,VC,1.2,1,,10,6,1,SimpleHill,0-0,0,39,54-11,55-13;57-12;62-11;58-9;55-7;53-7,55-13,13.17,72,3,651.419897602,1
GEMS119,2018_Oct_01_0956,George,VC,1.2,1,,10,6,2,SimpleHill,0-0,0,0,0-0,0-8;5-4;8-6;7-2;4-8;1-4,0-8,7.15,14,14,676.715195601,1
GEMS119,2018_Oct_01_0956,George,VC,1.2,1,,10,6,2,SimpleHill,0-0,0,1,0-8,3-0;4-7;10-8;6-8;5-8;6-2,6-8,15.06,26,12,695.849014515,1
GEMS119,2018_Oct_01_0956,George,VC,1.2,1,,10,6,2,SimpleHill,0-0,0,2,6-8,9-2;3-13;7-15;0-3;1-0;13-14,3-13,9.11,28,2,709.03370096,1
GEMS119,2018_Oct_01_0956,George,VC,1.2,1,,10,6,2,SimpleHill,0-0,0,3,3-13,9-7;2-11;9-6;5-7;3-3;5-13,5-13,5.97,32,4,719.056531572,1
GEMS119,2018_Oct_01_0956,George,VC,1.2,1,,10,6,2,SimpleHill,0-0,0,4,5-13,2-11;2-7;0-12;10-5;1-18;9-4,0-12,12.24,21,-11,735.339505361,1
GEMS119,2018_Oct_01_0956,George,VC,1.2,1,,10,6,2,SimpleHill,0-0,0,5,0-12,9-16;4-7;7-18;3-20;0-19;5-16,5-16,18.37,36,15,757.775236989,1
GEMS119,2018_Oct_01_0956,George,VC,1.2,1,,10,6,2,SimpleHill,0-0,0,6,5-16,4-7;7-21;12-18;9-17;5-14;14-17,5-14,2.87,33,-3,764.712348696,1
GEMS119,2018_Oct_01_0956,George,VC,1.2,1,,10,6,2,SimpleHill,0-0,0,7,5-14,9-17;12-19;10-18;10-15;11-12;1-19,11-12,4.44,40,7,773.211081929,1
GEMS119,2018_Oct_01_0956,George,VC,1.2,1,,10,6,2,SimpleHill,0-0,0,8,11-12,4-16;9-7;16-13;3-6;10-16;6-18,16-13,5.61,49,9,782.874777175,1
GEMS119,2018_Oct_01_0956,George,VC,1.2,1,,10,6,2,SimpleHill,0-0,0,9,16-13,17-4;24-8;13-18;24-14;25-17;9-15,25-17,9.5,65,16,796.4337717,1
GEMS119,2018_Oct_01_0956,George,VC,1.2,1,,10,6,2,SimpleHill,0-0,0,10,25-17,25-7;16-13;22-19;29-18;17-19;26-21,29-18,15.42,70,5,815.924743326,1
GEMS119,2018_Oct_01_0956,George,VC,1.2,1,,10,6,2,SimpleHill,0-0,0,11,29-18,29-18;29-27;32-25;25-21;27-10;23-19,25-21,6.51,70,0,826.499368297,1
GEMS119,2018_Oct_01_0956,George,VC,1.2,1,,10,6,2,SimpleHill,0-0,0,12,25-21,32-22;19-21;32-15;27-14;17-20;20-13,32-15,7.49,69,-1,838.126770793,1
GEMS119,2018_Oct_01_0956,George,VC,1.2,1,,10,6,2,SimpleHill,0-0,0,13,32-15,27-7;35-10;28-6;36-21;34-17;29-20,35-10,12.95,63,-6,855.135725706,1
GEMS119,2018_Oct_01_0956,George,VC,1.2,1,,10,6,2,SimpleHill,0-0,0,14,35-10,38-5;43-6;37-16;41-8;29-4;35-11,41-8,3.22,63,0,862.431378047,1
GEMS119,2018_Oct_01_0956,George,VC,1.2,1,,10,6,2,SimpleHill,0-0,0,15,41-8,37-16;40-3;32-11;47-6;36-11;43-10,47-6,0.97,61,-2,867.481603472,1
GEMS119,2018_Oct_01_0956,George,VC,1.2,1,,10,6,2,SimpleHill,0-0,0,16,47-6,38-8;54-11;47-4;48-11;55-5;40-4,48-11,4.01,69,8,875.566942747,1
GEMS119,2018_Oct_01_0956,George,VC,1.2,1,,10,6,2,SimpleHill,0-0,0,17,48-11,42-19;55-14;41-16;45-8;53-5;48-17,55-14,3.39,73,4,883.037059692,1
GEMS119,2018_Oct_01_0956,George,VC,1.2,1,,10,6,2,SimpleHill,0-0,0,18,55-14,53-11;50-13;49-15;50-18;48-14;64-16,53-11,9.48,69,-4,896.595045925,1
GEMS119,2018_Oct_01_0956,George,VC,1.2,1,,10,6,2,SimpleHill,0-0,0,19,53-11,50-11;58-7;51-20;56-10;56-12;50-12,56-12,3.28,70,1,903.959252199,1
GEMS119,2018_Oct_01_0956,George,VC,1.2,1,,10,6,2,SimpleHill,0-0,0,20,56-12,55-8;50-7;52-20;50-4;59-5;53-9,55-8,17.13,64,-6,925.166097702,1
GEMS119,2018_Oct_01_0956,George,VC,1.2,1,,10,6,2,SimpleHill,0-0,0,21,55-8,55-4;49-1;54-17;51-4;48-15;48-14,48-14,1.97,74,10,931.21546816,1
GEMS119,2018_Oct_01_0956,George,VC,1.2,1,,10,6,2,SimpleHill,0-0,0,22,48-14,56-13;52-17;46-23;51-6;44-17;38-14,56-13,11.53,71,-3,946.812756014,1
GEMS119,2018_Oct_01_0956,George,VC,1.2,1,,10,6,2,SimpleHill,0-0,0,23,56-13,51-19;60-4;53-19;56-8;57-8;61-17,51-19,1.99,80,9,952.855784475,1
GEMS119,2018_Oct_01_0956,George,VC,1.2,1,,10,6,2,SimpleHill,0-0,0,24,51-19,53-24;52-20;59-13;56-19;48-24;51-21,48-24,3.5,86,6,960.43418558,1
GEMS119,2018_Oct_01_0956,George,VC,1.2,1,,10,6,2,SimpleHill,0-0,0,25,48-24,50-18;54-21;52-28;47-22;49-17;54-32,52-28,3.99,90,4,968.504441126,1
GEMS119,2018_Oct_01_0956,George,VC,1.2,1,,10,6,2,SimpleHill,0-0,0,26,52-28,49-20;53-21;49-37;43-29;46-28;49-23,49-37,1.49,96,6,974.066632097,1
GEMS119,2018_Oct_01_0956,George,VC,1.2,1,,10,6,2,SimpleHill,0-0,0,27,49-37,56-44;57-39;48-40;46-37;52-32;44-35,48-40,9.67,97,1,987.808179969,1
GEMS119,2018_Oct_01_0956,George,VC,1.2,1,,10,6,2,SimpleHill,0-0,0,28,48-40,52-33;56-36;55-36;45-44;56-41;39-39,45-44,3.26,98,1,995.135770519,1
GEMS119,2018_Oct_01_0956,George,VC,1.2,1,,10,6,2,SimpleHill,0-0,0,29,45-44,49-39;52-41;45-40;40-48;43-50;49-46,40-48,13.35,97,-1,1012.56022048,1
GEMS119,2018_Oct_01_0956,George,VC,1.2,1,,10,6,2,SimpleHill,0-0,0,30,40-48,36-51;37-46;45-52;39-46;43-53;41-41,43-53,2.86,98,1,1019.49622531,1
GEMS119,2018_Oct_01_0956,George,VC,1.2,1,,10,6,2,SimpleHill,0-0,0,31,43-53,34-55;39-46;47-53;43-55;42-61;49-55,42-61,10.51,96,-2,1034.09286337,1
GEMS119,2018_Oct_01_0956,George,VC,1.2,1,,10,6,2,SimpleHill,0-0,0,32,42-61,39-58;33-65;40-63;36-53;33-58;36-63,36-63,4.24,92,-4,1042.41148621,1
GEMS119,2018_Oct_01_0956,George,VC,1.2,1,,10,6,2,SimpleHill,0-0,0,33,36-63,40-56;41-69;41-63;39-59;36-58;32-56,41-63,2.79,95,3,1049.26976132,1
GEMS119,2018_Oct_01_0956,George,VC,1.2,1,,10,6,2,SimpleHill,0-0,0,34,41-63,43-57;38-57;46-64;47-61;46-68;49-63,46-68,2.82,93,-2,1056.1686514,1
GEMS119,2018_Oct_01_0956,George,VC,1.2,1,,10,6,2,SimpleHill,0-0,0,35,46-68,46-59;41-68;40-65;42-65;53-70;56-68,53-70,2.59,91,-2,1062.82192763,1
GEMS119,2018_Oct_01_0956,George,VC,1.2,1,,10,6,2,SimpleHill,0-0,0,36,53-70,48-69;55-68;50-67;51-66;57-70;57-67,48-69,1.63,92,1,1068.52847177,1
GEMS119,2018_Oct_01_0956,George,VC,1.2,1,,10,6,2,SimpleHill,0-0,0,37,48-69,39-65;43-62;46-61;41-64;49-70;54-61,46-61,1.62,97,5,1074.22041423,1
GEMS119,2018_Oct_01_0956,George,VC,1.2,1,,10,6,2,SimpleHill,0-0,0,38,46-61,43-55;43-58;43-61;48-60;40-57;44-67,43-58,3.59,97,0,1081.86967906,1
GEMS119,2018_Oct_01_0956,George,VC,1.2,1,,10,6,2,SimpleHill,0-0,0,39,43-58,39-60;43-50;51-53;37-55;37-59;41-66,41-66,3.75,93,-4,1089.68236241,1
GEMS119,2018_Oct_01_0956,George,VC,1.2,1,,10,6,3,SimpleHill,0-0,0,0,0-0,5-7;2-3;1-7;6-2;6-8;5-2,6-8,4.58,26,26,1293.14897786,1
GEMS119,2018_Oct_01_0956,George,VC,1.2,1,,10,6,3,SimpleHill,0-0,0,1,6-8,14-6;11-2;13-14;6-12;5-10;7-9,6-12,1.64,32,6,1298.83621817,1
GEMS119,2018_Oct_01_0956,George,VC,1.2,1,,10,6,3,SimpleHill,0-0,0,2,6-12,4-4;14-13;5-4;0-5;2-13;4-11,4-11,2.55,27,-5,1305.46474931,1
GEMS119,2018_Oct_01_0956,George,VC,1.2,1,,10,6,3,SimpleHill,0-0,0,3,4-11,13-12;2-12;8-13;4-8;10-5;5-17,5-17,5.11,37,10,1314.66352368,1
GEMS119,2018_Oct_01_0956,George,VC,1.2,1,,10,6,3,SimpleHill,0-0,0,4,5-17,5-10;11-10;12-16;10-22;5-7;8-25,10-22,2.41,52,15,1321.14226456,1
GEMS119,2018_Oct_01_0956,George,VC,1.2,1,,10,6,3,SimpleHill,0-0,0,5,10-22,10-17;6-14;17-27;7-22;13-18;9-13,17-27,1.66,67,15,1326.88895408,1
GEMS119,2018_Oct_01_0956,George,VC,1.2,1,,10,6,3,SimpleHill,0-0,0,6,17-27,20-33;20-18;12-24;21-22;11-28;15-20,20-33,20.0,76,9,1350.96410673,1
GEMS119,2018_Oct_01_0956,George,VC,1.2,1,,10,6,3,SimpleHill,0-0,0,7,20-33,14-27;22-35;13-29;14-29;25-34;23-24,25-34,2.15,82,6,1357.18663037,1
GEMS119,2018_Oct_01_0956,George,VC,1.2,1,,10,6,3,SimpleHill,0-0,0,8,25-34,18-32;30-29;25-30;32-37;19-34;22-35,32-37,1.63,90,8,1362.89137238,1
GEMS119,2018_Oct_01_0956,George,VC,1.2,1,,10,6,3,SimpleHill,0-0,0,9,32-37,28-43;36-29;25-32;39-35;26-44;40-32,39-35,1.33,93,3,1368.26922453,1
GEMS119,2018_Oct_01_0956,George,VC,1.2,1,,10,6,3,SimpleHill,0-0,0,10,39-35,33-36;44-32;43-31;48-38;33-35;45-37,48-38,2.08,97,4,1374.43237001,1
GEMS119,2018_Oct_01_0956,George,VC,1.2,1,,10,6,3,SimpleHill,0-0,0,11,48-38,40-38;48-35;52-33;50-33;56-35;44-36,44-36,2.89,95,-2,1381.39963381,1
GEMS119,2018_Oct_01_0956,George,VC,1.2,1,,10,6,3,SimpleHill,0-0,0,12,44-36,40-41;47-35;50-35;43-33;42-39;50-39,40-41,0.77,96,1,1386.24350572,1
GEMS119,2018_Oct_01_0956,George,VC,1.2,1,,10,6,3,SimpleHill,0-0,0,13,40-41,32-41;35-43;39-47;39-49;34-40;49-38,39-47,1.15,97,1,1391.47425734,1
GEMS119,2018_Oct_01_0956,George,VC,1.2,1,,10,6,3,SimpleHill,0-0,0,14,39-47,40-53;33-43;31-45;35-55;30-48;44-47,44-47,4.03,99,2,1399.58129762,1
GEMS119,2018_Oct_01_0956,George,VC,1.2,1,,10,6,3,SimpleHill,0-0,0,15,44-47,45-47;48-53;44-41;45-54;44-51;44-43,44-51,2.05,99,0,1405.69663663,1
GEMS119,2018_Oct_01_0956,George,VC,1.2,1,,10,6,3,SimpleHill,0-0,0,16,44-51,43-46;39-49;45-48;38-56;50-58;39-47,50-58,3.96,98,-1,1413.73096753,1
GEMS119,2018_Oct_01_0956,George,VC,1.2,1,,10,6,3,SimpleHill,0-0,0,17,50-58,47-55;47-59;41-55;44-50;57-51;57-54,47-59,1.19,98,0,1418.9878464,1
GEMS119,2018_Oct_01_0956,George,VC,1.2,1,,10,6,3,SimpleHill,0-0,0,18,47-59,45-50;42-57;42-67;45-61;47-56;47-57,42-67,1.17,92,-6,1424.22984736,1
GEMS119,2018_Oct_01_0956,George,VC,1.2,1,,10,6,3,SimpleHill,0-0,0,19,42-67,49-60;38-68;34-65;42-62;51-69;49-65,42-62,1.88,95,3,1430.19241284,1
GEMS119,2018_Oct_01_0956,George,VC,1.2,1,,10,6,3,SimpleHill,0-0,0,20,42-62,33-58;50-62;40-63;37-69;50-56;47-65,47-65,2.07,95,0,1436.33666038,1
GEMS119,2018_Oct_01_0956,George,VC,1.2,1,,10,6,3,SimpleHill,0-0,0,21,47-65,43-70;48-70;47-64;54-67;38-64;49-62,48-70,1.47,91,-4,1441.87513888,1
GEMS119,2018_Oct_01_0956,George,VC,1.2,1,,10,6,3,SimpleHill,0-0,0,22,48-70,52-69;45-65;49-62;46-66;45-64;49-67,45-64,2.51,95,4,1448.45801328,1
GEMS119,2018_Oct_01_0956,George,VC,1.2,1,,10,6,3,SimpleHill,0-0,0,23,45-64,45-61;38-67;40-68;43-57;39-57;43-65,43-65,3.03,94,-1,1455.54928003,1
GEMS119,2018_Oct_01_0956,George,VC,1.2,1,,10,6,3,SimpleHill,0-0,0,24,43-65,42-70;49-57;34-65;41-63;41-61;48-67,34-65,1.49,90,-4,1461.10494047,1
GEMS119,2018_Oct_01_0956,George,VC,1.2,1,,10,6,3,SimpleHill,0-0,0,25,34-65,27-59;38-68;38-70;34-56;25-61;38-67,38-67,1.63,91,1,1466.81875839,1
GEMS119,2018_Oct_01_0956,George,VC,1.2,1,,10,6,3,SimpleHill,0-0,0,26,38-67,38-65;32-68;38-60;30-68;39-61;47-67,30-68,4.24,85,-6,1475.1406084,1
GEMS119,2018_Oct_01_0956,George,VC,1.2,1,,10,6,3,SimpleHill,0-0,0,27,30-68,30-62;31-59;31-62;30-66;37-62;30-59,37-62,2.5,93,8,1481.71327568,1
GEMS119,2018_Oct_01_0956,George,VC,1.2,1,,10,6,3,SimpleHill,0-0,0,28,37-62,30-57;45-64;43-66;46-62;35-69;35-55,45-64,3.88,95,2,1489.65908463,1
GEMS119,2018_Oct_01_0956,George,VC,1.2,1,,10,6,3,SimpleHill,0-0,0,29,45-64,37-68;46-55;38-61;40-69;46-61;53-63,40-69,3.07,90,-5,1496.79928203,1
GEMS119,2018_Oct_01_0956,George,VC,1.2,1,,10,6,3,SimpleHill,0-0,0,30,40-69,45-68;43-65;46-62;43-66;48-68;46-66,45-68,1.18,93,3,1502.02691243,1
GEMS119,2018_Oct_01_0956,George,VC,1.2,1,,10,6,3,SimpleHill,0-0,0,31,45-68,41-68;43-70;48-61;43-67;53-66;53-65,53-66,4.0,94,1,1510.09734691,1
GEMS119,2018_Oct_01_0956,George,VC,1.2,1,,10,6,3,SimpleHill,0-0,0,32,53-66,45-70;48-64;46-64;55-60;56-57;52-66,46-64,2.77,95,1,1516.94552502,1
GEMS119,2018_Oct_01_0956,George,VC,1.2,1,,10,6,3,SimpleHill,0-0,0,33,46-64,46-54;47-57;51-56;44-61;52-58;48-61,44-61,21.09,96,1,1542.11289509,1
GEMS119,2018_Oct_01_0956,George,VC,1.2,1,,10,6,3,SimpleHill,0-0,0,34,44-61,47-53;49-62;51-56;38-53;40-59;42-63,42-63,2.69,95,-1,1548.8736959,1
GEMS119,2018_Oct_01_0956,George,VC,1.2,1,,10,6,3,SimpleHill,0-0,0,35,42-63,46-56;44-67;46-67;47-69;36-56;41-56,47-69,1.69,92,-3,1554.61984351,1
GEMS119,2018_Oct_01_0956,George,VC,1.2,1,,10,6,3,SimpleHill,0-0,0,36,47-69,41-65;45-65;53-66;42-66;40-69;45-60,40-69,1.89,90,-2,1560.58126337,1
GEMS119,2018_Oct_01_0956,George,VC,1.2,1,,10,6,3,SimpleHill,0-0,0,37,40-69,44-61;41-69;38-63;42-62;41-68;48-69,41-69,5.14,91,1,1569.8020025,1
GEMS119,2018_Oct_01_0956,George,VC,1.2,1,,10,6,3,SimpleHill,0-0,0,38,41-69,47-65;48-68;37-68;50-65;40-70;48-64,37-68,1.36,90,-1,1575.21152238,1
GEMS119,2018_Oct_01_0956,George,VC,1.2,1,,10,6,3,SimpleHill,0-0,0,39,37-68,43-70;35-66;40-61;35-70;39-68;31-60,31-60,2.25,90,0,1581.5174164,1
GEMS119,2018_Oct_01_0956,George,VC,1.2,1,,10,6,4,SimpleHill,0-0,0,0,0-0,4-1;6-3;9-1;8-0;5-2;1-4,9-1,2.47,18,18,1594.67745667,1
GEMS119,2018_Oct_01_0956,George,VC,1.2,1,,10,6,4,SimpleHill,0-0,0,1,9-1,5-5;2-0;11-1;3-8;11-4;13-9,11-1,1.26,21,3,1600.02167988,1
GEMS119,2018_Oct_01_0956,George,VC,1.2,1,,10,6,4,SimpleHill,0-0,0,2,11-1,11-9;18-6;18-5;4-2;6-4;11-11,11-11,2.35,39,18,1606.45160374,1
GEMS119,2018_Oct_01_0956,George,VC,1.2,1,,10,6,4,SimpleHill,0-0,0,3,11-11,8-12;16-11;6-8;4-15;3-15;3-7,4-15,1.95,33,-6,1612.47700726,1
GEMS119,2018_Oct_01_0956,George,VC,1.2,1,,10,6,4,SimpleHill,0-0,0,4,4-15,11-12;7-16;0-16;5-11;12-18;8-18,12-18,2.4,50,17,1618.9339015,1
GEMS119,2018_Oct_01_0956,George,VC,1.2,1,,10,6,4,SimpleHill,0-0,0,5,12-18,8-24;17-19;7-18;17-25;13-23;7-17,13-23,3.13,58,8,1626.12602402,1
GEMS119,2018_Oct_01_0956,George,VC,1.2,1,,10,6,4,SimpleHill,0-0,0,6,13-23,10-27;11-23;10-22;5-22;12-20;13-17,10-27,4.75,57,-1,1634.94332375,1
GEMS119,2018_Oct_01_0956,George,VC,1.2,1,,10,6,4,SimpleHill,0-0,0,7,10-27,11-26;8-31;2-32;8-20;10-37;12-27,10-37,2.99,64,7,1642.01894725,1
GEMS119,2018_Oct_01_0956,George,VC,1.2,1,,10,6,4,SimpleHill,0-0,0,8,10-37,8-41;15-31;14-44;8-45;9-36;11-39,11-39,6.91,67,3,1653.00548671,1
GEMS119,2018_Oct_01_0956,George,VC,1.2,1,,10,6,4,SimpleHill,0-0,0,9,11-39,20-38;20-36;17-37;12-36;4-46;14-39,4-46,2.68,57,-10,1659.74818852,1
GEMS119,2018_Oct_01_0956,George,VC,1.2,1,,10,6,4,SimpleHill,0-0,0,10,4-46,1-53;11-42;0-51;5-37;8-46;2-38,8-46,1.82,64,7,1665.62252588,1
GEMS119,2018_Oct_01_0956,George,VC,1.2,1,,10,6,4,SimpleHill,0-0,0,11,8-46,11-48;1-50;1-44;2-50;10-50;14-38,10-50,1.36,68,4,1671.04566186,1
GEMS119,2018_Oct_01_0956,George,VC,1.2,1,,10,6,4,SimpleHill,0-0,0,12,10-50,5-50;8-51;5-51;12-49;8-58;18-51,12-49,6.82,71,3,1681.93142174,1
GEMS119,2018_Oct_01_0956,George,VC,1.2,1,,10,6,4,SimpleHill,0-0,0,13,12-49,11-48;18-48;4-51;4-45;6-49;20-52,11-48,3.86,69,-2,1689.85767302,1
GEMS119,2018_Oct_01_0956,George,VC,1.2,1,,10,6,4,SimpleHill,0-0,0,14,11-48,10-45;6-49;4-46;15-55;9-40;15-45,15-55,4.76,75,6,1698.68002413,1
GEMS119,2018_Oct_01_0956,George,VC,1.2,1,,10,6,4,SimpleHill,0-0,0,15,15-55,16-61;21-58;15-64;22-52;6-56;9-62,22-52,1.39,84,9,1704.13569178,1
GEMS119,2018_Oct_01_0956,George,VC,1.2,1,,10,6,4,SimpleHill,0-0,0,16,22-52,16-52;21-51;31-54;15-54;17-44;25-55,31-54,2.97,92,8,1711.18432538,1
GEMS119,2018_Oct_01_0956,George,VC,1.2,1,,10,6,4,SimpleHill,0-0,0,17,31-54,29-55;30-60;24-61;29-52;29-49;27-51,30-60,3.26,90,-2,1718.50487805,1
GEMS119,2018_Oct_01_0956,George,VC,1.2,1,,10,6,4,SimpleHill,0-0,0,18,30-60,38-63;30-66;36-55;29-68;32-54;36-61,29-68,2.61,84,-6,1725.19580134,1
GEMS119,2018_Oct_01_0956,George,VC,1.2,1,,10,6,4,SimpleHill,0-0,0,19,29-68,32-65;26-67;34-69;36-64;32-60;21-68,21-68,4.47,76,-8,1733.73900474,1
GEMS119,2018_Oct_01_0956,George,VC,1.2,1,,10,6,4,SimpleHill,0-0,0,20,21-68,17-61;23-60;21-63;25-67;20-62;17-68,17-61,3.32,75,-1,1741.13379683,1
GEMS119,2018_Oct_01_0956,George,VC,1.2,1,,10,6,4,SimpleHill,0-0,0,21,17-61,22-68;12-66;23-61;13-52;23-68;9-60,23-68,1.3,78,3,1746.49949793,1
GEMS119,2018_Oct_01_0956,George,VC,1.2,1,,10,6,4,SimpleHill,0-0,0,22,23-68,24-59;23-66;19-65;16-67;19-69;30-65,19-69,5.85,73,-5,1756.42214241,1
GEMS119,2018_Oct_01_0956,George,VC,1.2,1,,10,6,4,SimpleHill,0-0,0,23,19-69,14-67;28-68;23-62;17-61;28-70;14-68,28-70,4.07,82,9,1764.54505641,1
GEMS119,2018_Oct_01_0956,George,VC,1.2,1,,10,6,4,SimpleHill,0-0,0,24,28-70,35-66;37-68;27-67;21-63;32-67;25-68,32-67,1.8,87,5,1770.41901671,1
GEMS119,2018_Oct_01_0956,George,VC,1.2,1,,10,6,4,SimpleHill,0-0,0,25,32-67,34-59;26-62;29-59;40-68;27-64;35-66,40-68,1.91,91,4,1776.40272687,1
GEMS119,2018_Oct_01_0956,George,VC,1.2,1,,10,6,4,SimpleHill,0-0,0,26,40-68,43-61;41-69;38-63;37-61;40-70;32-66,41-69,6.27,91,0,1786.73463803,1
GEMS119,2018_Oct_01_0956,George,VC,1.2,1,,10,6,4,SimpleHill,0-0,0,27,41-69,43-65;39-65;49-65;43-67;34-64;42-69,49-65,2.33,95,4,1793.12000915,1
GEMS119,2018_Oct_01_0956,George,VC,1.2,1,,10,6,4,SimpleHill,0-0,0,28,49-65,41-66;55-60;50-69;44-60;51-67;41-60,51-67,2.99,94,-1,1800.1665087,1
GEMS119,2018_Oct_01_0956,George,VC,1.2,1,,10,6,4,SimpleHill,0-0,0,29,51-67,53-66;55-66;45-61;47-58;43-68;57-64,53-66,2.32,94,0,1806.55757907,1
GEMS119,2018_Oct_01_0956,George,VC,1.2,1,,10,6,4,SimpleHill,0-0,0,30,53-66,49-61;53-59;44-64;54-60;53-65;60-66,44-64,1.32,95,1,1811.94360447,1
GEMS119,2018_Oct_01_0956,George,VC,1.2,1,,10,6,4,SimpleHill,0-0,0,31,44-64,42-60;49-62;39-68;52-60;41-55;43-69,39-68,1.22,91,-4,1817.21737687,1
GEMS119,2018_Oct_01_0956,George,VC,1.2,1,,10,6,4,SimpleHill,0-0,0,32,39-68,39-60;39-68;36-70;45-61;38-59;31-67,36-70,4.27,88,-3,1825.53419278,1
GEMS119,2018_Oct_01_0956,George,VC,1.2,1,,10,6,4,SimpleHill,0-0,0,33,36-70,42-65;40-64;33-62;44-70;27-70;44-69,44-70,4.03,91,3,1833.63883365,1
GEMS119,2018_Oct_01_0956,George,VC,1.2,1,,10,6,4,SimpleHill,0-0,0,34,44-70,38-64;41-66;49-67;49-70;41-68;38-69,38-69,3.7,89,-2,1841.41565573,1
GEMS119,2018_Oct_01_0956,George,VC,1.2,1,,10,6,4,SimpleHill,0-0,0,35,38-69,31-69;43-66;36-64;43-68;38-69;44-68,43-68,2.29,92,3,1847.76488967,1
GEMS119,2018_Oct_01_0956,George,VC,1.2,1,,10,6,4,SimpleHill,0-0,0,36,43-68,39-69;35-67;38-61;40-70;41-68;46-62,41-68,2.85,91,-1,1854.67859332,1
GEMS119,2018_Oct_01_0956,George,VC,1.2,1,,10,6,4,SimpleHill,0-0,0,37,41-68,49-63;47-61;40-61;43-61;37-64;41-68,41-68,1.85,91,0,1860.60230083,1
GEMS119,2018_Oct_01_0956,George,VC,1.2,1,,10,6,4,SimpleHill,0-0,0,38,41-68,40-61;45-65;46-70;41-64;43-59;37-65,46-70,3.26,91,0,1867.91319502,1
GEMS119,2018_Oct_01_0956,George,VC,1.2,1,,10,6,4,SimpleHill,0-0,0,39,46-70,49-65;41-64;50-61;49-63;49-68;40-67,49-68,3.32,93,2,1875.3025401,1
