subj_id,date,computer,experimenter,instructions,sight_radius,n_gabors,start_pos_list_ix,start_pos_list,landscape_ix,landscape_name,starting_pos,starting_score,trial,feedback,pos,stims,selected,rt,score,delta,exp_time
GEMS227,2018_Apr_20_1025,Kramer,EG,spatial_frequency,8,6,14,34-17;11-24;9-9;3-17,0,SpatialFrequencyBias,0-0,0,0,training,0-0,5-5;3-4;0-0;4-3;3-6;0-3,3-4,17.04,15,15,282.03138923
GEMS227,2018_Apr_20_1025,Kramer,EG,spatial_frequency,8,6,14,34-17;11-24;9-9;3-17,0,SpatialFrequencyBias,0-0,0,1,training,3-4,6-11;3-5;7-10;3-9;9-3;6-3,3-5,16.72,19,4,305.245314086
GEMS227,2018_Apr_20_1025,Kramer,EG,spatial_frequency,8,6,14,34-17;11-24;9-9;3-17,0,SpatialFrequencyBias,0-0,0,2,training,3-5,1-0;0-9;8-6;7-5;1-1;8-7,7-5,6.73,19,0,319.831504271
GEMS227,2018_Apr_20_1025,Kramer,EG,spatial_frequency,8,6,14,34-17;11-24;9-9;3-17,0,SpatialFrequencyBias,0-0,0,3,training,7-5,14-7;2-8;12-5;7-0;11-9;13-7,14-7,5.83,26,7,335.993986742
GEMS227,2018_Apr_20_1025,Kramer,EG,spatial_frequency,8,6,14,34-17;11-24;9-9;3-17,0,SpatialFrequencyBias,0-0,0,4,training,14-7,14-4;20-3;17-0;19-4;11-0;18-5,18-5,5.66,19,-7,357.835999651
GEMS227,2018_Apr_20_1025,Kramer,EG,spatial_frequency,8,6,14,34-17;11-24;9-9;3-17,0,SpatialFrequencyBias,0-0,0,5,training,18-5,24-7;23-3;21-7;20-0;19-0;13-1,24-7,3.85,26,7,367.132668736
GEMS227,2018_Apr_20_1025,Kramer,EG,spatial_frequency,8,6,14,34-17;11-24;9-9;3-17,0,SpatialFrequencyBias,0-0,0,6,training,24-7,23-14;18-8;30-11;17-10;22-14;23-11,22-14,7.56,48,22,379.319135737
GEMS227,2018_Apr_20_1025,Kramer,EG,spatial_frequency,8,6,14,34-17;11-24;9-9;3-17,0,SpatialFrequencyBias,0-0,0,7,training,22-14,24-20;25-19;26-13;16-12;17-19;26-14,24-20,8.97,64,16,392.774068795
GEMS227,2018_Apr_20_1025,Kramer,EG,spatial_frequency,8,6,14,34-17;11-24;9-9;3-17,0,SpatialFrequencyBias,0-0,0,8,training,24-20,16-20;18-23;21-20;20-26;21-23;31-22,20-26,8.76,76,12,405.128423349
GEMS227,2018_Apr_20_1025,Kramer,EG,spatial_frequency,8,6,14,34-17;11-24;9-9;3-17,0,SpatialFrequencyBias,0-0,0,9,training,20-26,15-26;16-32;19-21;14-24;19-25;22-27,16-32,7.31,87,11,415.808368306
GEMS227,2018_Apr_20_1025,Kramer,EG,spatial_frequency,8,6,14,34-17;11-24;9-9;3-17,0,SpatialFrequencyBias,0-0,0,10,training,16-32,10-30;18-33;11-28;17-35;11-29;23-35,17-35,5.48,91,4,424.139960443
GEMS227,2018_Apr_20_1025,Kramer,EG,spatial_frequency,8,6,14,34-17;11-24;9-9;3-17,0,SpatialFrequencyBias,0-0,0,11,training,17-35,19-36;15-37;16-37;20-30;10-36;16-36,16-37,3.82,93,2,431.449503008
GEMS227,2018_Apr_20_1025,Kramer,EG,spatial_frequency,8,6,14,34-17;11-24;9-9;3-17,0,SpatialFrequencyBias,0-0,0,12,training,16-37,19-34;14-31;15-40;14-39;14-32;20-40,20-40,4.24,96,3,439.495277836
GEMS227,2018_Apr_20_1025,Kramer,EG,spatial_frequency,8,6,14,34-17;11-24;9-9;3-17,0,SpatialFrequencyBias,0-0,0,13,training,20-40,20-40;15-35;21-37;19-47;18-45;26-36,18-45,5.25,99,3,447.87313166
GEMS227,2018_Apr_20_1025,Kramer,EG,spatial_frequency,8,6,14,34-17;11-24;9-9;3-17,0,SpatialFrequencyBias,0-0,0,14,training,18-45,18-38;12-49;18-53;22-46;17-40;16-49,16-49,4.94,99,0,455.901199931
GEMS227,2018_Apr_20_1025,Kramer,EG,spatial_frequency,8,6,14,34-17;11-24;9-9;3-17,0,SpatialFrequencyBias,0-0,0,15,training,16-49,18-52;12-43;11-43;12-54;20-51;9-52,18-52,3.35,99,0,462.618859786
GEMS227,2018_Apr_20_1025,Kramer,EG,spatial_frequency,8,6,14,34-17;11-24;9-9;3-17,0,SpatialFrequencyBias,0-0,0,16,training,18-52,13-46;16-52;22-50;15-52;26-52;16-48,16-52,4.27,99,0,470.063637909
GEMS227,2018_Apr_20_1025,Kramer,EG,spatial_frequency,8,6,14,34-17;11-24;9-9;3-17,0,SpatialFrequencyBias,0-0,0,17,training,16-52,10-57;14-48;14-57;17-46;16-60;10-55,10-57,3.2,98,-1,477.442528513
GEMS227,2018_Apr_20_1025,Kramer,EG,spatial_frequency,8,6,14,34-17;11-24;9-9;3-17,0,SpatialFrequencyBias,0-0,0,18,training,10-57,12-53;6-52;10-61;12-64;11-56;8-59,8-59,2.99,96,-2,484.195911651
GEMS227,2018_Apr_20_1025,Kramer,EG,spatial_frequency,8,6,14,34-17;11-24;9-9;3-17,0,SpatialFrequencyBias,0-0,0,19,training,8-59,2-60;5-64;11-52;7-62;5-54;9-63,5-64,2.79,92,-4,495.957736908
GEMS227,2018_Apr_20_1025,Kramer,EG,spatial_frequency,8,6,14,34-17;11-24;9-9;3-17,0,SpatialFrequencyBias,0-0,0,20,training,5-64,9-59;3-57;2-68;1-70;9-61;11-69,9-61,3.0,95,3,501.43691121
GEMS227,2018_Apr_20_1025,Kramer,EG,spatial_frequency,8,6,14,34-17;11-24;9-9;3-17,0,SpatialFrequencyBias,0-0,0,21,training,9-61,15-59;16-58;8-66;11-59;12-55;11-63,11-59,1.44,96,1,506.336318303
GEMS227,2018_Apr_20_1025,Kramer,EG,spatial_frequency,8,6,14,34-17;11-24;9-9;3-17,0,SpatialFrequencyBias,0-0,0,22,training,11-59,16-59;8-61;8-54;9-56;10-56;10-62,10-62,4.05,94,-2,514.768677157
GEMS227,2018_Apr_20_1025,Kramer,EG,spatial_frequency,8,6,14,34-17;11-24;9-9;3-17,0,SpatialFrequencyBias,0-0,0,23,training,10-62,9-58;10-64;5-65;5-56;8-60;14-62,5-56,3.61,98,4,522.071569161
GEMS227,2018_Apr_20_1025,Kramer,EG,spatial_frequency,8,6,14,34-17;11-24;9-9;3-17,0,SpatialFrequencyBias,0-0,0,24,training,5-56,9-62;3-59;6-53;6-62;11-57;2-57,6-53,3.74,99,1,529.7814927
GEMS227,2018_Apr_20_1025,Kramer,EG,spatial_frequency,8,6,14,34-17;11-24;9-9;3-17,0,SpatialFrequencyBias,0-0,0,25,training,6-53,4-46;7-52;8-50;5-54;8-49;2-49,8-49,9.71,99,0,543.096520371
GEMS227,2018_Apr_20_1025,Kramer,EG,spatial_frequency,8,6,14,34-17;11-24;9-9;3-17,0,SpatialFrequencyBias,0-0,0,26,training,8-49,8-52;12-48;3-47;2-52;15-46;9-50,8-52,2.02,99,0,548.737527036
GEMS227,2018_Apr_20_1025,Kramer,EG,spatial_frequency,8,6,14,34-17;11-24;9-9;3-17,0,SpatialFrequencyBias,0-0,0,27,training,8-52,2-53;10-47;10-58;14-47;6-51;8-47,10-58,2.03,97,-2,553.84676084
GEMS227,2018_Apr_20_1025,Kramer,EG,spatial_frequency,8,6,14,34-17;11-24;9-9;3-17,0,SpatialFrequencyBias,0-0,0,28,training,10-58,13-64;13-60;15-64;7-54;6-54;8-55,7-54,0.74,99,2,558.928237824
GEMS227,2018_Apr_20_1025,Kramer,EG,spatial_frequency,8,6,14,34-17;11-24;9-9;3-17,0,SpatialFrequencyBias,0-0,0,29,training,7-54,3-52;1-59;8-48;13-57;2-59;5-53,1-59,1.39,96,-3,564.280387261
GEMS227,2018_Apr_20_1025,Kramer,EG,spatial_frequency,8,6,14,34-17;11-24;9-9;3-17,1,SimpleHill,34-17,73,0,selected,34-17,42-17;27-18;28-17;39-22;35-17;36-15,35-17,3.53,73,0,586.58862705
GEMS227,2018_Apr_20_1025,Kramer,EG,spatial_frequency,8,6,14,34-17;11-24;9-9;3-17,1,SimpleHill,34-17,73,1,selected,35-17,40-20;37-20;39-17;38-16;42-18;31-15,37-20,1.55,78,5,591.679388636
GEMS227,2018_Apr_20_1025,Kramer,EG,spatial_frequency,8,6,14,34-17;11-24;9-9;3-17,1,SimpleHill,34-17,73,2,selected,37-20,34-23;43-24;33-17;32-16;38-14;43-22,43-22,1.58,83,5,596.835751259
GEMS227,2018_Apr_20_1025,Kramer,EG,spatial_frequency,8,6,14,34-17;11-24;9-9;3-17,1,SimpleHill,34-17,73,3,selected,43-22,47-19;39-25;40-17;50-24;36-23;39-23,39-25,6.37,85,2,606.777473939
GEMS227,2018_Apr_20_1025,Kramer,EG,spatial_frequency,8,6,14,34-17;11-24;9-9;3-17,1,SimpleHill,34-17,73,4,selected,39-25,35-20;44-23;43-20;41-20;34-25;33-27,34-25,3.43,82,-3,613.773998375
GEMS227,2018_Apr_20_1025,Kramer,EG,spatial_frequency,8,6,14,34-17;11-24;9-9;3-17,1,SimpleHill,34-17,73,5,selected,34-25,33-22;38-24;34-23;33-30;34-17;41-28,33-30,0.81,86,4,618.152948836
GEMS227,2018_Apr_20_1025,Kramer,EG,spatial_frequency,8,6,14,34-17;11-24;9-9;3-17,1,SimpleHill,34-17,73,6,selected,33-30,37-34;38-25;33-31;37-32;40-32;34-25,37-34,1.01,91,5,622.74429155
GEMS227,2018_Apr_20_1025,Kramer,EG,spatial_frequency,8,6,14,34-17;11-24;9-9;3-17,1,SimpleHill,34-17,73,7,selected,37-34,42-35;40-32;35-40;40-33;37-29;43-30,40-32,1.31,91,0,627.620412875
GEMS227,2018_Apr_20_1025,Kramer,EG,spatial_frequency,8,6,14,34-17;11-24;9-9;3-17,1,SimpleHill,34-17,73,8,selected,40-32,38-36;33-30;36-32;42-25;33-33;33-31,36-32,1.74,89,-2,632.921016857
GEMS227,2018_Apr_20_1025,Kramer,EG,spatial_frequency,8,6,14,34-17;11-24;9-9;3-17,1,SimpleHill,34-17,73,9,selected,36-32,42-30;30-32;32-29;42-27;31-38;28-32,28-32,2.15,83,-6,638.651872845
GEMS227,2018_Apr_20_1025,Kramer,EG,spatial_frequency,8,6,14,34-17;11-24;9-9;3-17,1,SimpleHill,34-17,73,10,selected,28-32,27-31;35-33;28-35;25-33;27-28;29-33,27-31,2.12,82,-1,644.344594934
GEMS227,2018_Apr_20_1025,Kramer,EG,spatial_frequency,8,6,14,34-17;11-24;9-9;3-17,1,SimpleHill,34-17,73,11,selected,27-31,24-32;24-30;22-35;33-36;25-26;24-38,33-36,4.05,90,8,651.965733458
GEMS227,2018_Apr_20_1025,Kramer,EG,spatial_frequency,8,6,14,34-17;11-24;9-9;3-17,1,SimpleHill,34-17,73,12,selected,33-36,39-41;35-32;38-35;29-31;33-35;37-42,33-35,6.17,89,-1,661.689910076
GEMS227,2018_Apr_20_1025,Kramer,EG,spatial_frequency,8,6,14,34-17;11-24;9-9;3-17,1,SimpleHill,34-17,73,13,selected,33-35,30-41;32-34;29-37;37-35;30-39;27-32,30-41,2.36,90,1,667.629267593
GEMS227,2018_Apr_20_1025,Kramer,EG,spatial_frequency,8,6,14,34-17;11-24;9-9;3-17,1,SimpleHill,34-17,73,14,selected,30-41,29-37;26-39;24-37;30-33;26-44;29-42,24-37,1.97,83,-7,673.152386114
GEMS227,2018_Apr_20_1025,Kramer,EG,spatial_frequency,8,6,14,34-17;11-24;9-9;3-17,1,SimpleHill,34-17,73,15,selected,24-37,32-37;19-38;29-34;27-39;28-32;29-37,19-38,0.85,77,-6,677.574904044
GEMS227,2018_Apr_20_1025,Kramer,EG,spatial_frequency,8,6,14,34-17;11-24;9-9;3-17,1,SimpleHill,34-17,73,16,selected,19-38,19-41;18-41;20-32;26-35;20-42;18-37,20-42,1.5,80,3,682.650106575
GEMS227,2018_Apr_20_1025,Kramer,EG,spatial_frequency,8,6,14,34-17;11-24;9-9;3-17,1,SimpleHill,34-17,73,17,selected,20-42,25-45;14-44;22-47;22-48;23-45;25-48,22-48,1.14,84,4,687.352873166
GEMS227,2018_Apr_20_1025,Kramer,EG,spatial_frequency,8,6,14,34-17;11-24;9-9;3-17,1,SimpleHill,34-17,73,18,selected,22-48,22-44;19-53;22-46;19-41;23-49;23-55,19-53,2.61,80,-4,693.526634416
GEMS227,2018_Apr_20_1025,Kramer,EG,spatial_frequency,8,6,14,34-17;11-24;9-9;3-17,1,SimpleHill,34-17,73,19,selected,19-53,12-56;16-56;22-49;21-49;23-54;16-55,21-49,0.74,83,3,697.844613019
GEMS227,2018_Apr_20_1025,Kramer,EG,spatial_frequency,8,6,14,34-17;11-24;9-9;3-17,1,SimpleHill,34-17,73,20,selected,21-49,21-45;25-49;22-54;21-41;22-52;25-48,21-41,0.59,81,-2,701.990194927
GEMS227,2018_Apr_20_1025,Kramer,EG,spatial_frequency,8,6,14,34-17;11-24;9-9;3-17,1,SimpleHill,34-17,73,21,selected,21-41,20-36;21-37;19-36;23-44;18-41;26-36,20-36,0.92,78,-3,706.49200457
GEMS227,2018_Apr_20_1025,Kramer,EG,spatial_frequency,8,6,14,34-17;11-24;9-9;3-17,1,SimpleHill,34-17,73,22,selected,20-36,23-29;20-40;22-39;25-42;14-36;15-42,14-36,0.95,70,-8,711.008868803
GEMS227,2018_Apr_20_1025,Kramer,EG,spatial_frequency,8,6,14,34-17;11-24;9-9;3-17,1,SimpleHill,34-17,73,23,selected,14-36,15-41;18-42;21-34;19-30;12-35;14-29,21-34,0.4,78,8,714.974006569
GEMS227,2018_Apr_20_1025,Kramer,EG,spatial_frequency,8,6,14,34-17;11-24;9-9;3-17,1,SimpleHill,34-17,73,24,selected,21-34,21-38;23-35;24-35;19-37;23-34;14-35,14-35,0.82,69,-9,719.362322297
GEMS227,2018_Apr_20_1025,Kramer,EG,spatial_frequency,8,6,14,34-17;11-24;9-9;3-17,1,SimpleHill,34-17,73,25,selected,14-35,21-37;9-40;8-40;12-37;16-42;21-35,9-40,0.63,64,-5,723.57198288
GEMS227,2018_Apr_20_1025,Kramer,EG,spatial_frequency,8,6,14,34-17;11-24;9-9;3-17,1,SimpleHill,34-17,73,26,selected,9-40,8-45;1-40;7-40;11-33;12-41;7-39,12-41,2.03,69,5,729.162691171
GEMS227,2018_Apr_20_1025,Kramer,EG,spatial_frequency,8,6,14,34-17;11-24;9-9;3-17,1,SimpleHill,34-17,73,27,selected,12-41,11-38;15-47;15-36;8-41;10-46;8-35,11-38,2.4,66,-3,735.146029717
GEMS227,2018_Apr_20_1025,Kramer,EG,spatial_frequency,8,6,14,34-17;11-24;9-9;3-17,1,SimpleHill,34-17,73,28,selected,11-38,10-38;16-32;14-41;8-41;6-33;8-39,8-41,1.65,63,-3,740.367591979
GEMS227,2018_Apr_20_1025,Kramer,EG,spatial_frequency,8,6,14,34-17;11-24;9-9;3-17,1,SimpleHill,34-17,73,29,selected,8-41,8-38;8-35;2-44;14-41;5-44;7-35,8-35,2.36,60,-3,746.297026629
GEMS227,2018_Apr_20_1025,Kramer,EG,spatial_frequency,8,6,14,34-17;11-24;9-9;3-17,1,SimpleHill,34-17,73,30,selected,8-35,1-35;14-34;13-39;8-29;7-33;3-36,13-39,0.82,70,10,750.678623615
GEMS227,2018_Apr_20_1025,Kramer,EG,spatial_frequency,8,6,14,34-17;11-24;9-9;3-17,1,SimpleHill,34-17,73,31,selected,13-39,15-46;13-33;10-41;10-45;8-33;9-38,9-38,0.75,63,-7,754.999026279
GEMS227,2018_Apr_20_1025,Kramer,EG,spatial_frequency,8,6,14,34-17;11-24;9-9;3-17,1,SimpleHill,34-17,73,32,selected,9-38,12-41;14-39;3-37;12-31;13-35;13-32,13-35,0.95,68,5,759.502961016
GEMS227,2018_Apr_20_1025,Kramer,EG,spatial_frequency,8,6,14,34-17;11-24;9-9;3-17,1,SimpleHill,34-17,73,33,selected,13-35,15-35;8-30;18-35;16-39;8-39;11-31,8-30,1.38,56,-12,764.444012782
GEMS227,2018_Apr_20_1025,Kramer,EG,spatial_frequency,8,6,14,34-17;11-24;9-9;3-17,1,SimpleHill,34-17,73,34,selected,8-30,4-30;14-35;4-31;3-30;6-35;5-25,4-30,2.43,49,-7,770.455332213
GEMS227,2018_Apr_20_1025,Kramer,EG,spatial_frequency,8,6,14,34-17;11-24;9-9;3-17,1,SimpleHill,34-17,73,35,selected,4-30,3-30;8-28;0-33;0-24;2-32;6-23,0-24,1.11,36,-13,775.141826902
GEMS227,2018_Apr_20_1025,Kramer,EG,spatial_frequency,8,6,14,34-17;11-24;9-9;3-17,1,SimpleHill,34-17,73,36,selected,0-24,1-28;0-25;1-21;7-24;0-29;5-30,1-21,0.46,35,-1,779.156814593
GEMS227,2018_Apr_20_1025,Kramer,EG,spatial_frequency,8,6,14,34-17;11-24;9-9;3-17,1,SimpleHill,34-17,73,37,selected,1-21,6-27;2-16;7-18;1-28;1-19;2-25,1-19,1.93,32,-3,784.664343009
GEMS227,2018_Apr_20_1025,Kramer,EG,spatial_frequency,8,6,14,34-17;11-24;9-9;3-17,1,SimpleHill,34-17,73,38,selected,1-19,4-25;0-16;1-26;7-23;8-17;7-20,1-26,2.7,40,8,790.956375234
GEMS227,2018_Apr_20_1025,Kramer,EG,spatial_frequency,8,6,14,34-17;11-24;9-9;3-17,1,SimpleHill,34-17,73,39,selected,1-26,5-25;4-33;1-24;6-29;1-31;3-26,4-33,2.08,51,11,796.602241224
GEMS227,2018_Apr_20_1025,Kramer,EG,spatial_frequency,8,6,14,34-17;11-24;9-9;3-17,2,SimpleHill,11-24,56,0,selected,11-24,10-19;10-30;11-29;10-28;13-18;4-26,4-26,5.0,46,-10,814.172922928
GEMS227,2018_Apr_20_1025,Kramer,EG,spatial_frequency,8,6,14,34-17;11-24;9-9;3-17,2,SimpleHill,11-24,56,1,selected,4-26,2-31;10-22;7-21;2-32;5-26;10-24,2-32,1.12,47,1,818.856914494
GEMS227,2018_Apr_20_1025,Kramer,EG,spatial_frequency,8,6,14,34-17;11-24;9-9;3-17,2,SimpleHill,11-24,56,2,selected,2-32,8-32;7-28;8-27;2-28;3-26;5-33,8-27,2.86,54,7,825.289854957
GEMS227,2018_Apr_20_1025,Kramer,EG,spatial_frequency,8,6,14,34-17;11-24;9-9;3-17,2,SimpleHill,11-24,56,3,selected,8-27,10-21;14-32;8-25;6-23;8-30;10-30,14-32,1.82,67,13,830.679600858
GEMS227,2018_Apr_20_1025,Kramer,EG,spatial_frequency,8,6,14,34-17;11-24;9-9;3-17,2,SimpleHill,11-24,56,4,selected,14-32,16-35;8-37;17-34;16-34;17-31;12-29,12-29,3.98,62,-5,838.245123311
GEMS227,2018_Apr_20_1025,Kramer,EG,spatial_frequency,8,6,14,34-17;11-24;9-9;3-17,2,SimpleHill,11-24,56,5,selected,12-29,17-30;11-27;10-27;18-27;8-35;19-30,10-27,0.69,57,-5,842.484913561
GEMS227,2018_Apr_20_1025,Kramer,EG,spatial_frequency,8,6,14,34-17;11-24;9-9;3-17,2,SimpleHill,11-24,56,6,selected,10-27,4-32;16-31;2-27;12-28;11-26;4-22,11-26,0.83,58,1,846.880047899
GEMS227,2018_Apr_20_1025,Kramer,EG,spatial_frequency,8,6,14,34-17;11-24;9-9;3-17,2,SimpleHill,11-24,56,7,selected,11-26,11-24;13-28;12-28;8-28;18-26;14-27,13-28,3.0,62,4,853.450521223
GEMS227,2018_Apr_20_1025,Kramer,EG,spatial_frequency,8,6,14,34-17;11-24;9-9;3-17,2,SimpleHill,11-24,56,8,selected,13-28,16-31;10-34;13-29;9-23;16-32;10-25,10-34,1.48,62,0,858.50273407
GEMS227,2018_Apr_20_1025,Kramer,EG,spatial_frequency,8,6,14,34-17;11-24;9-9;3-17,2,SimpleHill,11-24,56,9,selected,10-34,5-36;10-37;4-39;5-39;5-28;9-30,5-36,0.74,55,-7,862.812932505
GEMS227,2018_Apr_20_1025,Kramer,EG,spatial_frequency,8,6,14,34-17;11-24;9-9;3-17,2,SimpleHill,11-24,56,10,selected,5-36,10-30;10-41;2-32;10-38;0-36;7-33,10-38,0.48,65,10,866.86645133
GEMS227,2018_Apr_20_1025,Kramer,EG,spatial_frequency,8,6,14,34-17;11-24;9-9;3-17,2,SimpleHill,11-24,56,11,selected,10-38,8-44;6-39;7-35;11-40;6-40;3-35,7-35,0.49,58,-7,870.937702319
GEMS227,2018_Apr_20_1025,Kramer,EG,spatial_frequency,8,6,14,34-17;11-24;9-9;3-17,2,SimpleHill,11-24,56,12,selected,7-35,2-37;4-40;5-40;10-33;13-35;2-38,13-35,0.41,68,10,874.912586581
GEMS227,2018_Apr_20_1025,Kramer,EG,spatial_frequency,8,6,14,34-17;11-24;9-9;3-17,2,SimpleHill,11-24,56,13,selected,13-35,11-28;7-34;7-39;13-33;8-32;11-40,7-39,2.36,60,-8,880.835369068
GEMS227,2018_Apr_20_1025,Kramer,EG,spatial_frequency,8,6,14,34-17;11-24;9-9;3-17,2,SimpleHill,11-24,56,14,selected,7-39,5-44;2-44;4-46;3-43;9-42;1-44,3-43,0.71,54,-6,885.101168434
GEMS227,2018_Apr_20_1025,Kramer,EG,spatial_frequency,8,6,14,34-17;11-24;9-9;3-17,2,SimpleHill,11-24,56,15,selected,3-43,7-43;0-50;9-43;8-43;4-47;6-41,0-50,2.31,50,-4,890.985935456
GEMS227,2018_Apr_20_1025,Kramer,EG,spatial_frequency,8,6,14,34-17;11-24;9-9;3-17,2,SimpleHill,11-24,56,16,selected,0-50,2-57;2-45;6-46;0-54;0-52;3-51,2-57,2.37,52,2,896.937563078
GEMS227,2018_Apr_20_1025,Kramer,EG,spatial_frequency,8,6,14,34-17;11-24;9-9;3-17,2,SimpleHill,11-24,56,17,selected,2-57,8-61;8-55;2-57;5-63;8-58;0-59,8-58,1.85,63,11,902.365166959
GEMS227,2018_Apr_20_1025,Kramer,EG,spatial_frequency,8,6,14,34-17;11-24;9-9;3-17,2,SimpleHill,11-24,56,18,selected,8-58,10-52;13-63;14-61;9-59;15-55;6-62,14-61,2.83,71,8,908.775917649
GEMS227,2018_Apr_20_1025,Kramer,EG,spatial_frequency,8,6,14,34-17;11-24;9-9;3-17,2,SimpleHill,11-24,56,19,selected,14-61,15-59;18-56;21-62;8-57;16-67;9-63,15-59,2.8,73,2,915.158525488
GEMS227,2018_Apr_20_1025,Kramer,EG,spatial_frequency,8,6,14,34-17;11-24;9-9;3-17,2,SimpleHill,11-24,56,20,selected,15-59,18-63;10-58;18-56;18-53;13-53;12-56,18-53,5.5,79,6,924.22376898
GEMS227,2018_Apr_20_1025,Kramer,EG,spatial_frequency,8,6,14,34-17;11-24;9-9;3-17,2,SimpleHill,11-24,56,21,selected,18-53,21-51;15-47;14-58;14-56;18-60;14-49,21-51,2.75,83,4,930.556313712
GEMS227,2018_Apr_20_1025,Kramer,EG,spatial_frequency,8,6,14,34-17;11-24;9-9;3-17,2,SimpleHill,11-24,56,22,selected,21-51,23-50;23-52;24-49;23-46;18-49;25-45,23-52,4.9,85,2,939.034991871
GEMS227,2018_Apr_20_1025,Kramer,EG,spatial_frequency,8,6,14,34-17;11-24;9-9;3-17,2,SimpleHill,11-24,56,23,selected,23-52,29-49;18-49;23-51;26-59;19-58;21-54,29-49,4.14,91,6,946.726473922
GEMS227,2018_Apr_20_1025,Kramer,EG,spatial_frequency,8,6,14,34-17;11-24;9-9;3-17,2,SimpleHill,11-24,56,24,selected,29-49,36-46;34-44;25-45;35-51;34-50;27-42,36-46,4.83,95,4,955.143732093
GEMS227,2018_Apr_20_1025,Kramer,EG,spatial_frequency,8,6,14,34-17;11-24;9-9;3-17,2,SimpleHill,11-24,56,25,selected,36-46,34-39;41-51;35-52;34-45;38-52;32-52,34-45,1.14,94,-1,959.836419292
GEMS227,2018_Apr_20_1025,Kramer,EG,spatial_frequency,8,6,14,34-17;11-24;9-9;3-17,2,SimpleHill,11-24,56,26,selected,34-45,35-41;37-48;34-38;30-44;33-43;39-45,34-38,4.14,92,-2,967.545984648
GEMS227,2018_Apr_20_1025,Kramer,EG,spatial_frequency,8,6,14,34-17;11-24;9-9;3-17,2,SimpleHill,11-24,56,27,selected,34-38,35-41;41-40;36-37;28-35;34-43;39-39,39-39,1.6,95,3,972.714001518
GEMS227,2018_Apr_20_1025,Kramer,EG,spatial_frequency,8,6,14,34-17;11-24;9-9;3-17,2,SimpleHill,11-24,56,28,selected,39-39,34-35;45-37;37-36;36-45;45-42;39-43,36-45,3.73,95,0,980.000016965
GEMS227,2018_Apr_20_1025,Kramer,EG,spatial_frequency,8,6,14,34-17;11-24;9-9;3-17,2,SimpleHill,11-24,56,29,selected,36-45,41-46;41-51;41-41;33-46;30-48;36-43,33-46,3.09,93,-2,986.663245411
GEMS227,2018_Apr_20_1025,Kramer,EG,spatial_frequency,8,6,14,34-17;11-24;9-9;3-17,2,SimpleHill,11-24,56,30,selected,33-46,27-43;34-42;40-46;31-44;35-42;32-40,35-42,3.13,94,1,993.345427495
GEMS227,2018_Apr_20_1025,Kramer,EG,spatial_frequency,8,6,14,34-17;11-24;9-9;3-17,2,SimpleHill,11-24,56,31,selected,35-42,39-48;42-44;33-37;28-40;32-47;42-40,33-37,2.99,90,-4,999.903736984
GEMS227,2018_Apr_20_1025,Kramer,EG,spatial_frequency,8,6,14,34-17;11-24;9-9;3-17,2,SimpleHill,11-24,56,32,selected,33-37,36-40;29-31;34-39;31-41;27-38;34-38,34-38,0.77,92,2,1004.23655475
GEMS227,2018_Apr_20_1025,Kramer,EG,spatial_frequency,8,6,14,34-17;11-24;9-9;3-17,2,SimpleHill,11-24,56,33,selected,34-38,34-34;40-34;30-43;34-46;39-40;33-42,40-34,1.29,92,0,1009.0857547
GEMS227,2018_Apr_20_1025,Kramer,EG,spatial_frequency,8,6,14,34-17;11-24;9-9;3-17,2,SimpleHill,11-24,56,34,selected,40-34,36-37;35-34;39-38;39-29;41-28;44-28,36-37,0.86,92,0,1013.53106194
GEMS227,2018_Apr_20_1025,Kramer,EG,spatial_frequency,8,6,14,34-17;11-24;9-9;3-17,2,SimpleHill,11-24,56,35,selected,36-37,35-32;36-32;30-41;42-39;36-29;43-39,43-39,1.77,96,4,1018.86205806
GEMS227,2018_Apr_20_1025,Kramer,EG,spatial_frequency,8,6,14,34-17;11-24;9-9;3-17,2,SimpleHill,11-24,56,36,selected,43-39,38-38;39-40;49-43;45-38;43-44;37-39,38-38,1.04,94,-2,1023.4792332
GEMS227,2018_Apr_20_1025,Kramer,EG,spatial_frequency,8,6,14,34-17;11-24;9-9;3-17,2,SimpleHill,11-24,56,37,selected,38-38,33-40;37-45;39-34;38-35;34-37;32-42,38-35,0.58,92,-2,1027.61024642
GEMS227,2018_Apr_20_1025,Kramer,EG,spatial_frequency,8,6,14,34-17;11-24;9-9;3-17,2,SimpleHill,11-24,56,38,selected,38-35,35-31;37-36;31-32;34-33;41-39;36-40,37-36,0.18,92,0,1031.36105985
GEMS227,2018_Apr_20_1025,Kramer,EG,spatial_frequency,8,6,14,34-17;11-24;9-9;3-17,2,SimpleHill,11-24,56,39,selected,37-36,35-39;37-37;37-38;34-34;29-36;38-41,29-36,0.25,87,-5,1035.16543212
GEMS227,2018_Apr_20_1025,Kramer,EG,spatial_frequency,8,6,14,34-17;11-24;9-9;3-17,3,SimpleHill,9-9,32,0,selected,9-9,9-3;1-9;13-5;7-16;14-3;6-6,7-16,3.53,39,7,1048.80272828
GEMS227,2018_Apr_20_1025,Kramer,EG,spatial_frequency,8,6,14,34-17;11-24;9-9;3-17,3,SimpleHill,9-9,32,1,selected,7-16,8-17;0-18;8-15;3-10;0-13;11-15,8-15,1.3,40,1,1053.67305689
GEMS227,2018_Apr_20_1025,Kramer,EG,spatial_frequency,8,6,14,34-17;11-24;9-9;3-17,3,SimpleHill,9-9,32,2,selected,8-15,12-17;15-14;5-11;12-15;12-21;10-8,10-8,0.57,32,-8,1057.79937787
GEMS227,2018_Apr_20_1025,Kramer,EG,spatial_frequency,8,6,14,34-17;11-24;9-9;3-17,3,SimpleHill,9-9,32,3,selected,10-8,5-10;16-7;5-12;14-8;3-11;16-11,3-11,2.93,25,-7,1064.28504973
GEMS227,2018_Apr_20_1025,Kramer,EG,spatial_frequency,8,6,14,34-17;11-24;9-9;3-17,3,SimpleHill,9-9,32,4,selected,3-11,8-9;2-17;9-16;6-18;3-12;2-5,9-16,0.67,43,18,1068.49364856
GEMS227,2018_Apr_20_1025,Kramer,EG,spatial_frequency,8,6,14,34-17;11-24;9-9;3-17,3,SimpleHill,9-9,32,5,selected,9-16,11-20;5-12;7-13;11-18;5-21;13-12,11-20,0.8,51,8,1072.86889396
GEMS227,2018_Apr_20_1025,Kramer,EG,spatial_frequency,8,6,14,34-17;11-24;9-9;3-17,3,SimpleHill,9-9,32,6,selected,11-20,7-17;17-23;17-24;15-20;17-25;8-27,15-20,0.68,57,6,1077.1198199
GEMS227,2018_Apr_20_1025,Kramer,EG,spatial_frequency,8,6,14,34-17;11-24;9-9;3-17,3,SimpleHill,9-9,32,7,selected,15-20,8-22;13-15;11-21;17-17;10-25;21-17,13-15,0.47,48,-9,1081.15546764
GEMS227,2018_Apr_20_1025,Kramer,EG,spatial_frequency,8,6,14,34-17;11-24;9-9;3-17,3,SimpleHill,9-9,32,8,selected,13-15,10-13;9-15;9-10;17-11;17-21;11-10,17-21,0.28,61,13,1085.0179431
GEMS227,2018_Apr_20_1025,Kramer,EG,spatial_frequency,8,6,14,34-17;11-24;9-9;3-17,3,SimpleHill,9-9,32,9,selected,17-21,14-25;24-21;17-25;17-19;12-27;18-17,17-25,0.83,65,4,1089.41109191
GEMS227,2018_Apr_20_1025,Kramer,EG,spatial_frequency,8,6,14,34-17;11-24;9-9;3-17,3,SimpleHill,9-9,32,10,selected,17-25,12-22;24-23;16-25;11-23;22-23;13-24,12-22,0.3,55,-10,1093.27769624
GEMS227,2018_Apr_20_1025,Kramer,EG,spatial_frequency,8,6,14,34-17;11-24;9-9;3-17,3,SimpleHill,9-9,32,11,selected,12-22,7-23;8-16;6-17;14-27;16-20;17-16,14-27,0.2,63,8,1097.05174039
GEMS227,2018_Apr_20_1025,Kramer,EG,spatial_frequency,8,6,14,34-17;11-24;9-9;3-17,3,SimpleHill,9-9,32,12,selected,14-27,14-27;7-24;20-24;8-25;17-24;12-23,7-24,0.48,49,-14,1101.11491961
GEMS227,2018_Apr_20_1025,Kramer,EG,spatial_frequency,8,6,14,34-17;11-24;9-9;3-17,3,SimpleHill,9-9,32,13,selected,7-24,10-22;13-25;1-29;15-24;12-30;8-19,12-30,0.25,63,14,1104.93412144
GEMS227,2018_Apr_20_1025,Kramer,EG,spatial_frequency,8,6,14,34-17;11-24;9-9;3-17,3,SimpleHill,9-9,32,14,selected,12-30,7-31;12-38;16-26;6-34;9-27;14-34,16-26,0.58,65,2,1109.07517948
GEMS227,2018_Apr_20_1025,Kramer,EG,spatial_frequency,8,6,14,34-17;11-24;9-9;3-17,3,SimpleHill,9-9,32,15,selected,16-26,12-32;11-32;10-22;16-23;21-29;9-28,9-28,0.32,56,-9,1112.9708623
GEMS227,2018_Apr_20_1025,Kramer,EG,spatial_frequency,8,6,14,34-17;11-24;9-9;3-17,3,SimpleHill,9-9,32,16,selected,9-28,2-29;11-24;16-30;7-28;8-24;7-27,7-28,0.53,53,-3,1117.07727769
GEMS227,2018_Apr_20_1025,Kramer,EG,spatial_frequency,8,6,14,34-17;11-24;9-9;3-17,3,SimpleHill,9-9,32,17,selected,7-28,4-32;5-35;5-27;1-24;2-31;6-25,4-32,0.34,51,-2,1120.98852212
GEMS227,2018_Apr_20_1025,Kramer,EG,spatial_frequency,8,6,14,34-17;11-24;9-9;3-17,3,SimpleHill,9-9,32,18,selected,4-32,5-33;0-30;2-28;1-32;8-29;10-30,8-29,0.31,55,4,1124.86946468
GEMS227,2018_Apr_20_1025,Kramer,EG,spatial_frequency,8,6,14,34-17;11-24;9-9;3-17,3,SimpleHill,9-9,32,19,selected,8-29,2-30;3-31;8-23;9-25;10-27;5-36,3-31,0.37,48,-7,1128.80539785
GEMS227,2018_Apr_20_1025,Kramer,EG,spatial_frequency,8,6,14,34-17;11-24;9-9;3-17,3,SimpleHill,9-9,32,20,selected,3-31,0-30;9-28;0-29;3-29;4-27;8-34,8-34,0.29,59,11,1132.66010466
GEMS227,2018_Apr_20_1025,Kramer,EG,spatial_frequency,8,6,14,34-17;11-24;9-9;3-17,3,SimpleHill,9-9,32,21,selected,8-34,13-38;5-40;10-37;11-36;8-31;2-37,10-37,0.6,64,5,1136.82598396
GEMS227,2018_Apr_20_1025,Kramer,EG,spatial_frequency,8,6,14,34-17;11-24;9-9;3-17,3,SimpleHill,9-9,32,22,selected,10-37,3-39;6-38;10-34;13-35;9-43;15-40,3-39,0.33,53,-11,1140.71532158
GEMS227,2018_Apr_20_1025,Kramer,EG,spatial_frequency,8,6,14,34-17;11-24;9-9;3-17,3,SimpleHill,9-9,32,23,selected,3-39,0-38;5-45;5-41;3-39;0-42;10-42,3-39,0.3,53,0,1144.57946472
GEMS227,2018_Apr_20_1025,Kramer,EG,spatial_frequency,8,6,14,34-17;11-24;9-9;3-17,3,SimpleHill,9-9,32,24,selected,3-39,5-45;1-32;8-36;1-45;7-35;3-37,1-32,0.56,45,-8,1148.71820049
GEMS227,2018_Apr_20_1025,Kramer,EG,spatial_frequency,8,6,14,34-17;11-24;9-9;3-17,3,SimpleHill,9-9,32,25,selected,1-32,3-32;5-37;6-34;5-33;5-32;3-39,5-32,0.25,53,8,1152.52476284
GEMS227,2018_Apr_20_1025,Kramer,EG,spatial_frequency,8,6,14,34-17;11-24;9-9;3-17,3,SimpleHill,9-9,32,26,selected,5-32,7-34;7-38;10-27;5-25;2-29;12-31,10-27,0.61,57,4,1156.69647997
GEMS227,2018_Apr_20_1025,Kramer,EG,spatial_frequency,8,6,14,34-17;11-24;9-9;3-17,3,SimpleHill,9-9,32,27,selected,10-27,5-32;10-23;16-31;8-31;7-32;5-29,5-29,0.38,50,-7,1160.64253191
GEMS227,2018_Apr_20_1025,Kramer,EG,spatial_frequency,8,6,14,34-17;11-24;9-9;3-17,3,SimpleHill,9-9,32,28,selected,5-29,0-32;4-29;3-35;2-22;7-33;7-34,2-22,0.85,38,-12,1165.06033647
GEMS227,2018_Apr_20_1025,Kramer,EG,spatial_frequency,8,6,14,34-17;11-24;9-9;3-17,3,SimpleHill,9-9,32,29,selected,2-22,6-22;7-27;6-17;0-18;0-19;5-29,7-27,0.25,52,14,1168.87868174
GEMS227,2018_Apr_20_1025,Kramer,EG,spatial_frequency,8,6,14,34-17;11-24;9-9;3-17,3,SimpleHill,9-9,32,30,selected,7-27,3-27;7-28;5-26;9-23;5-25;2-25,5-25,0.39,47,-5,1172.84137112
GEMS227,2018_Apr_20_1025,Kramer,EG,spatial_frequency,8,6,14,34-17;11-24;9-9;3-17,3,SimpleHill,9-9,32,31,selected,5-25,8-32;7-24;5-19;3-18;7-27;8-20,8-32,0.32,58,11,1176.73017003
GEMS227,2018_Apr_20_1025,Kramer,EG,spatial_frequency,8,6,14,34-17;11-24;9-9;3-17,3,SimpleHill,9-9,32,32,selected,8-32,12-34;14-31;9-31;8-29;4-28;13-27,9-31,0.39,59,1,1180.69102624
GEMS227,2018_Apr_20_1025,Kramer,EG,spatial_frequency,8,6,14,34-17;11-24;9-9;3-17,3,SimpleHill,9-9,32,33,selected,9-31,14-29;13-34;8-32;16-31;8-35;2-28,2-28,0.59,44,-15,1184.85025561
GEMS227,2018_Apr_20_1025,Kramer,EG,spatial_frequency,8,6,14,34-17;11-24;9-9;3-17,3,SimpleHill,9-9,32,34,selected,2-28,1-35;2-30;4-26;6-25;7-28;2-23,7-28,0.43,53,9,1188.83129685
GEMS227,2018_Apr_20_1025,Kramer,EG,spatial_frequency,8,6,14,34-17;11-24;9-9;3-17,3,SimpleHill,9-9,32,35,selected,7-28,1-27;10-35;12-33;4-29;7-26;8-28,12-33,0.47,65,12,1192.88070569
GEMS227,2018_Apr_20_1025,Kramer,EG,spatial_frequency,8,6,14,34-17;11-24;9-9;3-17,3,SimpleHill,9-9,32,36,selected,12-33,17-37;11-38;7-39;7-33;11-31;9-37,9-37,0.57,63,-2,1197.01894115
GEMS227,2018_Apr_20_1025,Kramer,EG,spatial_frequency,8,6,14,34-17;11-24;9-9;3-17,3,SimpleHill,9-9,32,37,selected,9-37,12-35;16-37;4-38;4-40;10-44;4-41,16-37,0.4,73,10,1200.9831833
GEMS227,2018_Apr_20_1025,Kramer,EG,spatial_frequency,8,6,14,34-17;11-24;9-9;3-17,3,SimpleHill,9-9,32,38,selected,16-37,18-35;21-34;12-40;13-30;19-32;18-40,12-40,0.48,69,-4,1204.99900643
GEMS227,2018_Apr_20_1025,Kramer,EG,spatial_frequency,8,6,14,34-17;11-24;9-9;3-17,3,SimpleHill,9-9,32,39,selected,12-40,15-41;8-45;12-38;10-42;8-35;15-35,8-35,0.28,60,-9,1208.8525894
GEMS227,2018_Apr_20_1025,Kramer,EG,spatial_frequency,8,6,14,34-17;11-24;9-9;3-17,4,SimpleHill,3-17,34,0,selected,3-17,0-24;1-21;1-22;3-11;3-15;5-20,3-15,0.83,31,-3,1219.1686897
GEMS227,2018_Apr_20_1025,Kramer,EG,spatial_frequency,8,6,14,34-17;11-24;9-9;3-17,4,SimpleHill,3-17,34,1,selected,3-15,5-21;4-12;8-20;2-13;3-19;8-16,8-20,0.33,46,15,1223.08002152
GEMS227,2018_Apr_20_1025,Kramer,EG,spatial_frequency,8,6,14,34-17;11-24;9-9;3-17,4,SimpleHill,3-17,34,2,selected,8-20,11-19;11-22;5-15;8-13;11-17;10-18,10-18,0.42,47,1,1227.04612597
GEMS227,2018_Apr_20_1025,Kramer,EG,spatial_frequency,8,6,14,34-17;11-24;9-9;3-17,4,SimpleHill,3-17,34,3,selected,10-18,13-24;4-20;9-12;12-12;5-21;9-20,4-20,0.39,39,-8,1231.0078109
GEMS227,2018_Apr_20_1025,Kramer,EG,spatial_frequency,8,6,14,34-17;11-24;9-9;3-17,4,SimpleHill,3-17,34,4,selected,4-20,4-28;0-24;7-25;10-22;11-20;7-21,7-25,0.39,50,11,1234.96120991
GEMS227,2018_Apr_20_1025,Kramer,EG,spatial_frequency,8,6,14,34-17;11-24;9-9;3-17,4,SimpleHill,3-17,34,5,selected,7-25,9-21;11-25;3-24;7-22;0-22;8-24,0-22,0.55,34,-16,1239.07899307
GEMS227,2018_Apr_20_1025,Kramer,EG,spatial_frequency,8,6,14,34-17;11-24;9-9;3-17,4,SimpleHill,3-17,34,6,selected,0-22,1-18;1-29;3-29;0-19;7-21;5-16,7-21,0.5,46,12,1243.15394368
GEMS227,2018_Apr_20_1025,Kramer,EG,spatial_frequency,8,6,14,34-17;11-24;9-9;3-17,4,SimpleHill,3-17,34,7,selected,7-21,6-14;5-18;1-22;6-18;13-20;9-15,5-18,0.63,39,-7,1247.35707726
GEMS227,2018_Apr_20_1025,Kramer,EG,spatial_frequency,8,6,14,34-17;11-24;9-9;3-17,4,SimpleHill,3-17,34,8,selected,5-18,4-18;2-14;9-24;11-16;0-23;8-14,8-14,0.84,38,-1,1251.75312002
GEMS227,2018_Apr_20_1025,Kramer,EG,spatial_frequency,8,6,14,34-17;11-24;9-9;3-17,4,SimpleHill,3-17,34,9,selected,8-14,11-20;15-15;5-11;8-22;14-18;12-20,8-22,0.6,49,11,1255.92596293
GEMS227,2018_Apr_20_1025,Kramer,EG,spatial_frequency,8,6,14,34-17;11-24;9-9;3-17,4,SimpleHill,3-17,34,10,selected,8-22,9-22;13-25;13-20;6-23;5-21;5-25,9-22,0.57,50,1,1260.04952151
GEMS227,2018_Apr_20_1025,Kramer,EG,spatial_frequency,8,6,14,34-17;11-24;9-9;3-17,4,SimpleHill,3-17,34,11,selected,9-22,7-16;10-19;16-22;14-27;7-24;12-25,16-22,0.59,61,11,1264.16413095
GEMS227,2018_Apr_20_1025,Kramer,EG,spatial_frequency,8,6,14,34-17;11-24;9-9;3-17,4,SimpleHill,3-17,34,12,selected,16-22,20-16;22-21;19-26;12-22;20-18;12-20,20-18,0.7,61,0,1268.41422946
GEMS227,2018_Apr_20_1025,Kramer,EG,spatial_frequency,8,6,14,34-17;11-24;9-9;3-17,4,SimpleHill,3-17,34,13,selected,20-18,27-18;24-12;18-21;26-14;18-12;19-23,24-12,0.68,57,-4,1272.64950928
GEMS227,2018_Apr_20_1025,Kramer,EG,spatial_frequency,8,6,14,34-17;11-24;9-9;3-17,4,SimpleHill,3-17,34,14,selected,24-12,19-11;21-12;27-10;29-16;20-13;26-13,26-13,0.42,61,4,1276.64912645
GEMS227,2018_Apr_20_1025,Kramer,EG,spatial_frequency,8,6,14,34-17;11-24;9-9;3-17,4,SimpleHill,3-17,34,15,selected,26-13,29-6;27-10;30-17;31-14;21-11;23-12,31-14,0.58,66,5,1280.80083973
GEMS227,2018_Apr_20_1025,Kramer,EG,spatial_frequency,8,6,14,34-17;11-24;9-9;3-17,4,SimpleHill,3-17,34,16,selected,31-14,35-8;36-16;34-11;26-10;30-11;28-10,35-8,0.37,60,-6,1284.74037298
GEMS227,2018_Apr_20_1025,Kramer,EG,spatial_frequency,8,6,14,34-17;11-24;9-9;3-17,4,SimpleHill,3-17,34,17,selected,35-8,28-7;40-2;35-3;40-10;32-13;37-10,35-3,0.47,51,-9,1288.78330794
GEMS227,2018_Apr_20_1025,Kramer,EG,spatial_frequency,8,6,14,34-17;11-24;9-9;3-17,4,SimpleHill,3-17,34,18,selected,35-3,35-3;36-10;41-5;37-2;29-6;33-3,37-2,0.23,50,-1,1292.56148545
GEMS227,2018_Apr_20_1025,Kramer,EG,spatial_frequency,8,6,14,34-17;11-24;9-9;3-17,4,SimpleHill,3-17,34,19,selected,37-2,34-0;32-4;31-7;38-7;36-8;37-4,36-8,0.25,60,10,1296.38421182
GEMS227,2018_Apr_20_1025,Kramer,EG,spatial_frequency,8,6,14,34-17;11-24;9-9;3-17,4,SimpleHill,3-17,34,20,selected,36-8,29-10;38-12;31-11;33-14;40-4;30-9,30-9,0.28,58,-2,1300.24313138
GEMS227,2018_Apr_20_1025,Kramer,EG,spatial_frequency,8,6,14,34-17;11-24;9-9;3-17,4,SimpleHill,3-17,34,21,selected,30-9,31-7;32-4;29-2;24-14;37-6;26-6,31-7,0.34,55,-3,1304.16758282
GEMS227,2018_Apr_20_1025,Kramer,EG,spatial_frequency,8,6,14,34-17;11-24;9-9;3-17,4,SimpleHill,3-17,34,22,selected,31-7,35-13;29-8;30-8;32-2;31-2;26-3,29-8,0.49,55,0,1308.20489473
GEMS227,2018_Apr_20_1025,Kramer,EG,spatial_frequency,8,6,14,34-17;11-24;9-9;3-17,4,SimpleHill,3-17,34,23,selected,29-8,30-2;37-8;28-9;31-7;29-6;28-11,28-9,0.59,56,1,1312.36743129
GEMS227,2018_Apr_20_1025,Kramer,EG,spatial_frequency,8,6,14,34-17;11-24;9-9;3-17,4,SimpleHill,3-17,34,24,selected,28-9,28-7;23-8;25-6;31-15;28-3;26-8,28-3,0.4,46,-10,1316.34584586
GEMS227,2018_Apr_20_1025,Kramer,EG,spatial_frequency,8,6,14,34-17;11-24;9-9;3-17,4,SimpleHill,3-17,34,25,selected,28-3,27-2;23-4;27-7;25-9;31-1;24-4,23-4,1.59,43,-3,1321.49403748
GEMS227,2018_Apr_20_1025,Kramer,EG,spatial_frequency,8,6,14,34-17;11-24;9-9;3-17,4,SimpleHill,3-17,34,26,selected,23-4,17-8;27-4;24-3;18-10;30-1;21-0,18-10,0.64,47,4,1325.68328288
GEMS227,2018_Apr_20_1025,Kramer,EG,spatial_frequency,8,6,14,34-17;11-24;9-9;3-17,4,SimpleHill,3-17,34,27,selected,18-10,21-7;12-14;24-7;20-13;15-16;20-9,20-9,0.39,48,1,1329.63595881
GEMS227,2018_Apr_20_1025,Kramer,EG,spatial_frequency,8,6,14,34-17;11-24;9-9;3-17,4,SimpleHill,3-17,34,28,selected,20-9,17-14;14-12;22-9;25-3;25-7;24-13,25-7,0.48,50,2,1333.69241544
GEMS227,2018_Apr_20_1025,Kramer,EG,spatial_frequency,8,6,14,34-17;11-24;9-9;3-17,4,SimpleHill,3-17,34,29,selected,25-7,26-12;28-6;24-4;27-11;31-11;23-13,28-6,0.54,51,1,1337.80134932
GEMS227,2018_Apr_20_1025,Kramer,EG,spatial_frequency,8,6,14,34-17;11-24;9-9;3-17,4,SimpleHill,3-17,34,30,selected,28-6,35-9;29-6;29-2;32-4;29-7;22-2,22-2,0.53,38,-13,1341.89577564
GEMS227,2018_Apr_20_1025,Kramer,EG,spatial_frequency,8,6,14,34-17;11-24;9-9;3-17,4,SimpleHill,3-17,34,31,selected,22-2,22-7;16-5;20-9;20-3;18-8;17-7,20-3,0.41,37,-1,1345.87308237
GEMS227,2018_Apr_20_1025,Kramer,EG,spatial_frequency,8,6,14,34-17;11-24;9-9;3-17,4,SimpleHill,3-17,34,32,selected,20-3,23-7;15-9;20-11;14-1;22-9;20-9,23-7,0.39,48,11,1349.83629382
GEMS227,2018_Apr_20_1025,Kramer,EG,spatial_frequency,8,6,14,34-17;11-24;9-9;3-17,4,SimpleHill,3-17,34,33,selected,23-7,28-10;23-14;17-5;24-6;29-7;26-12,29-7,0.63,54,6,1354.04483856
GEMS227,2018_Apr_20_1025,Kramer,EG,spatial_frequency,8,6,14,34-17;11-24;9-9;3-17,4,SimpleHill,3-17,34,34,selected,29-7,25-3;27-11;33-11;24-13;26-11;34-11,33-11,0.49,63,9,1358.10369684
GEMS227,2018_Apr_20_1025,Kramer,EG,spatial_frequency,8,6,14,34-17;11-24;9-9;3-17,4,SimpleHill,3-17,34,35,selected,33-11,38-11;32-17;26-12;31-8;27-16;34-17,34-17,0.27,73,10,1361.92930693
GEMS227,2018_Apr_20_1025,Kramer,EG,spatial_frequency,8,6,14,34-17;11-24;9-9;3-17,4,SimpleHill,3-17,34,36,selected,34-17,36-19;40-14;39-21;35-15;32-20;40-22,40-14,0.37,72,-1,1365.85181094
GEMS227,2018_Apr_20_1025,Kramer,EG,spatial_frequency,8,6,14,34-17;11-24;9-9;3-17,4,SimpleHill,3-17,34,37,selected,40-14,42-8;42-18;34-19;44-18;43-17;37-18,34-19,1.49,75,3,1370.9168867
GEMS227,2018_Apr_20_1025,Kramer,EG,spatial_frequency,8,6,14,34-17;11-24;9-9;3-17,4,SimpleHill,3-17,34,38,selected,34-19,31-24;29-20;36-24;30-24;36-19;33-24,36-19,0.31,76,1,1374.77512446
GEMS227,2018_Apr_20_1025,Kramer,EG,spatial_frequency,8,6,14,34-17;11-24;9-9;3-17,4,SimpleHill,3-17,34,39,selected,36-19,29-22;35-24;41-14;41-19;42-19;32-18,41-14,0.41,72,-4,1378.73556935
