subj_id,date,computer,experimenter,instructions,sight_radius,n_gabors,landscape_ix,landscape_name,starting_pos,starting_score,trial,feedback,pos,stims,selected,rt,score,delta,exp_time
GEMS122,2018_Mar_07_1201,George,sf,orientation,8,6,0,OrientationBias,0-0,0,0,training,0-0,3-2;4-5;2-0;1-6;3-0;7-1,7-1,7.55,26,26,145.453187418
GEMS122,2018_Mar_07_1201,George,sf,orientation,8,6,0,OrientationBias,0-0,0,1,training,7-1,4-1;7-1;10-2;4-6;7-7;11-3,11-3,8.84,39,13,161.196128416
GEMS122,2018_Mar_07_1201,George,sf,orientation,8,6,0,OrientationBias,0-0,0,2,training,11-3,18-6;9-8;9-4;7-1;5-5;6-1,18-6,4.71,59,20,170.526078584
GEMS122,2018_Mar_07_1201,George,sf,orientation,8,6,0,OrientationBias,0-0,0,3,training,18-6,13-7;21-3;12-1;20-0;11-8;12-4,20-0,9.93,64,5,186.814784821
GEMS122,2018_Mar_07_1201,George,sf,orientation,8,6,0,OrientationBias,0-0,0,4,training,20-0,20-7;18-1;22-3;12-0;18-7;22-2,20-7,5.58,64,0,205.072858837
GEMS122,2018_Mar_07_1201,George,sf,orientation,8,6,0,OrientationBias,0-0,0,5,training,20-7,17-13;24-3;15-13;23-6;18-9;18-13,23-6,3.92,70,6,212.1335055
GEMS122,2018_Mar_07_1201,George,sf,orientation,8,6,0,OrientationBias,0-0,0,6,training,23-6,22-12;23-8;25-0;16-5;24-13;29-6,29-6,3.15,82,12,218.574351108
GEMS122,2018_Mar_07_1201,George,sf,orientation,8,6,0,OrientationBias,0-0,0,7,training,29-6,22-9;27-3;31-12;30-6;35-7;36-3,35-7,5.44,91,9,226.748248133
GEMS122,2018_Mar_07_1201,George,sf,orientation,8,6,0,OrientationBias,0-0,0,8,training,35-7,29-7;36-1;37-5;39-8;28-10;38-5,36-1,6.33,92,1,236.023269771
GEMS122,2018_Mar_07_1201,George,sf,orientation,8,6,0,OrientationBias,0-0,0,9,training,36-1,35-7;40-1;41-0;42-6;32-4;34-4,42-6,3.04,97,5,243.489183431
GEMS122,2018_Mar_07_1201,George,sf,orientation,8,6,0,OrientationBias,0-0,0,10,training,42-6,40-13;37-8;42-3;39-0;42-2;45-4,45-4,2.71,99,2,248.801351495
GEMS122,2018_Mar_07_1201,George,sf,orientation,8,6,0,OrientationBias,0-0,0,11,training,45-4,44-3;42-6;45-9;45-11;43-3;49-0,45-11,6.38,99,0,257.917289994
GEMS122,2018_Mar_07_1201,George,sf,orientation,8,6,0,OrientationBias,0-0,0,12,training,45-11,52-13;45-3;48-14;43-13;39-10;50-14,45-3,4.58,99,0,265.377556259
GEMS122,2018_Mar_07_1201,George,sf,orientation,8,6,0,OrientationBias,0-0,0,13,training,45-3,50-4;52-3;38-4;42-10;39-8;42-6,52-3,2.79,99,0,270.885280094
GEMS122,2018_Mar_07_1201,George,sf,orientation,8,6,0,OrientationBias,0-0,0,14,training,52-3,50-3;53-6;49-8;52-11;45-0;55-1,52-11,1.72,99,0,275.321082963
GEMS122,2018_Mar_07_1201,George,sf,orientation,8,6,0,OrientationBias,0-0,0,15,training,52-11,45-9;56-9;52-16;51-15;56-17;50-13,56-17,2.75,98,-1,281.542775894
GEMS122,2018_Mar_07_1201,George,sf,orientation,8,6,0,OrientationBias,0-0,0,16,training,56-17,49-16;51-22;57-13;56-14;52-22;53-18,56-14,3.01,98,0,287.756992103
GEMS122,2018_Mar_07_1201,George,sf,orientation,8,6,0,OrientationBias,0-0,0,17,training,56-14,59-7;50-17;59-9;56-12;55-17;64-14,55-17,3.59,99,1,294.498397296
GEMS122,2018_Mar_07_1201,George,sf,orientation,8,6,0,OrientationBias,0-0,0,18,training,55-17,56-11;57-13;56-12;51-18;50-11;60-14,56-12,6.02,98,-1,304.013360665
GEMS122,2018_Mar_07_1201,George,sf,orientation,8,6,0,OrientationBias,0-0,0,19,training,56-12,61-15;62-11;57-6;55-19;58-5;58-8,57-6,1.81,98,0,308.608297248
GEMS122,2018_Mar_07_1201,George,sf,orientation,8,6,0,OrientationBias,0-0,0,20,training,57-6,64-3;53-4;56-5;56-10;56-11;61-9,56-5,4.98,98,0,317.181384631
GEMS122,2018_Mar_07_1201,George,sf,orientation,8,6,0,OrientationBias,0-0,0,21,training,56-5,49-7;62-5;58-5;61-6;54-11;57-2,49-7,2.78,99,1,323.276841685
GEMS122,2018_Mar_07_1201,George,sf,orientation,8,6,0,OrientationBias,0-0,0,22,training,49-7,55-7;55-12;56-8;45-11;52-4;53-13,45-11,4.41,99,0,330.350101277
GEMS122,2018_Mar_07_1201,George,sf,orientation,8,6,0,OrientationBias,0-0,0,23,training,45-11,39-6;39-12;41-8;44-15;48-8;43-9,48-8,2.77,99,0,336.199257321
GEMS122,2018_Mar_07_1201,George,sf,orientation,8,6,0,OrientationBias,0-0,0,24,training,48-8,49-15;54-10;51-2;46-5;55-10;44-12,49-15,4.12,99,0,342.819839083
GEMS122,2018_Mar_07_1201,George,sf,orientation,8,6,0,OrientationBias,0-0,0,25,training,49-15,55-17;45-21;50-14;44-15;54-19;53-9,55-17,2.41,99,0,347.827900615
GEMS122,2018_Mar_07_1201,George,sf,orientation,8,6,0,OrientationBias,0-0,0,26,training,55-17,50-17;53-14;52-21;62-19;56-20;58-18,52-21,4.0,99,0,355.419017853
GEMS122,2018_Mar_07_1201,George,sf,orientation,8,6,0,OrientationBias,0-0,0,27,training,52-21,53-25;47-23;51-18;58-23;47-19;59-24,53-25,6.25,99,0,364.811700089
GEMS122,2018_Mar_07_1201,George,sf,orientation,8,6,0,OrientationBias,0-0,0,28,training,53-25,58-25;49-24;54-31;58-31;57-21;53-32,57-21,3.1,98,-1,370.633698836
GEMS122,2018_Mar_07_1201,George,sf,orientation,8,6,0,OrientationBias,0-0,0,29,training,57-21,55-24;62-18;56-16;57-14;53-25;63-18,55-24,3.54,99,1,377.175176115
GEMS122,2018_Mar_07_1201,George,sf,orientation,8,6,1,SimpleHill,0-0,0,0,selected,0-0,7-2;3-7;2-5;6-4;7-3;0-5,3-7,7.53,18,18,405.900692232
GEMS122,2018_Mar_07_1201,George,sf,orientation,8,6,1,SimpleHill,0-0,0,1,selected,3-7,1-2;9-10;9-4;0-4;1-13;0-11,9-10,7.67,34,16,417.152973852
GEMS122,2018_Mar_07_1201,George,sf,orientation,8,6,1,SimpleHill,0-0,0,2,selected,9-10,8-7;8-15;15-8;3-10;3-9;12-11,15-8,7.15,40,6,427.885709338
GEMS122,2018_Mar_07_1201,George,sf,orientation,8,6,1,SimpleHill,0-0,0,3,selected,15-8,9-7;15-3;13-11;14-8;8-6;11-12,15-3,6.56,31,-9,438.007211686
GEMS122,2018_Mar_07_1201,George,sf,orientation,8,6,1,SimpleHill,0-0,0,4,selected,15-3,17-0;16-10;11-8;14-0;10-2;10-8,17-0,5.11,28,-3,446.687969896
GEMS122,2018_Mar_07_1201,George,sf,orientation,8,6,1,SimpleHill,0-0,0,5,selected,17-0,12-5;23-4;13-4;18-0;17-4;17-0,23-4,1.76,43,15,452.014094957
GEMS122,2018_Mar_07_1201,George,sf,orientation,8,6,1,SimpleHill,0-0,0,6,selected,23-4,28-5;29-1;26-6;29-0;22-2;24-1,28-5,9.26,49,6,464.840107026
GEMS122,2018_Mar_07_1201,George,sf,orientation,8,6,1,SimpleHill,0-0,0,7,selected,28-5,29-1;25-3;28-11;29-8;34-9;22-5,29-1,5.79,43,-6,474.197263144
GEMS122,2018_Mar_07_1201,George,sf,orientation,8,6,1,SimpleHill,0-0,0,8,selected,29-1,26-6;31-7;28-0;31-3;26-7;35-1,31-7,4.23,55,12,481.99516116
GEMS122,2018_Mar_07_1201,George,sf,orientation,8,6,1,SimpleHill,0-0,0,9,selected,31-7,34-7;31-15;34-0;32-2;26-13;26-6,34-0,5.22,44,-11,490.782883433
GEMS122,2018_Mar_07_1201,George,sf,orientation,8,6,1,SimpleHill,0-0,0,10,selected,34-0,32-1;31-6;36-6;30-6;34-2;30-5,30-5,6.33,51,7,500.664001362
GEMS122,2018_Mar_07_1201,George,sf,orientation,8,6,1,SimpleHill,0-0,0,11,selected,30-5,28-10;28-3;30-8;27-2;23-6;36-8,36-8,1.96,60,9,506.16893719
GEMS122,2018_Mar_07_1201,George,sf,orientation,8,6,1,SimpleHill,0-0,0,12,selected,36-8,38-9;32-2;37-3;42-6;39-4;30-7,39-4,4.95,55,-5,514.689947428
GEMS122,2018_Mar_07_1201,George,sf,orientation,8,6,1,SimpleHill,0-0,0,13,selected,39-4,34-9;40-0;42-11;34-5;35-1;35-3,40-0,8.27,48,-7,526.536870506
GEMS122,2018_Mar_07_1201,George,sf,orientation,8,6,1,SimpleHill,0-0,0,14,selected,40-0,48-0;40-1;36-0;35-0;37-4;36-6,48-0,2.45,49,1,532.565969484
GEMS122,2018_Mar_07_1201,George,sf,orientation,8,6,1,SimpleHill,0-0,0,15,selected,48-0,49-4;48-8;41-0;45-6;49-3;52-0,48-8,2.65,64,15,538.772324858
GEMS122,2018_Mar_07_1201,George,sf,orientation,8,6,1,SimpleHill,0-0,0,16,selected,48-8,54-7;51-15;45-6;52-4;48-12;50-6,51-15,2.48,75,11,544.838174627
GEMS122,2018_Mar_07_1201,George,sf,orientation,8,6,1,SimpleHill,0-0,0,17,selected,51-15,56-14;56-11;55-14;51-12;45-13;51-19,51-12,2.7,71,-4,551.10605724
GEMS122,2018_Mar_07_1201,George,sf,orientation,8,6,1,SimpleHill,0-0,0,18,selected,51-12,47-14;55-13;47-7;53-18;57-16;49-6,55-13,4.05,72,1,558.72172398
GEMS122,2018_Mar_07_1201,George,sf,orientation,8,6,1,SimpleHill,0-0,0,19,selected,55-13,52-14;61-13;56-10;50-7;62-11;59-11,59-11,4.33,67,-5,566.599691559
GEMS122,2018_Mar_07_1201,George,sf,orientation,8,6,1,SimpleHill,0-0,0,20,selected,59-11,60-6;56-11;63-6;62-4;56-12;62-6,56-11,1.32,68,1,571.48440829
GEMS122,2018_Mar_07_1201,George,sf,orientation,8,6,1,SimpleHill,0-0,0,21,selected,56-11,61-16;57-9;54-14;60-6;58-16;52-15,57-9,2.2,65,-3,577.251076791
GEMS122,2018_Mar_07_1201,George,sf,orientation,8,6,1,SimpleHill,0-0,0,22,selected,57-9,54-4;57-13;61-4;55-10;61-15;62-11,61-4,2.23,55,-10,583.054211202
GEMS122,2018_Mar_07_1201,George,sf,orientation,8,6,1,SimpleHill,0-0,0,23,selected,61-4,68-2;67-3;60-11;61-12;55-5;55-9,55-5,2.7,59,4,589.31730331
GEMS122,2018_Mar_07_1201,George,sf,orientation,8,6,1,SimpleHill,0-0,0,24,selected,55-5,53-7;60-3;58-7;57-4;52-10;52-2,52-2,3.24,53,-6,596.120103864
GEMS122,2018_Mar_07_1201,George,sf,orientation,8,6,1,SimpleHill,0-0,0,25,selected,52-2,57-0;52-7;52-9;46-7;56-5;55-1,56-5,3.07,58,5,602.75660255
GEMS122,2018_Mar_07_1201,George,sf,orientation,8,6,1,SimpleHill,0-0,0,26,selected,56-5,59-11;61-6;54-1;55-3;56-6;56-12,61-6,4.28,58,0,610.612987565
GEMS122,2018_Mar_07_1201,George,sf,orientation,8,6,1,SimpleHill,0-0,0,27,selected,61-6,56-12;55-6;59-10;59-0;61-3;64-7,55-6,1.04,60,2,615.187104045
GEMS122,2018_Mar_07_1201,George,sf,orientation,8,6,1,SimpleHill,0-0,0,28,selected,55-6,52-2;54-2;58-5;58-2;57-3;48-9,57-3,2.79,54,-6,621.53429088
GEMS122,2018_Mar_07_1201,George,sf,orientation,8,6,1,SimpleHill,0-0,0,29,selected,57-3,62-5;53-1;52-9;54-2;55-7;62-4,55-7,2.54,62,8,627.616409355
GEMS122,2018_Mar_07_1201,George,sf,orientation,8,6,1,SimpleHill,0-0,0,30,selected,55-7,54-13;52-13;61-3;55-0;59-4;51-3,61-3,3.91,53,-9,635.066552692
GEMS122,2018_Mar_07_1201,George,sf,orientation,8,6,1,SimpleHill,0-0,0,31,selected,61-3,67-1;61-10;64-3;57-3;55-2;57-1,55-2,2.48,53,0,641.102154991
GEMS122,2018_Mar_07_1201,George,sf,orientation,8,6,1,SimpleHill,0-0,0,32,selected,55-2,49-1;60-8;59-8;53-2;62-4;53-7,53-7,4.65,62,9,649.30105797
GEMS122,2018_Mar_07_1201,George,sf,orientation,8,6,1,SimpleHill,0-0,0,33,selected,53-7,59-10;50-0;52-1;50-8;48-11;53-7,59-10,4.4,66,4,657.287227409
GEMS122,2018_Mar_07_1201,George,sf,orientation,8,6,1,SimpleHill,0-0,0,34,selected,59-10,53-15;53-8;62-4;58-6;54-11;57-13,62-4,3.09,54,-12,663.935920983
GEMS122,2018_Mar_07_1201,George,sf,orientation,8,6,1,SimpleHill,0-0,0,35,selected,62-4,63-8;59-6;69-2;60-4;65-7;60-0,59-6,1.35,59,5,668.860474198
GEMS122,2018_Mar_07_1201,George,sf,orientation,8,6,1,SimpleHill,0-0,0,36,selected,59-6,57-5;62-3;60-9;67-6;53-3;53-10,53-10,2.59,67,8,675.010239122
GEMS122,2018_Mar_07_1201,George,sf,orientation,8,6,1,SimpleHill,0-0,0,37,selected,53-10,49-9;51-16;47-5;53-15;53-12;58-15,58-15,2.53,74,7,681.105507321
GEMS122,2018_Mar_07_1201,George,sf,orientation,8,6,1,SimpleHill,0-0,0,38,selected,58-15,60-22;61-14;62-21;63-15;62-19;56-17,56-17,2.1,77,3,686.753425311
GEMS122,2018_Mar_07_1201,George,sf,orientation,8,6,1,SimpleHill,0-0,0,39,selected,56-17,52-21;62-13;62-15;57-19;63-14;56-24,63-14,4.31,70,-7,694.629867328
GEMS122,2018_Mar_07_1201,George,sf,orientation,8,6,2,SimpleHill,0-0,0,0,selected,0-0,1-7;6-2;4-3;6-3;0-0;4-2,4-2,2.38,11,11,723.718544821
GEMS122,2018_Mar_07_1201,George,sf,orientation,8,6,2,SimpleHill,0-0,0,1,selected,4-2,0-4;6-1;1-3;8-6;3-2;5-9,5-9,2.16,25,14,729.453878178
GEMS122,2018_Mar_07_1201,George,sf,orientation,8,6,2,SimpleHill,0-0,0,2,selected,5-9,9-4;2-13;5-13;2-16;10-14;5-10,5-10,4.18,27,2,737.219381223
GEMS122,2018_Mar_07_1201,George,sf,orientation,8,6,2,SimpleHill,0-0,0,3,selected,5-10,3-11;2-7;4-8;3-14;4-7;2-17,4-7,4.12,20,-7,744.898282575
GEMS122,2018_Mar_07_1201,George,sf,orientation,8,6,2,SimpleHill,0-0,0,4,selected,4-7,7-3;8-3;7-4;3-7;10-3;5-1,7-4,5.54,20,0,754.009025971
GEMS122,2018_Mar_07_1201,George,sf,orientation,8,6,2,SimpleHill,0-0,0,5,selected,7-4,13-2;12-6;1-9;10-3;1-5;12-9,12-9,1.97,37,17,759.546420148
GEMS122,2018_Mar_07_1201,George,sf,orientation,8,6,2,SimpleHill,0-0,0,6,selected,12-9,10-7;18-4;9-13;9-11;17-9;17-10,17-10,0.94,46,9,764.049091321
GEMS122,2018_Mar_07_1201,George,sf,orientation,8,6,2,SimpleHill,0-0,0,7,selected,17-10,11-7;24-7;21-14;19-7;15-12;18-7,18-7,0.86,42,-4,768.47276108
GEMS122,2018_Mar_07_1201,George,sf,orientation,8,6,2,SimpleHill,0-0,0,8,selected,18-7,21-12;24-8;18-3;15-4;18-8;20-10,24-8,3.29,51,9,775.310054172
GEMS122,2018_Mar_07_1201,George,sf,orientation,8,6,2,SimpleHill,0-0,0,9,selected,24-8,20-7;22-7;21-15;24-15;27-11;26-15,22-7,1.59,47,-4,780.462974889
GEMS122,2018_Mar_07_1201,George,sf,orientation,8,6,2,SimpleHill,0-0,0,10,selected,22-7,21-13;20-7;23-1;20-8;24-13;27-5,27-5,2.26,48,1,786.298294291
GEMS122,2018_Mar_07_1201,George,sf,orientation,8,6,2,SimpleHill,0-0,0,11,selected,27-5,28-7;22-1;29-8;28-5;30-10;30-8,30-10,2.12,60,12,791.995050088
GEMS122,2018_Mar_07_1201,George,sf,orientation,8,6,2,SimpleHill,0-0,0,12,selected,30-10,33-11;31-16;27-7;31-14;31-11;26-4,31-11,3.22,62,2,798.790555732
GEMS122,2018_Mar_07_1201,George,sf,orientation,8,6,2,SimpleHill,0-0,0,13,selected,31-11,33-18;26-10;37-7;31-11;29-16;32-18,37-7,5.5,59,-3,807.87067939
GEMS122,2018_Mar_07_1201,George,sf,orientation,8,6,2,SimpleHill,0-0,0,14,selected,37-7,42-8;38-8;35-13;43-5;42-7;41-3,41-3,1.27,54,-5,812.71024642
GEMS122,2018_Mar_07_1201,George,sf,orientation,8,6,2,SimpleHill,0-0,0,15,selected,41-3,44-5;34-2;42-10;36-2;42-7;36-9,42-7,1.34,61,7,817.609955968
GEMS122,2018_Mar_07_1201,George,sf,orientation,8,6,2,SimpleHill,0-0,0,16,selected,42-7,37-8;43-6;39-8;47-2;38-12;44-13,44-13,1.7,71,10,822.885830653
GEMS122,2018_Mar_07_1201,George,sf,orientation,8,6,2,SimpleHill,0-0,0,17,selected,44-13,44-13;49-16;40-19;39-13;50-13;41-10,50-13,1.26,72,1,827.705833944
GEMS122,2018_Mar_07_1201,George,sf,orientation,8,6,2,SimpleHill,0-0,0,18,selected,50-13,49-16;44-10;49-17;51-6;47-14;49-20,49-20,2.32,81,9,833.59257622
GEMS122,2018_Mar_07_1201,George,sf,orientation,8,6,2,SimpleHill,0-0,0,19,selected,49-20,50-14;45-24;43-24;44-14;50-17;45-22,45-22,2.55,83,2,839.72528469
GEMS122,2018_Mar_07_1201,George,sf,orientation,8,6,2,SimpleHill,0-0,0,20,selected,45-22,37-22;41-16;38-22;41-17;47-21;50-21,50-21,1.92,83,0,845.217202992
GEMS122,2018_Mar_07_1201,George,sf,orientation,8,6,2,SimpleHill,0-0,0,21,selected,50-21,49-22;49-20;49-23;52-19;50-24;54-18,54-18,2.17,79,-4,850.936719614
GEMS122,2018_Mar_07_1201,George,sf,orientation,8,6,2,SimpleHill,0-0,0,22,selected,54-18,50-13;54-25;51-15;59-19;49-22;49-19,50-13,2.44,72,-7,856.957493304
GEMS122,2018_Mar_07_1201,George,sf,orientation,8,6,2,SimpleHill,0-0,0,23,selected,50-13,44-11;47-18;45-17;56-15;51-6;56-17,45-17,1.91,77,5,862.446307988
GEMS122,2018_Mar_07_1201,George,sf,orientation,8,6,2,SimpleHill,0-0,0,24,selected,45-17,46-22;52-20;44-20;41-16;41-14;41-23,44-20,1.99,81,4,868.002473676
GEMS122,2018_Mar_07_1201,George,sf,orientation,8,6,2,SimpleHill,0-0,0,25,selected,44-20,44-18;42-24;48-23;43-25;41-16;40-20,42-24,11.09,85,4,882.651370508
GEMS122,2018_Mar_07_1201,George,sf,orientation,8,6,2,SimpleHill,0-0,0,26,selected,42-24,42-31;49-27;44-24;41-22;47-28;43-31,49-27,3.65,89,4,889.887423434
GEMS122,2018_Mar_07_1201,George,sf,orientation,8,6,2,SimpleHill,0-0,0,27,selected,49-27,52-31;46-24;53-32;50-28;53-31;51-27,53-32,6.51,93,4,899.965970316
GEMS122,2018_Mar_07_1201,George,sf,orientation,8,6,2,SimpleHill,0-0,0,28,selected,53-32,49-30;49-38;51-30;52-35;57-38;47-28,52-35,2.59,95,2,906.146439162
GEMS122,2018_Mar_07_1201,George,sf,orientation,8,6,2,SimpleHill,0-0,0,29,selected,52-35,47-32;56-38;50-40;47-33;47-39;55-33,47-32,3.42,93,-2,913.126389522
GEMS122,2018_Mar_07_1201,George,sf,orientation,8,6,2,SimpleHill,0-0,0,30,selected,47-32,47-36;46-29;43-27;52-31;46-25;42-27,46-25,2.33,87,-6,919.045625358
GEMS122,2018_Mar_07_1201,George,sf,orientation,8,6,2,SimpleHill,0-0,0,31,selected,46-25,47-32;53-22;44-29;47-27;42-31;45-26,47-27,1.37,89,2,923.999641496
GEMS122,2018_Mar_07_1201,George,sf,orientation,8,6,2,SimpleHill,0-0,0,32,selected,47-27,53-27;45-32;43-26;48-21;55-27;47-26,47-26,1.94,88,-1,929.500642746
GEMS122,2018_Mar_07_1201,George,sf,orientation,8,6,2,SimpleHill,0-0,0,33,selected,47-26,42-26;48-31;51-25;47-29;54-24;39-26,51-25,1.3,87,-1,934.362509027
GEMS122,2018_Mar_07_1201,George,sf,orientation,8,6,2,SimpleHill,0-0,0,34,selected,51-25,49-23;45-29;52-28;50-24;47-22;48-19,50-24,1.1,86,-1,939.015818016
GEMS122,2018_Mar_07_1201,George,sf,orientation,8,6,2,SimpleHill,0-0,0,35,selected,50-24,56-29;50-27;53-31;53-22;43-24;52-22,50-27,1.17,89,3,943.773319706
GEMS122,2018_Mar_07_1201,George,sf,orientation,8,6,2,SimpleHill,0-0,0,36,selected,50-27,47-24;43-25;56-32;46-33;47-33;51-32,46-33,1.12,93,4,948.468365889
GEMS122,2018_Mar_07_1201,George,sf,orientation,8,6,2,SimpleHill,0-0,0,37,selected,46-33,49-35;45-28;39-32;51-36;48-32;42-39,51-36,1.08,96,3,953.128645855
GEMS122,2018_Mar_07_1201,George,sf,orientation,8,6,2,SimpleHill,0-0,0,38,selected,51-36,57-39;46-31;44-38;46-42;56-39;56-31,46-31,1.66,92,-4,958.331355695
GEMS122,2018_Mar_07_1201,George,sf,orientation,8,6,2,SimpleHill,0-0,0,39,selected,46-31,46-29;47-28;51-34;41-37;48-36;41-26,47-28,1.21,90,-2,963.099611216
GEMS122,2018_Mar_07_1201,George,sf,orientation,8,6,3,SimpleHill,0-0,0,0,selected,0-0,0-8;2-5;5-3;4-0;7-2;4-2,7-2,4.73,16,16,978.380269364
GEMS122,2018_Mar_07_1201,George,sf,orientation,8,6,3,SimpleHill,0-0,0,1,selected,7-2,9-3;7-0;2-5;2-0;2-6;3-5,7-0,1.28,13,-3,983.231809138
GEMS122,2018_Mar_07_1201,George,sf,orientation,8,6,3,SimpleHill,0-0,0,2,selected,7-0,11-1;7-1;0-1;11-0;2-5;12-4,11-0,1.5,19,6,988.307413088
GEMS122,2018_Mar_07_1201,George,sf,orientation,8,6,3,SimpleHill,0-0,0,3,selected,11-0,13-0;6-3;6-5;8-0;9-3;10-1,10-1,1.32,19,0,993.199042539
GEMS122,2018_Mar_07_1201,George,sf,orientation,8,6,3,SimpleHill,0-0,0,4,selected,10-1,8-6;16-1;16-3;13-0;5-0;14-1,16-1,1.03,28,9,997.803972413
GEMS122,2018_Mar_07_1201,George,sf,orientation,8,6,3,SimpleHill,0-0,0,5,selected,16-1,19-2;12-0;19-1;20-3;21-6;19-7,19-7,2.63,43,15,1004.00202843
GEMS122,2018_Mar_07_1201,George,sf,orientation,8,6,3,SimpleHill,0-0,0,6,selected,19-7,26-7;19-0;16-4;15-12;24-8;14-6,24-8,1.9,51,8,1009.4845997
GEMS122,2018_Mar_07_1201,George,sf,orientation,8,6,3,SimpleHill,0-0,0,7,selected,24-8,23-1;17-7;23-9;19-10;19-3;27-9,27-9,2.12,55,4,1015.18761619
GEMS122,2018_Mar_07_1201,George,sf,orientation,8,6,3,SimpleHill,0-0,0,8,selected,27-9,20-10;26-5;28-3;24-12;23-7;34-6,34-6,1.25,56,1,1020.00286643
GEMS122,2018_Mar_07_1201,George,sf,orientation,8,6,3,SimpleHill,0-0,0,9,selected,34-6,37-8;28-5;32-12;30-12;32-4;33-5,32-4,1.32,51,-5,1024.90039775
GEMS122,2018_Mar_07_1201,George,sf,orientation,8,6,3,SimpleHill,0-0,0,10,selected,32-4,35-4;35-5;31-4;34-6;28-7;35-0,35-0,2.24,45,-6,1030.72051275
GEMS122,2018_Mar_07_1201,George,sf,orientation,8,6,3,SimpleHill,0-0,0,11,selected,35-0,38-1;35-2;31-5;37-4;34-7;34-0,38-1,2.46,49,4,1036.74003584
GEMS122,2018_Mar_07_1201,George,sf,orientation,8,6,3,SimpleHill,0-0,0,12,selected,38-1,38-2;43-2;33-5;40-1;44-3;42-3,38-2,1.18,51,2,1041.47412564
GEMS122,2018_Mar_07_1201,George,sf,orientation,8,6,3,SimpleHill,0-0,0,13,selected,38-2,44-7;40-8;37-3;37-9;38-6;43-7,43-7,1.08,62,11,1046.12090442
GEMS122,2018_Mar_07_1201,George,sf,orientation,8,6,3,SimpleHill,0-0,0,14,selected,43-7,37-6;49-3;44-13;39-4;45-1;40-8,45-1,2.03,51,-11,1051.72646007
GEMS122,2018_Mar_07_1201,George,sf,orientation,8,6,3,SimpleHill,0-0,0,15,selected,45-1,41-7;47-8;43-6;49-4;45-6;37-1,47-8,3.7,64,13,1058.99781633
GEMS122,2018_Mar_07_1201,George,sf,orientation,8,6,3,SimpleHill,0-0,0,16,selected,47-8,46-14;53-13;54-10;50-7;53-11;48-4,54-10,1.67,67,3,1064.23533432
GEMS122,2018_Mar_07_1201,George,sf,orientation,8,6,3,SimpleHill,0-0,0,17,selected,54-10,53-14;57-11;46-10;54-12;56-6;55-15,54-12,4.47,70,3,1072.27936722
GEMS122,2018_Mar_07_1201,George,sf,orientation,8,6,3,SimpleHill,0-0,0,18,selected,54-12,50-6;52-9;56-18;48-7;54-15;50-9,56-18,3.72,78,8,1079.58132369
GEMS122,2018_Mar_07_1201,George,sf,orientation,8,6,3,SimpleHill,0-0,0,19,selected,56-18,61-24;54-13;55-11;55-20;59-18;58-17,55-20,3.04,81,3,1086.6384903
GEMS122,2018_Mar_07_1201,George,sf,orientation,8,6,3,SimpleHill,0-0,0,20,selected,55-20,60-20;61-23;53-19;52-21;51-17;56-14,56-14,1.76,73,-8,1091.97563615
GEMS122,2018_Mar_07_1201,George,sf,orientation,8,6,3,SimpleHill,0-0,0,21,selected,56-14,49-11;51-20;55-9;54-13;54-10;53-14,55-9,1.5,65,-8,1097.03518874
GEMS122,2018_Mar_07_1201,George,sf,orientation,8,6,3,SimpleHill,0-0,0,22,selected,55-9,55-17;58-11;51-7;49-6;51-9;51-15,58-11,1.2,68,3,1101.81278392
GEMS122,2018_Mar_07_1201,George,sf,orientation,8,6,3,SimpleHill,0-0,0,23,selected,58-11,60-15;57-12;59-6;61-18;54-6;56-16,56-16,1.68,76,8,1107.04988771
GEMS122,2018_Mar_07_1201,George,sf,orientation,8,6,3,SimpleHill,0-0,0,24,selected,56-16,56-9;58-16;55-9;58-11;56-17;53-10,55-9,1.39,65,-11,1112.02133449
GEMS122,2018_Mar_07_1201,George,sf,orientation,8,6,3,SimpleHill,0-0,0,25,selected,55-9,58-3;61-12;50-14;51-12;53-16;60-8,51-12,0.76,71,6,1116.32069565
GEMS122,2018_Mar_07_1201,George,sf,orientation,8,6,3,SimpleHill,0-0,0,26,selected,51-12,52-15;48-7;52-13;51-20;56-17;50-12,56-17,1.5,77,6,1121.3738195
GEMS122,2018_Mar_07_1201,George,sf,orientation,8,6,3,SimpleHill,0-0,0,27,selected,56-17,52-19;59-16;60-15;50-19;53-24;60-18,59-16,1.45,75,-2,1126.38030617
GEMS122,2018_Mar_07_1201,George,sf,orientation,8,6,3,SimpleHill,0-0,0,28,selected,59-16,66-14;64-10;61-22;56-9;54-18;60-23,56-9,1.31,65,-10,1131.24912231
GEMS122,2018_Mar_07_1201,George,sf,orientation,8,6,3,SimpleHill,0-0,0,29,selected,56-9,59-16;54-12;51-3;51-15;61-11;52-14,59-16,0.72,75,10,1135.5327125
GEMS122,2018_Mar_07_1201,George,sf,orientation,8,6,3,SimpleHill,0-0,0,30,selected,59-16,54-13;57-14;56-23;58-10;58-16;54-16,57-14,1.5,73,-2,1140.60643559
GEMS122,2018_Mar_07_1201,George,sf,orientation,8,6,3,SimpleHill,0-0,0,31,selected,57-14,62-8;58-8;64-12;55-12;51-15;55-8,58-8,1.33,63,-10,1145.49082038
GEMS122,2018_Mar_07_1201,George,sf,orientation,8,6,3,SimpleHill,0-0,0,32,selected,58-8,53-12;51-9;58-8;63-13;52-4;61-8,61-8,1.24,62,-1,1150.30470991
GEMS122,2018_Mar_07_1201,George,sf,orientation,8,6,3,SimpleHill,0-0,0,33,selected,61-8,58-10;59-15;56-5;64-11;63-13;56-7,59-15,1.57,73,11,1155.45080785
GEMS122,2018_Mar_07_1201,George,sf,orientation,8,6,3,SimpleHill,0-0,0,34,selected,59-15,57-18;54-19;60-14;64-11;58-16;59-22,60-14,1.52,72,-1,1160.54332453
GEMS122,2018_Mar_07_1201,George,sf,orientation,8,6,3,SimpleHill,0-0,0,35,selected,60-14,59-16;64-11;63-17;65-13;53-17;60-18,60-18,1.59,77,5,1165.68389544
GEMS122,2018_Mar_07_1201,George,sf,orientation,8,6,3,SimpleHill,0-0,0,36,selected,60-18,53-19;62-21;63-23;65-23;60-17;62-20,53-19,1.0,80,3,1170.25036587
GEMS122,2018_Mar_07_1201,George,sf,orientation,8,6,3,SimpleHill,0-0,0,37,selected,53-19,59-19;48-13;55-26;52-25;54-12;53-26,54-12,1.45,70,-10,1175.27119685
GEMS122,2018_Mar_07_1201,George,sf,orientation,8,6,3,SimpleHill,0-0,0,38,selected,54-12,55-18;54-10;54-6;53-6;51-18;52-14,55-18,1.31,79,9,1180.1467202
GEMS122,2018_Mar_07_1201,George,sf,orientation,8,6,3,SimpleHill,0-0,0,39,selected,55-18,53-25;48-18;61-14;50-20;60-21;57-12,61-14,2.02,71,-8,1185.72438683
GEMS122,2018_Mar_07_1201,George,sf,orientation,8,6,4,SimpleHill,0-0,0,0,selected,0-0,5-3;6-4;0-4;6-1;7-2;0-8,5-3,1.97,15,15,1197.29265586
GEMS122,2018_Mar_07_1201,George,sf,orientation,8,6,4,SimpleHill,0-0,0,1,selected,5-3,11-2;9-0;6-1;5-8;11-5;4-3,11-5,0.91,29,14,1201.74946481
GEMS122,2018_Mar_07_1201,George,sf,orientation,8,6,4,SimpleHill,0-0,0,2,selected,11-5,12-3;10-9;18-4;9-5;16-6;9-11,16-6,0.91,38,9,1206.21671741
GEMS122,2018_Mar_07_1201,George,sf,orientation,8,6,4,SimpleHill,0-0,0,3,selected,16-6,18-8;11-8;17-8;10-5;15-2;21-12,21-12,2.2,54,16,1211.97723597
GEMS122,2018_Mar_07_1201,George,sf,orientation,8,6,4,SimpleHill,0-0,0,4,selected,21-12,18-5;14-9;20-7;19-8;22-9;20-8,22-9,3.16,50,-4,1218.69819974
GEMS122,2018_Mar_07_1201,George,sf,orientation,8,6,4,SimpleHill,0-0,0,5,selected,22-9,23-7;24-14;29-6;17-6;27-11;20-9,27-11,1.54,59,9,1223.80669448
GEMS122,2018_Mar_07_1201,George,sf,orientation,8,6,4,SimpleHill,0-0,0,6,selected,27-11,24-8;32-16;34-11;26-15;24-5;21-14,32-16,3.34,70,11,1230.69936711
GEMS122,2018_Mar_07_1201,George,sf,orientation,8,6,4,SimpleHill,0-0,0,7,selected,32-16,26-21;31-18;27-12;28-22;33-11;37-18,37-18,1.78,76,6,1236.05310272
GEMS122,2018_Mar_07_1201,George,sf,orientation,8,6,4,SimpleHill,0-0,0,8,selected,37-18,41-12;34-20;43-17;32-15;39-16;32-24,32-24,1.35,80,4,1240.96455775
GEMS122,2018_Mar_07_1201,George,sf,orientation,8,6,4,SimpleHill,0-0,0,9,selected,32-24,38-22;29-17;32-19;32-24;30-21;31-22,38-22,1.59,81,1,1246.1250096
GEMS122,2018_Mar_07_1201,George,sf,orientation,8,6,4,SimpleHill,0-0,0,10,selected,38-22,37-17;33-16;35-29;37-19;37-18;44-21,44-21,1.25,82,1,1250.9437386
GEMS122,2018_Mar_07_1201,George,sf,orientation,8,6,4,SimpleHill,0-0,0,11,selected,44-21,43-15;46-26;38-20;45-16;51-21;38-18,38-18,2.04,76,-6,1256.56175931
GEMS122,2018_Mar_07_1201,George,sf,orientation,8,6,4,SimpleHill,0-0,0,12,selected,38-18,33-21;37-17;35-17;39-14;36-24;38-15,38-15,1.32,72,-4,1261.45331225
GEMS122,2018_Mar_07_1201,George,sf,orientation,8,6,4,SimpleHill,0-0,0,13,selected,38-15,31-13;36-10;38-21;38-7;37-18;43-11,43-11,2.19,68,-4,1267.21501068
GEMS122,2018_Mar_07_1201,George,sf,orientation,8,6,4,SimpleHill,0-0,0,14,selected,43-11,37-16;49-13;49-6;51-11;44-18;44-6,44-18,1.09,78,10,1271.87557457
GEMS122,2018_Mar_07_1201,George,sf,orientation,8,6,4,SimpleHill,0-0,0,15,selected,44-18,46-18;46-15;44-18;46-20;43-17;45-12,43-17,2.01,77,-1,1277.45697539
GEMS122,2018_Mar_07_1201,George,sf,orientation,8,6,4,SimpleHill,0-0,0,16,selected,43-17,50-14;42-11;44-10;48-20;47-23;44-23,47-23,1.15,85,8,1282.1861268
GEMS122,2018_Mar_07_1201,George,sf,orientation,8,6,4,SimpleHill,0-0,0,17,selected,47-23,48-16;51-23;49-25;45-22;51-25;49-20,51-25,1.21,87,2,1286.97748405
GEMS122,2018_Mar_07_1201,George,sf,orientation,8,6,4,SimpleHill,0-0,0,18,selected,51-25,45-22;53-19;50-19;45-24;44-28;49-31,50-19,3.74,80,-7,1294.28416892
GEMS122,2018_Mar_07_1201,George,sf,orientation,8,6,4,SimpleHill,0-0,0,19,selected,50-19,50-22;55-14;56-20;50-24;43-19;43-17,50-24,1.57,86,6,1299.40967147
GEMS122,2018_Mar_07_1201,George,sf,orientation,8,6,4,SimpleHill,0-0,0,20,selected,50-24,52-26;55-25;50-29;57-27;51-18;55-23,52-26,0.74,88,2,1303.72491754
GEMS122,2018_Mar_07_1201,George,sf,orientation,8,6,4,SimpleHill,0-0,0,21,selected,52-26,47-31;51-23;57-29;47-23;51-33;51-21,51-23,1.32,85,-3,1308.60547499
GEMS122,2018_Mar_07_1201,George,sf,orientation,8,6,4,SimpleHill,0-0,0,22,selected,51-23,58-25;51-21;48-23;54-17;50-28;58-20,54-17,0.99,77,-8,1313.17119768
GEMS122,2018_Mar_07_1201,George,sf,orientation,8,6,4,SimpleHill,0-0,0,23,selected,54-17,57-15;51-14;54-25;59-23;57-24;50-22,54-25,1.34,87,10,1318.04970782
GEMS122,2018_Mar_07_1201,George,sf,orientation,8,6,4,SimpleHill,0-0,0,24,selected,54-25,57-32;53-21;53-18;54-24;51-18;58-26,57-32,0.86,92,5,1322.49117601
GEMS122,2018_Mar_07_1201,George,sf,orientation,8,6,4,SimpleHill,0-0,0,25,selected,57-32,57-32;60-26;62-36;58-29;62-35;56-39,57-32,0.92,92,0,1326.98696935
GEMS122,2018_Mar_07_1201,George,sf,orientation,8,6,4,SimpleHill,0-0,0,26,selected,57-32,55-33;63-32;56-35;53-31;59-28;57-40,57-40,1.24,97,5,1331.80646241
GEMS122,2018_Mar_07_1201,George,sf,orientation,8,6,4,SimpleHill,0-0,0,27,selected,57-40,64-37;60-40;55-42;64-40;52-41;57-32,60-40,1.32,96,-1,1336.70254371
GEMS122,2018_Mar_07_1201,George,sf,orientation,8,6,4,SimpleHill,0-0,0,28,selected,60-40,54-40;67-38;65-34;60-34;57-47;56-37,56-37,0.92,95,-1,1341.21340189
GEMS122,2018_Mar_07_1201,George,sf,orientation,8,6,4,SimpleHill,0-0,0,29,selected,56-37,52-35;56-33;51-33;62-36;62-39;49-37,51-33,0.94,94,-1,1345.72400848
GEMS122,2018_Mar_07_1201,George,sf,orientation,8,6,4,SimpleHill,0-0,0,30,selected,51-33,58-33;53-34;55-37;58-36;52-39;53-37,58-36,0.8,94,0,1350.09925271
GEMS122,2018_Mar_07_1201,George,sf,orientation,8,6,4,SimpleHill,0-0,0,31,selected,58-36,56-30;61-30;55-43;60-33;58-41;56-35,56-30,0.85,91,-3,1354.50970777
GEMS122,2018_Mar_07_1201,George,sf,orientation,8,6,4,SimpleHill,0-0,0,32,selected,56-30,56-23;60-29;52-29;48-30;52-27;55-23,52-27,1.88,89,-2,1359.94865139
GEMS122,2018_Mar_07_1201,George,sf,orientation,8,6,4,SimpleHill,0-0,0,33,selected,52-27,55-33;53-30;51-24;48-26;50-23;54-25,55-33,2.06,93,4,1365.5591211
GEMS122,2018_Mar_07_1201,George,sf,orientation,8,6,4,SimpleHill,0-0,0,34,selected,55-33,52-31;58-32;50-29;58-33;61-33;51-33,58-32,2.12,92,-1,1371.24421561
GEMS122,2018_Mar_07_1201,George,sf,orientation,8,6,4,SimpleHill,0-0,0,35,selected,58-32,60-25;60-30;54-36;60-39;61-25;58-27,60-39,0.96,95,3,1375.76123557
GEMS122,2018_Mar_07_1201,George,sf,orientation,8,6,4,SimpleHill,0-0,0,36,selected,60-39,53-36;54-38;55-39;67-38;61-36;64-34,61-36,2.87,93,-2,1382.19756179
GEMS122,2018_Mar_07_1201,George,sf,orientation,8,6,4,SimpleHill,0-0,0,37,selected,61-36,58-40;59-31;59-34;66-38;64-39;56-30,59-31,0.72,91,-2,1386.5022925
GEMS122,2018_Mar_07_1201,George,sf,orientation,8,6,4,SimpleHill,0-0,0,38,selected,59-31,63-30;61-28;59-32;65-31;58-32;56-26,56-26,1.16,87,-4,1391.21995483
GEMS122,2018_Mar_07_1201,George,sf,orientation,8,6,4,SimpleHill,0-0,0,39,selected,56-26,50-21;55-32;62-23;54-25;60-21;62-31,55-32,0.9,93,6,1395.69052135
