subj_id,date,computer,experimenter,version,generation,inherit_from,sight_radius,n_gabors,block_ix,landscape_name,starting_pos,starting_score,trial,pos,stims,selected,rt,score,delta,exp_time,landscape_ix
GEMS217,2018_Oct_24_1746,Jerry,VC,1.3,1,,10,6,1,SimpleHill,0-0,0,0,0-0,7-7;0-8;9-2;6-8;4-8;5-2,6-8,5.14,26,26,138.436707329,1
GEMS217,2018_Oct_24_1746,Jerry,VC,1.3,1,,10,6,1,SimpleHill,0-0,0,1,6-8,11-0;2-10;9-7;6-4;2-14;15-8,2-14,4.78,28,2,147.300402677,1
GEMS217,2018_Oct_24_1746,Jerry,VC,1.3,1,,10,6,1,SimpleHill,0-0,0,2,2-14,0-9;0-21;6-20;0-17;5-19;6-14,0-9,3.37,16,-12,154.738988634,1
GEMS217,2018_Oct_24_1746,Jerry,VC,1.3,1,,10,6,1,SimpleHill,0-0,0,3,0-9,6-15;1-8;5-17;7-14;3-3;6-16,1-8,3.86,16,0,162.676176743,1
GEMS217,2018_Oct_24_1746,Jerry,VC,1.3,1,,10,6,1,SimpleHill,0-0,0,4,1-8,6-3;10-7;1-0;4-16;8-14;1-9,4-16,1.46,34,18,168.201969213,1
GEMS217,2018_Oct_24_1746,Jerry,VC,1.3,1,,10,6,1,SimpleHill,0-0,0,5,4-16,11-20;7-25;8-21;4-15;5-20;13-16,4-15,6.44,33,-1,178.704933917,1
GEMS217,2018_Oct_24_1746,Jerry,VC,1.3,1,,10,6,1,SimpleHill,0-0,0,6,4-15,6-11;2-9;2-18;13-16;7-18;2-15,2-18,0.9,33,0,183.655638282,1
GEMS217,2018_Oct_24_1746,Jerry,VC,1.3,1,,10,6,1,SimpleHill,0-0,0,7,2-18,10-23;0-15;6-15;4-12;4-21;3-26,4-21,1.59,40,7,189.311113956,1
GEMS217,2018_Oct_24_1746,Jerry,VC,1.3,1,,10,6,1,SimpleHill,0-0,0,8,4-21,5-26;7-16;4-23;5-17;8-15;7-17,7-17,1.19,41,1,194.559071602,1
GEMS217,2018_Oct_24_1746,Jerry,VC,1.3,1,,10,6,1,SimpleHill,0-0,0,9,7-17,2-24;8-11;7-17;14-23;15-16;4-15,7-17,1.66,41,0,200.290577096,1
GEMS217,2018_Oct_24_1746,Jerry,VC,1.3,1,,10,6,1,SimpleHill,0-0,0,10,7-17,11-21;11-9;10-20;12-14;6-12;0-14,11-9,1.44,35,-6,205.812216037,1
GEMS217,2018_Oct_24_1746,Jerry,VC,1.3,1,,10,6,1,SimpleHill,0-0,0,11,11-9,8-1;13-9;12-8;15-8;8-5;7-11,8-5,0.75,24,-11,210.634932732,1
GEMS217,2018_Oct_24_1746,Jerry,VC,1.3,1,,10,6,1,SimpleHill,0-0,0,12,8-5,7-12;6-3;1-7;6-14;7-7;11-8,6-14,1.25,35,11,215.92805521,1
GEMS217,2018_Oct_24_1746,Jerry,VC,1.3,1,,10,6,1,SimpleHill,0-0,0,13,6-14,12-15;13-16;5-19;12-22;11-21;9-12,11-21,1.85,52,17,221.843874536,1
GEMS217,2018_Oct_24_1746,Jerry,VC,1.3,1,,10,6,1,SimpleHill,0-0,0,14,11-21,18-21;2-24;17-26;20-23;15-23;9-26,9-26,1.29,54,2,227.213215368,1
GEMS217,2018_Oct_24_1746,Jerry,VC,1.3,1,,10,6,1,SimpleHill,0-0,0,15,9-26,18-24;12-30;14-23;18-28;8-32;3-34,12-30,2.83,63,9,234.114633381,1
GEMS217,2018_Oct_24_1746,Jerry,VC,1.3,1,,10,6,1,SimpleHill,0-0,0,16,12-30,12-22;11-35;19-36;7-32;12-20;11-29,7-32,1.24,56,-7,239.426650321,1
GEMS217,2018_Oct_24_1746,Jerry,VC,1.3,1,,10,6,1,SimpleHill,0-0,0,17,7-32,3-37;12-28;4-32;6-26;6-27;7-26,3-37,1.6,52,-4,245.096913021,1
GEMS217,2018_Oct_24_1746,Jerry,VC,1.3,1,,10,6,1,SimpleHill,0-0,0,18,3-37,5-42;12-37;5-43;2-34;7-30;3-42,12-37,1.09,67,15,250.238400302,1
GEMS217,2018_Oct_24_1746,Jerry,VC,1.3,1,,10,6,1,SimpleHill,0-0,0,19,12-37,7-40;8-37;13-34;20-35;7-37;5-31,7-37,1.73,59,-8,256.053719003,1
GEMS217,2018_Oct_24_1746,Jerry,VC,1.3,1,,10,6,1,SimpleHill,0-0,0,20,7-37,10-40;3-33;10-46;2-32;10-43;11-42,2-32,1.42,47,-12,261.530962936,1
GEMS217,2018_Oct_24_1746,Jerry,VC,1.3,1,,10,6,1,SimpleHill,0-0,0,21,2-32,4-32;11-28;2-33;3-41;2-23;3-30,3-30,0.86,47,0,266.466814336,1
GEMS217,2018_Oct_24_1746,Jerry,VC,1.3,1,,10,6,1,SimpleHill,0-0,0,22,3-30,3-35;4-38;2-21;1-23;3-26;4-33,3-26,0.78,44,-3,271.312460589,1
GEMS217,2018_Oct_24_1746,Jerry,VC,1.3,1,,10,6,1,SimpleHill,0-0,0,23,3-26,4-19;0-24;5-27;3-23;4-23;6-33,3-23,0.63,41,-3,275.998298064,1
GEMS217,2018_Oct_24_1746,Jerry,VC,1.3,1,,10,6,1,SimpleHill,0-0,0,24,3-23,3-33;9-19;6-20;1-24;0-20;4-31,9-19,0.48,47,6,280.55075526,1
GEMS217,2018_Oct_24_1746,Jerry,VC,1.3,1,,10,6,1,SimpleHill,0-0,0,25,9-19,10-19;11-23;16-22;6-17;9-26;10-21,16-22,1.25,61,14,285.871180728,1
GEMS217,2018_Oct_24_1746,Jerry,VC,1.3,1,,10,6,1,SimpleHill,0-0,0,26,16-22,13-15;7-22;20-14;12-29;21-15;18-28,12-29,1.43,62,1,291.363834909,1
GEMS217,2018_Oct_24_1746,Jerry,VC,1.3,1,,10,6,1,SimpleHill,0-0,0,27,12-29,11-28;13-29;14-37;17-35;13-28;19-36,14-37,4.59,70,8,300.027427507,1
GEMS217,2018_Oct_24_1746,Jerry,VC,1.3,1,,10,6,1,SimpleHill,0-0,0,28,14-37,22-33;7-34;12-31;17-28;20-40;16-45,17-28,2.06,68,-2,306.170848791,1
GEMS217,2018_Oct_24_1746,Jerry,VC,1.3,1,,10,6,1,SimpleHill,0-0,0,29,17-28,14-34;11-24;23-28;23-27;18-23;13-33,11-24,3.38,56,-12,313.627528976,1
GEMS217,2018_Oct_24_1746,Jerry,VC,1.3,1,,10,6,1,SimpleHill,0-0,0,30,11-24,14-23;5-18;15-32;16-19;4-31;17-31,15-32,2.6,69,13,320.298689859,1
GEMS217,2018_Oct_24_1746,Jerry,VC,1.3,1,,10,6,1,SimpleHill,0-0,0,31,15-32,11-32;7-37;7-34;9-35;13-25;23-26,11-32,1.79,63,-6,326.146263072,1
GEMS217,2018_Oct_24_1746,Jerry,VC,1.3,1,,10,6,1,SimpleHill,0-0,0,32,11-32,19-36;18-32;4-35;17-26;7-37;6-29,17-26,1.21,66,3,331.427242813,1
GEMS217,2018_Oct_24_1746,Jerry,VC,1.3,1,,10,6,1,SimpleHill,0-0,0,33,17-26,18-32;13-35;12-33;25-30;10-31;16-26,10-31,1.29,60,-6,336.779138885,1
GEMS217,2018_Oct_24_1746,Jerry,VC,1.3,1,,10,6,1,SimpleHill,0-0,0,34,10-31,11-26;9-37;11-38;14-23;6-37;12-34,9-37,1.82,63,3,342.651530206,1
GEMS217,2018_Oct_24_1746,Jerry,VC,1.3,1,,10,6,1,SimpleHill,0-0,0,35,9-37,16-31;15-32;5-39;5-35;3-38;2-36,5-35,3.52,55,-8,350.227482563,1
GEMS217,2018_Oct_24_1746,Jerry,VC,1.3,1,,10,6,1,SimpleHill,0-0,0,36,5-35,1-42;7-42;10-32;4-43;11-39;4-39,7-42,1.0,61,6,355.290570374,1
GEMS217,2018_Oct_24_1746,Jerry,VC,1.3,1,,10,6,1,SimpleHill,0-0,0,37,7-42,16-39;14-47;3-38;0-36;10-37;11-48,16-39,1.0,74,13,360.355167425,1
GEMS217,2018_Oct_24_1746,Jerry,VC,1.3,1,,10,6,1,SimpleHill,0-0,0,38,16-39,16-29;14-30;9-38;23-36;7-43;9-34,7-43,1.62,62,-12,366.054441133,1
GEMS217,2018_Oct_24_1746,Jerry,VC,1.3,1,,10,6,1,SimpleHill,0-0,0,39,7-43,14-45;0-48;3-49;2-44;9-47;1-38,14-45,0.94,73,11,371.074676146,1
GEMS217,2018_Oct_24_1746,Jerry,VC,1.3,1,,10,6,1,SimpleHill,0-0,0,40,14-45,11-52;13-46;11-51;9-49;10-40;19-45,13-46,1.23,72,-1,376.381548227,1
GEMS217,2018_Oct_24_1746,Jerry,VC,1.3,1,,10,6,1,SimpleHill,0-0,0,41,13-46,13-43;17-46;10-43;19-39;18-39;15-41,19-39,1.12,78,6,381.574221933,1
GEMS217,2018_Oct_24_1746,Jerry,VC,1.3,1,,10,6,1,SimpleHill,0-0,0,42,19-39,21-34;13-39;13-47;19-33;22-36;19-44,19-44,2.86,80,2,388.492976515,1
GEMS217,2018_Oct_24_1746,Jerry,VC,1.3,1,,10,6,1,SimpleHill,0-0,0,43,19-44,10-45;10-48;22-43;26-40;22-53;25-37,10-45,2.07,67,-13,394.637498599,1
GEMS217,2018_Oct_24_1746,Jerry,VC,1.3,1,,10,6,1,SimpleHill,0-0,0,44,10-45,7-37;17-51;13-41;18-45;12-52;5-50,18-45,0.47,79,12,399.161205983,1
GEMS217,2018_Oct_24_1746,Jerry,VC,1.3,1,,10,6,1,SimpleHill,0-0,0,45,18-45,22-45;24-49;19-38;22-54;24-44;22-49,19-38,7.59,77,-2,410.833048024,1
GEMS217,2018_Oct_24_1746,Jerry,VC,1.3,1,,10,6,1,SimpleHill,0-0,0,46,19-38,14-41;22-29;16-42;19-44;12-34;14-31,14-41,1.55,72,-5,416.451337829,1
GEMS217,2018_Oct_24_1746,Jerry,VC,1.3,1,,10,6,1,SimpleHill,0-0,0,47,14-41,13-41;20-41;14-33;15-33;19-42;15-36,15-33,0.89,69,-3,421.404936798,1
GEMS217,2018_Oct_24_1746,Jerry,VC,1.3,1,,10,6,1,SimpleHill,0-0,0,48,15-33,16-33;13-32;12-38;9-27;16-37;19-29,12-38,0.67,68,-1,426.154726336,1
GEMS217,2018_Oct_24_1746,Jerry,VC,1.3,1,,10,6,1,SimpleHill,0-0,0,49,12-38,15-33;11-37;6-43;5-40;2-38;16-31,11-37,1.28,66,-2,431.517633615,1
GEMS217,2018_Oct_24_1746,Jerry,VC,1.3,1,,10,6,1,SimpleHill,0-0,0,50,11-37,5-38;15-30;9-34;20-33;15-44;19-37,15-44,0.95,74,8,436.545928895,1
GEMS217,2018_Oct_24_1746,Jerry,VC,1.3,1,,10,6,1,SimpleHill,0-0,0,51,15-44,8-37;8-42;24-47;13-48;14-46;16-43,13-48,1.32,72,-2,441.949337247,1
GEMS217,2018_Oct_24_1746,Jerry,VC,1.3,1,,10,6,1,SimpleHill,0-0,0,52,13-48,12-39;10-54;5-51;4-45;5-44;13-56,12-39,0.61,68,-4,446.626714979,1
GEMS217,2018_Oct_24_1746,Jerry,VC,1.3,1,,10,6,1,SimpleHill,0-0,0,53,12-39,13-44;12-29;3-38;14-44;6-39;8-47,14-44,2.1,73,5,452.822262483,1
GEMS217,2018_Oct_24_1746,Jerry,VC,1.3,1,,10,6,1,SimpleHill,0-0,0,54,14-44,6-49;10-37;10-51;20-41;18-35;17-43,18-35,3.22,75,2,460.159130499,1
GEMS217,2018_Oct_24_1746,Jerry,VC,1.3,1,,10,6,1,SimpleHill,0-0,0,55,18-35,14-34;18-31;10-40;15-36;27-36;16-28,16-28,1.07,67,-8,465.28897631,1
GEMS217,2018_Oct_24_1746,Jerry,VC,1.3,1,,10,6,1,SimpleHill,0-0,0,56,16-28,18-29;17-21;24-27;13-37;16-32;22-22,13-37,1.25,69,2,470.611461578,1
GEMS217,2018_Oct_24_1746,Jerry,VC,1.3,1,,10,6,1,SimpleHill,0-0,0,57,13-37,19-39;4-39;8-37;15-40;14-43;7-44,19-39,1.99,78,9,476.67441655,1
GEMS217,2018_Oct_24_1746,Jerry,VC,1.3,1,,10,6,1,SimpleHill,0-0,0,58,19-39,22-33;14-32;21-44;22-42;14-42;14-35,22-42,4.13,83,5,484.85233588,1
GEMS217,2018_Oct_24_1746,Jerry,VC,1.3,1,,10,6,1,SimpleHill,0-0,0,59,22-42,30-41;15-37;18-48;24-43;26-38;26-46,15-37,5.71,72,-11,494.652302271,1
GEMS217,2018_Oct_24_1746,Jerry,VC,1.3,1,,10,6,1,SimpleHill,0-0,0,60,15-37,14-40;15-33;9-34;16-32;23-42;20-38,16-32,0.58,70,-2,499.329199863,1
GEMS217,2018_Oct_24_1746,Jerry,VC,1.3,1,,10,6,1,SimpleHill,0-0,0,61,16-32,24-32;20-33;16-24;16-22;20-26;8-37,16-24,0.02,63,-7,503.422760868,1
GEMS217,2018_Oct_24_1746,Jerry,VC,1.3,1,,10,6,1,SimpleHill,0-0,0,62,16-24,9-25;19-18;13-25;8-18;24-21;9-27,24-21,0.0,69,6,507.49735507,1
GEMS217,2018_Oct_24_1746,Jerry,VC,1.3,1,,10,6,1,SimpleHill,0-0,0,63,24-21,30-16;24-20;21-16;28-21;26-19;15-17,15-17,0.22,53,-16,511.785940226,1
GEMS217,2018_Oct_24_1746,Jerry,VC,1.3,1,,10,6,1,SimpleHill,0-0,0,64,15-17,16-18;12-18;6-16;17-17;11-15;10-12,16-18,0.99,56,3,516.828878489,1
GEMS217,2018_Oct_24_1746,Jerry,VC,1.3,1,,10,6,1,SimpleHill,0-0,0,65,16-18,11-16;13-13;22-25;14-12;19-9;24-14,22-25,0.33,71,15,521.208919077,1
GEMS217,2018_Oct_24_1746,Jerry,VC,1.3,1,,10,6,1,SimpleHill,0-0,0,66,22-25,18-33;19-21;29-25;24-26;14-31;30-24,18-33,0.29,73,2,525.57499976,1
GEMS217,2018_Oct_24_1746,Jerry,VC,1.3,1,,10,6,1,SimpleHill,0-0,0,67,18-33,13-33;24-40;23-34;17-33;22-38;13-25,22-38,0.65,81,8,530.288215448,1
GEMS217,2018_Oct_24_1746,Jerry,VC,1.3,1,,10,6,1,SimpleHill,0-0,0,68,22-38,18-34;27-38;21-36;24-35;30-38;29-38,24-35,0.24,81,0,534.576702336,1
GEMS217,2018_Oct_24_1746,Jerry,VC,1.3,1,,10,6,1,SimpleHill,0-0,0,69,24-35,18-30;29-37;28-40;27-39;19-40;28-36,28-40,0.87,88,7,539.514936189,1
GEMS217,2018_Oct_24_1746,Jerry,VC,1.3,1,,10,6,1,SimpleHill,0-0,0,70,28-40,21-43;21-46;28-35;32-33;31-45;23-43,21-46,1.09,82,-6,544.673513887,1
GEMS217,2018_Oct_24_1746,Jerry,VC,1.3,1,,10,6,1,SimpleHill,0-0,0,71,21-46,17-48;21-47;21-54;21-45;21-55;29-50,21-45,1.1,82,0,549.845211886,1
GEMS217,2018_Oct_24_1746,Jerry,VC,1.3,1,,10,6,1,SimpleHill,0-0,0,72,21-45,17-41;19-51;17-50;26-46;15-39;27-43,17-41,2.05,76,-6,555.972502393,1
GEMS217,2018_Oct_24_1746,Jerry,VC,1.3,1,,10,6,1,SimpleHill,0-0,0,73,17-41,11-41;10-40;21-49;22-41;24-45;15-48,24-45,0.74,85,9,560.780276496,1
GEMS217,2018_Oct_24_1746,Jerry,VC,1.3,1,,10,6,1,SimpleHill,0-0,0,74,24-45,23-50;15-47;23-45;28-52;19-52;26-52,28-52,3.09,90,5,567.9511,1
GEMS217,2018_Oct_24_1746,Jerry,VC,1.3,1,,10,6,1,SimpleHill,0-0,0,75,28-52,25-59;36-47;36-58;26-52;29-44;23-44,23-44,1.21,84,-6,573.23526851,1
GEMS217,2018_Oct_24_1746,Jerry,VC,1.3,1,,10,6,1,SimpleHill,0-0,0,76,23-44,25-49;19-42;20-36;17-51;32-46;29-39,19-42,0.76,79,-5,578.064563121,1
GEMS217,2018_Oct_24_1746,Jerry,VC,1.3,1,,10,6,1,SimpleHill,0-0,0,77,19-42,24-41;17-43;11-45;25-37;15-42;22-35,11-45,2.01,69,-10,584.115672084,1
GEMS217,2018_Oct_24_1746,Jerry,VC,1.3,1,,10,6,1,SimpleHill,0-0,0,78,11-45,13-36;11-50;9-40;4-39;17-40;7-44,4-39,0.21,55,-14,588.396332372,1
GEMS217,2018_Oct_24_1746,Jerry,VC,1.3,1,,10,6,1,SimpleHill,0-0,0,79,4-39,5-37;9-36;10-39;11-44;4-31;2-32,9-36,0.26,62,7,592.718457215,1
GEMS217,2018_Oct_24_1746,Jerry,VC,1.3,1,,10,6,2,SimpleHill,0-0,0,0,0-0,3-4;3-1;2-6;9-1;9-0;5-8,2-6,0.97,15,15,698.596732489,1
GEMS217,2018_Oct_24_1746,Jerry,VC,1.3,1,,10,6,2,SimpleHill,0-0,0,1,2-6,5-11;1-10;3-2;9-4;4-3;5-0,4-3,0.88,13,-2,703.528326008,1
GEMS217,2018_Oct_24_1746,Jerry,VC,1.3,1,,10,6,2,SimpleHill,0-0,0,2,4-3,10-0;2-5;9-7;3-1;10-4;8-5,10-0,0.53,18,5,708.11902666,1
GEMS217,2018_Oct_24_1746,Jerry,VC,1.3,1,,10,6,2,SimpleHill,0-0,0,3,10-0,10-10;16-1;5-5;11-0;10-9;9-0,16-1,0.52,28,10,712.72046868,1
GEMS217,2018_Oct_24_1746,Jerry,VC,1.3,1,,10,6,2,SimpleHill,0-0,0,4,16-1,17-6;13-5;14-0;22-7;24-7;18-2,22-7,1.24,47,19,718.033223115,1
GEMS217,2018_Oct_24_1746,Jerry,VC,1.3,1,,10,6,2,SimpleHill,0-0,0,5,22-7,27-0;26-3;24-1;26-0;18-4;18-0,18-4,1.62,37,-10,723.717395145,1
GEMS217,2018_Oct_24_1746,Jerry,VC,1.3,1,,10,6,2,SimpleHill,0-0,0,6,18-4,22-2;10-0;23-7;19-5;11-2;17-2,23-7,0.43,48,11,728.220046798,1
GEMS217,2018_Oct_24_1746,Jerry,VC,1.3,1,,10,6,2,SimpleHill,0-0,0,7,23-7,15-10;24-7;16-4;29-14;29-7;25-16,15-10,0.62,43,-5,732.912391128,1
GEMS217,2018_Oct_24_1746,Jerry,VC,1.3,1,,10,6,2,SimpleHill,0-0,0,8,15-10,15-14;7-16;12-19;12-18;19-5;12-7,7-16,0.35,39,-4,737.338582755,1
GEMS217,2018_Oct_24_1746,Jerry,VC,1.3,1,,10,6,2,SimpleHill,0-0,0,9,7-16,10-9;13-19;3-17;7-18;11-18;8-20,7-18,0.52,42,3,741.927263299,1
GEMS217,2018_Oct_24_1746,Jerry,VC,1.3,1,,10,6,2,SimpleHill,0-0,0,10,7-18,0-15;2-21;8-23;8-17;15-13;3-17,3-17,0.32,34,-8,746.318898623,1
GEMS217,2018_Oct_24_1746,Jerry,VC,1.3,1,,10,6,2,SimpleHill,0-0,0,11,3-17,10-17;5-11;5-21;8-22;13-17;3-19,13-17,0.49,50,16,750.87424562,1
GEMS217,2018_Oct_24_1746,Jerry,VC,1.3,1,,10,6,2,SimpleHill,0-0,0,12,13-17,18-9;18-21;11-13;5-11;9-10;18-24,5-11,3.16,29,-21,758.092076413,1
GEMS217,2018_Oct_24_1746,Jerry,VC,1.3,1,,10,6,2,SimpleHill,0-0,0,13,5-11,7-4;2-7;12-12;7-8;6-20;9-7,2-7,0.29,16,-13,762.444186627,1
GEMS217,2018_Oct_24_1746,Jerry,VC,1.3,1,,10,6,2,SimpleHill,0-0,0,14,2-7,6-15;4-11;4-10;6-0;2-5;0-8,4-10,0.2,25,9,766.708148293,1
GEMS217,2018_Oct_24_1746,Jerry,VC,1.3,1,,10,6,2,SimpleHill,0-0,0,15,4-10,7-17;8-16;11-7;12-11;6-16;0-16,12-11,0.7,40,15,771.456561431,1
GEMS217,2018_Oct_24_1746,Jerry,VC,1.3,1,,10,6,2,SimpleHill,0-0,0,16,12-11,13-16;11-8;13-3;5-13;7-11;21-14,13-16,1.2,49,9,776.724716638,1
GEMS217,2018_Oct_24_1746,Jerry,VC,1.3,1,,10,6,2,SimpleHill,0-0,0,17,13-16,17-16;18-18;9-24;22-17;14-17;7-16,18-18,1.21,59,10,782.009187956,1
GEMS217,2018_Oct_24_1746,Jerry,VC,1.3,1,,10,6,2,SimpleHill,0-0,0,18,18-18,15-15;22-24;13-22;13-17;11-16;13-13,13-13,0.39,45,-14,786.475594173,1
GEMS217,2018_Oct_24_1746,Jerry,VC,1.3,1,,10,6,2,SimpleHill,0-0,0,19,13-13,18-21;14-14;18-19;4-15;15-7;11-21,4-15,0.75,33,-12,791.297440535,1
GEMS217,2018_Oct_24_1746,Jerry,VC,1.3,1,,10,6,2,SimpleHill,0-0,0,20,4-15,8-8;5-12;11-22;0-9;5-18;8-11,0-9,0.93,16,-17,796.282911824,1
GEMS217,2018_Oct_24_1746,Jerry,VC,1.3,1,,10,6,2,SimpleHill,0-0,0,21,0-9,4-7;4-5;8-9;1-13;8-12;6-13,1-13,0.24,24,8,800.581787657,1
GEMS217,2018_Oct_24_1746,Jerry,VC,1.3,1,,10,6,2,SimpleHill,0-0,0,22,1-13,2-15;0-9;2-10;6-9;4-19;8-7,2-15,0.19,29,5,804.840911753,1
GEMS217,2018_Oct_24_1746,Jerry,VC,1.3,1,,10,6,2,SimpleHill,0-0,0,23,2-15,0-15;0-16;10-10;5-18;1-12;1-14,0-16,0.41,26,-3,809.324153273,1
GEMS217,2018_Oct_24_1746,Jerry,VC,1.3,1,,10,6,2,SimpleHill,0-0,0,24,0-16,2-7;0-25;7-11;1-17;3-14;1-22,7-11,1.16,32,6,814.562957853,1
GEMS217,2018_Oct_24_1746,Jerry,VC,1.3,1,,10,6,2,SimpleHill,0-0,0,25,7-11,0-7;1-4;15-5;8-16;11-6;13-10,8-16,0.66,41,9,819.283318022,1
GEMS217,2018_Oct_24_1746,Jerry,VC,1.3,1,,10,6,2,SimpleHill,0-0,0,26,8-16,0-19;12-20;7-22;12-24;5-16;1-17,5-16,0.48,36,-5,823.825867373,1
GEMS217,2018_Oct_24_1746,Jerry,VC,1.3,1,,10,6,2,SimpleHill,0-0,0,27,5-16,5-6;10-23;5-21;11-10;3-7;6-10,5-6,0.75,20,-16,828.644279454,1
GEMS217,2018_Oct_24_1746,Jerry,VC,1.3,1,,10,6,2,SimpleHill,0-0,0,28,5-6,9-7;0-12;7-14;7-13;9-8;10-8,10-8,0.2,32,12,832.908705255,1
GEMS217,2018_Oct_24_1746,Jerry,VC,1.3,1,,10,6,2,SimpleHill,0-0,0,29,10-8,7-11;3-6;7-6;9-6;15-15;14-6,7-6,0.49,24,-8,837.455077799,1
GEMS217,2018_Oct_24_1746,Jerry,VC,1.3,1,,10,6,2,SimpleHill,0-0,0,30,7-6,0-6;3-3;3-12;16-4;10-11;14-7,10-11,0.15,37,13,841.676087117,1
GEMS217,2018_Oct_24_1746,Jerry,VC,1.3,1,,10,6,2,SimpleHill,0-0,0,31,10-11,8-5;15-8;17-13;5-12;6-19;13-16,15-8,0.07,40,3,845.820334561,1
GEMS217,2018_Oct_24_1746,Jerry,VC,1.3,1,,10,6,2,SimpleHill,0-0,0,32,15-8,8-3;15-3;10-2;9-6;14-2;15-9,10-2,0.06,21,-19,849.993802035,1
GEMS217,2018_Oct_24_1746,Jerry,VC,1.3,1,,10,6,2,SimpleHill,0-0,0,33,10-2,8-4;14-10;16-1;11-5;16-9;4-7,11-5,1.61,29,8,855.679673441,1
GEMS217,2018_Oct_24_1746,Jerry,VC,1.3,1,,10,6,2,SimpleHill,0-0,0,34,11-5,5-8;20-9;9-11;3-4;8-2;15-11,5-8,0.56,24,-5,860.302086368,1
GEMS217,2018_Oct_24_1746,Jerry,VC,1.3,1,,10,6,2,SimpleHill,0-0,0,35,5-8,3-11;7-8;6-15;13-14;10-4;5-15,7-8,0.97,27,3,865.364782705,1
GEMS217,2018_Oct_24_1746,Jerry,VC,1.3,1,,10,6,2,SimpleHill,0-0,0,36,7-8,14-13;10-15;7-13;14-15;1-1;11-15,11-15,0.77,45,18,870.217005912,1
GEMS217,2018_Oct_24_1746,Jerry,VC,1.3,1,,10,6,2,SimpleHill,0-0,0,37,11-15,19-20;10-24;10-6;15-6;12-12;17-9,10-24,1.95,54,9,876.235640138,1
GEMS217,2018_Oct_24_1746,Jerry,VC,1.3,1,,10,6,2,SimpleHill,0-0,0,38,10-24,9-31;19-23;8-24;8-23;5-32;13-19,5-32,0.81,53,-1,881.116771284,1
GEMS217,2018_Oct_24_1746,Jerry,VC,1.3,1,,10,6,2,SimpleHill,0-0,0,39,5-32,1-40;12-26;8-24;7-30;6-34;9-35,8-24,2.18,51,-2,887.377235611,1
GEMS217,2018_Oct_24_1746,Jerry,VC,1.3,1,,10,6,2,SimpleHill,0-0,0,40,8-24,13-29;6-15;1-27;5-28;8-34;6-32,8-34,0.14,59,8,891.575450131,1
GEMS217,2018_Oct_24_1746,Jerry,VC,1.3,1,,10,6,2,SimpleHill,0-0,0,41,8-34,5-36;2-37;8-38;9-40;11-30;10-30,8-38,2.16,61,2,897.816568345,1
GEMS217,2018_Oct_24_1746,Jerry,VC,1.3,1,,10,6,2,SimpleHill,0-0,0,42,8-38,1-31;7-46;4-39;5-32;7-42;2-31,5-32,2.78,53,-8,904.653946909,1
GEMS217,2018_Oct_24_1746,Jerry,VC,1.3,1,,10,6,2,SimpleHill,0-0,0,43,5-32,2-40;14-29;4-39;8-40;7-31;14-34,2-40,0.77,51,-2,909.497900509,1
GEMS217,2018_Oct_24_1746,Jerry,VC,1.3,1,,10,6,2,SimpleHill,0-0,0,44,2-40,8-48;3-36;11-43;8-42;1-34;5-37,1-34,0.19,46,-5,913.750323454,1
GEMS217,2018_Oct_24_1746,Jerry,VC,1.3,1,,10,6,2,SimpleHill,0-0,0,45,1-34,1-33;1-42;5-39;0-39;0-31;7-34,5-39,0.43,57,11,918.252029231,1
GEMS217,2018_Oct_24_1746,Jerry,VC,1.3,1,,10,6,2,SimpleHill,0-0,0,46,5-39,10-39;13-40;11-40;10-45;8-31;5-48,5-48,0.2,59,2,922.510331328,1
GEMS217,2018_Oct_24_1746,Jerry,VC,1.3,1,,10,6,2,SimpleHill,0-0,0,47,5-48,13-51;10-55;13-43;7-48;7-55;10-49,13-51,0.2,72,13,926.756977552,1
GEMS217,2018_Oct_24_1746,Jerry,VC,1.3,1,,10,6,2,SimpleHill,0-0,0,48,13-51,10-60;13-53;15-58;20-57;15-53;11-57,20-57,0.33,81,9,931.149937742,1
GEMS217,2018_Oct_24_1746,Jerry,VC,1.3,1,,10,6,2,SimpleHill,0-0,0,49,20-57,29-54;16-55;27-51;15-52;26-51;15-56,16-55,0.22,76,-5,935.430588107,1
GEMS217,2018_Oct_24_1746,Jerry,VC,1.3,1,,10,6,2,SimpleHill,0-0,0,50,16-55,12-53;20-48;18-57;17-53;8-53;21-56,18-57,0.49,78,2,939.998976982,1
GEMS217,2018_Oct_24_1746,Jerry,VC,1.3,1,,10,6,2,SimpleHill,0-0,0,51,18-57,23-65;13-62;13-63;21-55;15-52;11-60,11-60,0.47,67,-11,944.533669965,1
GEMS217,2018_Oct_24_1746,Jerry,VC,1.3,1,,10,6,2,SimpleHill,0-0,0,52,11-60,15-61;4-53;8-69;6-66;15-54;8-66,6-66,0.27,56,-11,948.877930533,1
GEMS217,2018_Oct_24_1746,Jerry,VC,1.3,1,,10,6,2,SimpleHill,0-0,0,53,6-66,9-58;8-69;3-61;2-70;9-67;1-64,9-58,0.14,65,9,953.080187511,1
GEMS217,2018_Oct_24_1746,Jerry,VC,1.3,1,,10,6,2,SimpleHill,0-0,0,54,9-58,8-58;19-58;12-66;1-62;7-49;6-65,19-58,0.22,79,14,957.374782737,1
GEMS217,2018_Oct_24_1746,Jerry,VC,1.3,1,,10,6,2,SimpleHill,0-0,0,55,19-58,11-58;16-55;24-55;27-59;20-55;15-58,24-55,0.35,85,6,961.795752363,1
GEMS217,2018_Oct_24_1746,Jerry,VC,1.3,1,,10,6,2,SimpleHill,0-0,0,56,24-55,21-57;24-58;26-56;27-51;22-51;30-57,27-51,0.18,89,4,966.057431124,1
GEMS217,2018_Oct_24_1746,Jerry,VC,1.3,1,,10,6,2,SimpleHill,0-0,0,57,27-51,33-54;24-51;29-48;33-56;31-60;21-49,31-60,0.21,90,1,970.343248114,1
GEMS217,2018_Oct_24_1746,Jerry,VC,1.3,1,,10,6,2,SimpleHill,0-0,0,58,31-60,22-59;33-62;24-62;35-64;22-56;25-66,25-66,0.22,82,-8,974.643525955,1
GEMS217,2018_Oct_24_1746,Jerry,VC,1.3,1,,10,6,2,SimpleHill,0-0,0,59,25-66,34-64;20-60;27-67;27-60;24-58;27-61,34-64,0.19,90,8,978.901138251,1
GEMS217,2018_Oct_24_1746,Jerry,VC,1.3,1,,10,6,2,SimpleHill,0-0,0,60,34-64,41-60;36-67;37-59;36-70;38-59;30-68,36-67,0.24,90,0,983.201085756,1
GEMS217,2018_Oct_24_1746,Jerry,VC,1.3,1,,10,6,2,SimpleHill,0-0,0,61,36-67,39-67;43-66;40-70;28-63;39-63;33-65,40-70,0.19,90,0,987.474516739,1
GEMS217,2018_Oct_24_1746,Jerry,VC,1.3,1,,10,6,2,SimpleHill,0-0,0,62,40-70,41-68;40-62;43-64;33-63;34-67;45-68,33-63,0.19,90,0,991.740189623,1
GEMS217,2018_Oct_24_1746,Jerry,VC,1.3,1,,10,6,2,SimpleHill,0-0,0,63,33-63,26-68;32-63;25-65;30-55;34-66;37-66,34-66,0.19,89,-1,996.003545672,1
GEMS217,2018_Oct_24_1746,Jerry,VC,1.3,1,,10,6,2,SimpleHill,0-0,0,64,34-66,31-67;41-59;37-62;34-68;31-66;36-64,36-64,0.24,92,3,1000.30039051,1
GEMS217,2018_Oct_24_1746,Jerry,VC,1.3,1,,10,6,2,SimpleHill,0-0,0,65,36-64,30-61;36-62;45-60;40-66;43-69;33-62,30-61,0.1,89,-3,1004.46303724,1
GEMS217,2018_Oct_24_1746,Jerry,VC,1.3,1,,10,6,2,SimpleHill,0-0,0,66,30-61,35-62;34-65;28-66;27-65;31-57;36-65,35-62,0.24,92,3,1008.77546069,1
GEMS217,2018_Oct_24_1746,Jerry,VC,1.3,1,,10,6,2,SimpleHill,0-0,0,67,35-62,36-62;41-65;40-62;32-56;43-59;30-68,41-65,0.45,93,1,1013.30099229,1
GEMS217,2018_Oct_24_1746,Jerry,VC,1.3,1,,10,6,2,SimpleHill,0-0,0,68,41-65,37-67;40-69;41-67;37-59;37-66;44-64,41-67,0.21,92,-1,1017.59229376,1
GEMS217,2018_Oct_24_1746,Jerry,VC,1.3,1,,10,6,2,SimpleHill,0-0,0,69,41-67,47-69;43-70;49-70;42-67;37-63;37-61,49-70,0.2,91,-1,1021.87578655,1
GEMS217,2018_Oct_24_1746,Jerry,VC,1.3,1,,10,6,2,SimpleHill,0-0,0,70,49-70,41-67;54-69;46-70;46-63;54-66;59-70,46-70,0.24,91,0,1026.18416947,1
GEMS217,2018_Oct_24_1746,Jerry,VC,1.3,1,,10,6,2,SimpleHill,0-0,0,71,46-70,38-69;48-64;50-62;43-70;53-67;47-65,50-62,0.21,97,6,1030.45183878,1
GEMS217,2018_Oct_24_1746,Jerry,VC,1.3,1,,10,6,2,SimpleHill,0-0,0,72,50-62,42-68;52-61;50-69;43-55;55-58;57-65,43-55,0.51,98,1,1035.04504256,1
GEMS217,2018_Oct_24_1746,Jerry,VC,1.3,1,,10,6,2,SimpleHill,0-0,0,73,43-55,49-49;40-53;45-62;47-56;47-62;50-54,47-62,0.19,96,-2,1039.31722486,1
GEMS217,2018_Oct_24_1746,Jerry,VC,1.3,1,,10,6,2,SimpleHill,0-0,0,74,47-62,43-58;40-66;51-60;48-66;56-65;54-69,51-60,0.81,97,1,1044.20587115,1
GEMS217,2018_Oct_24_1746,Jerry,VC,1.3,1,,10,6,2,SimpleHill,0-0,0,75,51-60,55-56;46-64;58-57;51-66;58-62;43-59,55-56,0.77,98,1,1049.02634335,1
GEMS217,2018_Oct_24_1746,Jerry,VC,1.3,1,,10,6,2,SimpleHill,0-0,0,76,55-56,58-51;48-54;48-60;52-53;56-59;55-48,55-48,0.26,99,1,1053.33687794,1
GEMS217,2018_Oct_24_1746,Jerry,VC,1.3,1,,10,6,2,SimpleHill,0-0,0,77,55-48,52-50;52-55;59-44;52-39;54-51;49-49,52-39,0.24,97,-2,1057.63576081,1
GEMS217,2018_Oct_24_1746,Jerry,VC,1.3,1,,10,6,2,SimpleHill,0-0,0,78,52-39,49-47;48-33;54-36;51-35;54-34;54-33,48-33,0.32,94,-3,1062.01980161,1
GEMS217,2018_Oct_24_1746,Jerry,VC,1.3,1,,10,6,2,SimpleHill,0-0,0,79,48-33,42-28;47-39;55-26;48-38;49-41;56-28,55-26,0.39,87,-7,1066.47262563,1
