subj_id,date,computer,experimenter,instructions,sight_radius,n_gabors,landscape_ix,landscape_name,starting_pos,starting_score,trial,feedback,pos,stims,selected,rt,score,delta,exp_time
GEMS105,2018_Feb_23_1301,Jerry,PME,spatial_frequency,8,6,0,SpatialFrequencyBias,5-5,10,0,training,5-5,2-10;4-1;4-7;10-1;0-7;10-4,2-10,5.95,18,8,141.655059697
GEMS105,2018_Feb_23_1301,Jerry,PME,spatial_frequency,8,6,0,SpatialFrequencyBias,5-5,10,1,training,2-10,0-11;0-4;8-7;2-17;0-5;4-4,2-17,2.94,26,8,155.823534778
GEMS105,2018_Feb_23_1301,Jerry,PME,spatial_frequency,8,6,0,SpatialFrequencyBias,5-5,10,2,training,2-17,0-18;7-17;8-17;7-22;0-19;2-23,0-19,4.29,31,5,172.20774239
GEMS105,2018_Feb_23_1301,Jerry,PME,spatial_frequency,8,6,0,SpatialFrequencyBias,5-5,10,3,training,0-19,5-21;4-24;0-24;1-19;3-18;2-17,4-24,4.66,37,6,188.272908358
GEMS105,2018_Feb_23_1301,Jerry,PME,spatial_frequency,8,6,0,SpatialFrequencyBias,5-5,10,4,training,4-24,6-24;8-25;7-31;3-20;1-21;5-19,7-31,2.67,40,3,194.585907621
GEMS105,2018_Feb_23_1301,Jerry,PME,spatial_frequency,8,6,0,SpatialFrequencyBias,5-5,10,5,training,7-31,1-32;10-26;2-28;7-37;11-26;10-35,7-37,2.76,47,7,200.088230851
GEMS105,2018_Feb_23_1301,Jerry,PME,spatial_frequency,8,6,0,SpatialFrequencyBias,5-5,10,6,training,7-37,2-35;9-44;5-38;14-39;7-37;12-43,12-43,3.81,48,1,207.07319324
GEMS105,2018_Feb_23_1301,Jerry,PME,spatial_frequency,8,6,0,SpatialFrequencyBias,5-5,10,7,training,12-43,18-42;6-38;6-42;6-45;15-48;11-44,15-48,3.97,49,1,214.431994495
GEMS105,2018_Feb_23_1301,Jerry,PME,spatial_frequency,8,6,0,SpatialFrequencyBias,5-5,10,8,training,15-48,21-44;18-48;14-46;19-50;11-52;17-49,11-52,3.71,50,1,226.65097276
GEMS105,2018_Feb_23_1301,Jerry,PME,spatial_frequency,8,6,0,SpatialFrequencyBias,5-5,10,9,training,11-52,17-52;6-57;10-50;8-57;14-48;5-57,5-57,4.4,50,0,236.874573157
GEMS105,2018_Feb_23_1301,Jerry,PME,spatial_frequency,8,6,0,SpatialFrequencyBias,5-5,10,10,training,5-57,8-56;10-57;2-63;9-51;7-61;3-63,3-63,2.7,46,-4,244.295801671
GEMS105,2018_Feb_23_1301,Jerry,PME,spatial_frequency,8,6,0,SpatialFrequencyBias,5-5,10,11,training,3-63,8-57;6-64;6-59;7-59;1-62;7-67,7-67,7.44,42,-4,265.050944912
GEMS105,2018_Feb_23_1301,Jerry,PME,spatial_frequency,8,6,0,SpatialFrequencyBias,5-5,10,12,training,7-67,6-68;3-64;5-69;3-69;5-70;4-72,3-64,2.57,46,4,276.768467399
GEMS105,2018_Feb_23_1301,Jerry,PME,spatial_frequency,8,6,0,SpatialFrequencyBias,5-5,10,13,training,3-64,0-63;3-58;8-63;6-66;3-60;9-65,3-58,2.3,48,2,283.811361672
GEMS105,2018_Feb_23_1301,Jerry,PME,spatial_frequency,8,6,0,SpatialFrequencyBias,5-5,10,14,training,3-58,6-64;2-55;3-55;6-55;6-54;2-59,6-55,2.65,50,2,289.651219871
GEMS105,2018_Feb_23_1301,Jerry,PME,spatial_frequency,8,6,0,SpatialFrequencyBias,5-5,10,15,training,6-55,10-50;8-62;4-57;7-56;1-53;12-59,10-50,1.34,49,-1,293.933702186
GEMS105,2018_Feb_23_1301,Jerry,PME,spatial_frequency,8,6,0,SpatialFrequencyBias,5-5,10,16,training,10-50,14-50;8-47;15-47;10-47;13-56;5-56,5-56,4.86,49,0,303.827388048
GEMS105,2018_Feb_23_1301,Jerry,PME,spatial_frequency,8,6,0,SpatialFrequencyBias,5-5,10,17,training,5-56,7-55;8-54;5-59;11-61;6-59;2-51,5-59,3.7,49,0,317.382943888
GEMS105,2018_Feb_23_1301,Jerry,PME,spatial_frequency,8,6,0,SpatialFrequencyBias,5-5,10,18,training,5-59,7-52;4-54;9-56;8-58;5-59;1-58,8-58,2.45,49,0,323.192665408
GEMS105,2018_Feb_23_1301,Jerry,PME,spatial_frequency,8,6,0,SpatialFrequencyBias,5-5,10,19,training,8-58,3-54;15-56;11-62;8-51;9-56;11-60,11-60,4.18,48,-1,330.595261355
GEMS105,2018_Feb_23_1301,Jerry,PME,spatial_frequency,8,6,0,SpatialFrequencyBias,5-5,10,20,training,11-60,15-55;16-60;15-54;8-60;9-63;12-59,15-54,3.05,48,0,338.606524119
GEMS105,2018_Feb_23_1301,Jerry,PME,spatial_frequency,8,6,0,SpatialFrequencyBias,5-5,10,21,training,15-54,20-57;8-53;21-49;16-51;22-55;19-51,16-51,1.13,47,-1,342.599753529
GEMS105,2018_Feb_23_1301,Jerry,PME,spatial_frequency,8,6,0,SpatialFrequencyBias,5-5,10,22,training,16-51,20-54;18-53;19-51;18-57;19-50;21-51,18-53,4.45,47,0,352.62663103
GEMS105,2018_Feb_23_1301,Jerry,PME,spatial_frequency,8,6,0,SpatialFrequencyBias,5-5,10,23,training,18-53,17-51;11-54;12-50;17-53;25-52;15-57,17-51,2.39,47,0,365.089347972
GEMS105,2018_Feb_23_1301,Jerry,PME,spatial_frequency,8,6,0,SpatialFrequencyBias,5-5,10,24,training,17-51,19-55;16-55;17-50;17-56;16-48;16-56,19-55,0.83,48,1,370.024312922
GEMS105,2018_Feb_23_1301,Jerry,PME,spatial_frequency,8,6,1,SimpleHill,5-5,20,0,selected,5-5,2-10;4-1;4-7;10-1;0-7;10-4,10-4,4.47,26,6,399.581187862
GEMS105,2018_Feb_23_1301,Jerry,PME,spatial_frequency,8,6,1,SimpleHill,5-5,20,1,selected,10-4,13-10;13-7;4-0;14-9;12-5;5-6,14-9,3.43,40,14,406.52857591
GEMS105,2018_Feb_23_1301,Jerry,PME,spatial_frequency,8,6,1,SimpleHill,5-5,20,2,selected,14-9,12-9;20-13;9-9;8-9;17-4;14-12,14-12,1.89,44,4,411.979911334
GEMS105,2018_Feb_23_1301,Jerry,PME,spatial_frequency,8,6,1,SimpleHill,5-5,20,3,selected,14-12,9-15;14-7;17-17;16-12;16-5;11-12,17-17,2.55,56,12,418.09385327
GEMS105,2018_Feb_23_1301,Jerry,PME,spatial_frequency,8,6,1,SimpleHill,5-5,20,4,selected,17-17,18-15;19-16;22-17;18-24;11-17;20-10,18-24,1.0,66,10,422.647438622
GEMS105,2018_Feb_23_1301,Jerry,PME,spatial_frequency,8,6,1,SimpleHill,5-5,20,5,selected,18-24,14-30;24-22;14-22;24-20;16-21;18-28,14-30,1.0,66,0,427.192855222
GEMS105,2018_Feb_23_1301,Jerry,PME,spatial_frequency,8,6,1,SimpleHill,5-5,20,6,selected,14-30,16-23;8-25;16-27;19-36;20-30;9-28,19-36,2.65,76,10,433.410155885
GEMS105,2018_Feb_23_1301,Jerry,PME,spatial_frequency,8,6,1,SimpleHill,5-5,20,7,selected,19-36,23-39;20-41;23-34;20-38;20-40;20-36,23-34,1.73,78,2,438.708724753
GEMS105,2018_Feb_23_1301,Jerry,PME,spatial_frequency,8,6,1,SimpleHill,5-5,20,8,selected,23-34,17-30;20-29;30-33;17-39;25-34;18-39,18-39,2.86,78,0,445.113585033
GEMS105,2018_Feb_23_1301,Jerry,PME,spatial_frequency,8,6,1,SimpleHill,5-5,20,9,selected,18-39,17-41;17-36;20-36;14-33;18-32;14-37,17-41,4.71,74,-4,453.384391025
GEMS105,2018_Feb_23_1301,Jerry,PME,spatial_frequency,8,6,1,SimpleHill,5-5,20,10,selected,17-41,17-49;18-42;17-43;22-35;24-39;21-41,17-49,3.45,77,3,460.38850741
GEMS105,2018_Feb_23_1301,Jerry,PME,spatial_frequency,8,6,1,SimpleHill,5-5,20,11,selected,17-49,25-49;11-53;20-52;15-45;12-45;19-42,20-52,1.67,81,4,465.601134407
GEMS105,2018_Feb_23_1301,Jerry,PME,spatial_frequency,8,6,1,SimpleHill,5-5,20,12,selected,20-52,16-58;21-59;16-47;25-58;19-59;26-48,19-59,2.27,78,-3,471.452961813
GEMS105,2018_Feb_23_1301,Jerry,PME,spatial_frequency,8,6,1,SimpleHill,5-5,20,13,selected,19-59,22-61;21-58;17-53;20-52;13-61;25-56,13-61,3.1,71,-7,478.127903396
GEMS105,2018_Feb_23_1301,Jerry,PME,spatial_frequency,8,6,1,SimpleHill,5-5,20,14,selected,13-61,17-61;11-58;18-58;13-58;16-67;8-67,8-67,2.16,56,-15,483.849359496
GEMS105,2018_Feb_23_1301,Jerry,PME,spatial_frequency,8,6,1,SimpleHill,5-5,20,15,selected,8-67,14-71;8-64;3-70;11-60;9-65;11-66,11-60,1.75,67,11,489.149467047
GEMS105,2018_Feb_23_1301,Jerry,PME,spatial_frequency,8,6,1,SimpleHill,5-5,20,16,selected,11-60,6-65;11-53;9-53;7-58;10-62;15-66,9-53,2.74,65,-2,495.45472104
GEMS105,2018_Feb_23_1301,Jerry,PME,spatial_frequency,8,6,1,SimpleHill,5-5,20,17,selected,9-53,10-57;7-59;5-56;4-49;14-59;16-50,14-59,2.36,70,5,501.357947889
GEMS105,2018_Feb_23_1301,Jerry,PME,spatial_frequency,8,6,1,SimpleHill,5-5,20,18,selected,14-59,21-56;14-62;7-56;14-64;17-65;7-57,14-64,2.42,70,0,507.340255434
GEMS105,2018_Feb_23_1301,Jerry,PME,spatial_frequency,8,6,1,SimpleHill,5-5,20,19,selected,14-64,7-61;7-64;10-61;11-62;17-70;9-65,7-61,1.85,58,-12,512.730747415
GEMS105,2018_Feb_23_1301,Jerry,PME,spatial_frequency,8,6,1,SimpleHill,5-5,20,20,selected,7-61,13-63;10-59;3-55;9-60;4-68;12-66,3-55,4.37,55,-3,520.646766749
GEMS105,2018_Feb_23_1301,Jerry,PME,spatial_frequency,8,6,1,SimpleHill,5-5,20,21,selected,3-55,1-56;0-53;3-52;5-54;0-58;4-48,0-58,2.46,46,-9,526.662725265
GEMS105,2018_Feb_23_1301,Jerry,PME,spatial_frequency,8,6,1,SimpleHill,5-5,20,22,selected,0-58,5-59;0-53;3-57;2-64;5-54;3-55,2-64,1.39,49,3,531.583482603
GEMS105,2018_Feb_23_1301,Jerry,PME,spatial_frequency,8,6,1,SimpleHill,5-5,20,23,selected,2-64,10-64;5-58;5-68;0-65;4-66;0-70,0-70,3.32,42,-7,538.440897859
GEMS105,2018_Feb_23_1301,Jerry,PME,spatial_frequency,8,6,1,SimpleHill,5-5,20,24,selected,0-70,0-77;0-67;3-74;3-66;5-69;2-70,3-66,2.39,50,8,544.370927947
GEMS105,2018_Feb_23_1301,Jerry,PME,spatial_frequency,8,6,1,SimpleHill,5-5,20,25,selected,3-66,6-70;10-66;0-70;6-65;1-70;9-62,9-62,3.43,64,14,551.357608591
GEMS105,2018_Feb_23_1301,Jerry,PME,spatial_frequency,8,6,1,SimpleHill,5-5,20,26,selected,9-62,3-66;11-62;10-64;3-60;5-63;4-61,3-60,2.26,52,-12,557.184608367
GEMS105,2018_Feb_23_1301,Jerry,PME,spatial_frequency,8,6,1,SimpleHill,5-5,20,27,selected,3-60,4-64;2-61;4-54;7-59;2-59;5-53,4-64,2.35,52,0,563.093878237
GEMS105,2018_Feb_23_1301,Jerry,PME,spatial_frequency,8,6,1,SimpleHill,5-5,20,28,selected,4-64,0-67;9-69;5-68;7-71;4-60;9-70,9-70,3.43,57,5,570.073382414
GEMS105,2018_Feb_23_1301,Jerry,PME,spatial_frequency,8,6,1,SimpleHill,5-5,20,29,selected,9-70,7-63;16-72;11-64;10-75;7-65;7-73,10-75,4.66,53,-4,578.290013764
GEMS105,2018_Feb_23_1301,Jerry,PME,spatial_frequency,8,6,1,SimpleHill,5-5,20,30,selected,10-75,17-72;14-81;4-77;11-73;13-75;10-75,13-75,2.05,60,7,583.903151308
GEMS105,2018_Feb_23_1301,Jerry,PME,spatial_frequency,8,6,1,SimpleHill,5-5,20,31,selected,13-75,12-77;13-75;14-68;15-78;15-80;9-76,14-68,5.65,68,8,593.095795269
GEMS105,2018_Feb_23_1301,Jerry,PME,spatial_frequency,8,6,1,SimpleHill,5-5,20,32,selected,14-68,16-72;16-64;15-61;15-65;14-71;16-63,15-61,4.6,73,5,601.245285362
GEMS105,2018_Feb_23_1301,Jerry,PME,spatial_frequency,8,6,1,SimpleHill,5-5,20,33,selected,15-61,13-68;8-63;23-61;17-64;11-66;16-55,16-55,2.51,76,3,607.317238885
GEMS105,2018_Feb_23_1301,Jerry,PME,spatial_frequency,8,6,1,SimpleHill,5-5,20,34,selected,16-55,17-60;11-60;17-59;18-60;23-58;19-60,17-59,1.86,76,0,612.743682341
GEMS105,2018_Feb_23_1301,Jerry,PME,spatial_frequency,8,6,1,SimpleHill,5-5,20,35,selected,17-59,13-56;18-64;17-64;15-54;16-63;21-63,15-54,2.09,74,-2,618.398932813
GEMS105,2018_Feb_23_1301,Jerry,PME,spatial_frequency,8,6,1,SimpleHill,5-5,20,36,selected,15-54,17-59;16-52;10-54;12-59;17-54;21-50,17-59,2.54,76,2,624.497003297
GEMS105,2018_Feb_23_1301,Jerry,PME,spatial_frequency,8,6,1,SimpleHill,5-5,20,37,selected,17-59,12-63;21-56;17-63;24-58;24-62;11-56,24-62,2.77,84,8,630.827688294
GEMS105,2018_Feb_23_1301,Jerry,PME,spatial_frequency,8,6,1,SimpleHill,5-5,20,38,selected,24-62,20-63;17-62;22-57;27-69;17-59;19-67,27-69,1.94,80,-4,636.325349381
GEMS105,2018_Feb_23_1301,Jerry,PME,spatial_frequency,8,6,1,SimpleHill,5-5,20,39,selected,27-69,22-67;25-70;28-62;34-71;26-71;25-63,28-62,1.72,85,5,641.603251817
GEMS105,2018_Feb_23_1301,Jerry,PME,spatial_frequency,8,6,1,SimpleHill,5-5,20,40,selected,28-62,28-62;26-55;32-61;31-63;23-67;26-66,26-55,5.04,88,3,650.205663071
GEMS105,2018_Feb_23_1301,Jerry,PME,spatial_frequency,8,6,1,SimpleHill,5-5,20,41,selected,26-55,27-53;31-58;22-50;20-59;26-55;26-52,22-50,1.89,83,-5,655.667109888
GEMS105,2018_Feb_23_1301,Jerry,PME,spatial_frequency,8,6,1,SimpleHill,5-5,20,42,selected,22-50,22-42;25-49;23-43;24-46;22-53;24-47,22-53,2.12,85,2,661.357530169
GEMS105,2018_Feb_23_1301,Jerry,PME,spatial_frequency,8,6,1,SimpleHill,5-5,20,43,selected,22-53,29-53;25-47;22-61;18-56;29-52;21-46,22-61,2.38,80,-5,667.299706155
GEMS105,2018_Feb_23_1301,Jerry,PME,spatial_frequency,8,6,1,SimpleHill,5-5,20,44,selected,22-61,18-58;23-57;17-56;20-62;19-60;15-61,18-58,1.72,78,-2,672.552234564
GEMS105,2018_Feb_23_1301,Jerry,PME,spatial_frequency,8,6,1,SimpleHill,5-5,20,45,selected,18-58,17-56;19-54;21-53;19-57;21-58;18-58,21-58,1.35,81,3,677.457820492
GEMS105,2018_Feb_23_1301,Jerry,PME,spatial_frequency,8,6,1,SimpleHill,5-5,20,46,selected,21-58,19-57;23-65;15-58;14-56;19-56;20-52,23-65,1.34,80,-1,682.36645818
GEMS105,2018_Feb_23_1301,Jerry,PME,spatial_frequency,8,6,1,SimpleHill,5-5,20,47,selected,23-65,17-70;22-72;16-65;24-63;19-62;16-64,16-64,0.85,71,-9,686.781028456
GEMS105,2018_Feb_23_1301,Jerry,PME,spatial_frequency,8,6,1,SimpleHill,5-5,20,48,selected,16-64,11-70;9-62;11-69;10-65;13-61;23-61,11-69,1.78,61,-10,692.112494799
GEMS105,2018_Feb_23_1301,Jerry,PME,spatial_frequency,8,6,1,SimpleHill,5-5,20,49,selected,11-69,14-68;6-63;11-65;5-69;7-73;6-75,6-63,9.03,55,-6,704.7197228
GEMS105,2018_Feb_23_1301,Jerry,PME,spatial_frequency,8,6,2,ReverseOrientation,5-5,20,0,selected,5-5,2-10;4-1;4-7;10-1;0-7;10-4,10-4,12.76,26,6,737.751572613
GEMS105,2018_Feb_23_1301,Jerry,PME,spatial_frequency,8,6,2,ReverseOrientation,5-5,20,1,selected,10-4,13-10;13-7;4-0;14-9;12-5;5-6,12-5,3.84,29,3,745.134520022
GEMS105,2018_Feb_23_1301,Jerry,PME,spatial_frequency,8,6,2,ReverseOrientation,5-5,20,2,selected,12-5,10-11;14-9;14-12;9-10;18-9;10-7,18-9,2.51,45,16,751.216356711
GEMS105,2018_Feb_23_1301,Jerry,PME,spatial_frequency,8,6,2,ReverseOrientation,5-5,20,3,selected,18-9,13-8;13-9;17-2;23-8;17-9;15-9,17-9,3.33,43,-2,758.097539131
GEMS105,2018_Feb_23_1301,Jerry,PME,spatial_frequency,8,6,2,ReverseOrientation,5-5,20,4,selected,17-9,11-9;17-17;15-14;17-14;11-13;17-2,17-2,7.8,30,-13,769.443899363
GEMS105,2018_Feb_23_1301,Jerry,PME,spatial_frequency,8,6,2,ReverseOrientation,5-5,20,5,selected,17-2,14-1;21-3;19-0;24-1;16-4;17-9,21-3,5.66,37,7,778.655533434
GEMS105,2018_Feb_23_1301,Jerry,PME,spatial_frequency,8,6,2,ReverseOrientation,5-5,20,6,selected,21-3,26-8;27-0;25-8;23-9;17-5;16-4,25-8,2.28,52,15,784.496310297
GEMS105,2018_Feb_23_1301,Jerry,PME,spatial_frequency,8,6,2,ReverseOrientation,5-5,20,7,selected,25-8,27-2;18-11;25-0;30-4;28-2;21-8,27-2,3.58,43,-9,791.63562434
GEMS105,2018_Feb_23_1301,Jerry,PME,spatial_frequency,8,6,2,ReverseOrientation,5-5,20,8,selected,27-2,27-0;32-4;23-5;27-3;27-1;33-1,23-5,6.61,43,0,801.791822285
GEMS105,2018_Feb_23_1301,Jerry,PME,spatial_frequency,8,6,2,ReverseOrientation,5-5,20,9,selected,23-5,23-9;26-12;17-1;24-2;23-10;22-4,17-1,2.84,29,-14,808.187139016
GEMS105,2018_Feb_23_1301,Jerry,PME,spatial_frequency,8,6,2,ReverseOrientation,5-5,20,10,selected,17-1,9-1;11-3;20-5;14-4;16-7;20-7,20-7,1.54,44,15,813.276245959
GEMS105,2018_Feb_23_1301,Jerry,PME,spatial_frequency,8,6,2,ReverseOrientation,5-5,20,11,selected,20-7,16-8;21-2;22-5;20-6;14-11;21-14,21-14,1.33,57,13,818.159419353
GEMS105,2018_Feb_23_1301,Jerry,PME,spatial_frequency,8,6,2,ReverseOrientation,5-5,20,12,selected,21-14,19-14;18-18;16-13;23-12;17-15;21-9,19-14,4.79,52,-5,826.511071669
GEMS105,2018_Feb_23_1301,Jerry,PME,spatial_frequency,8,6,2,ReverseOrientation,5-5,20,13,selected,19-14,13-16;18-10;21-19;24-9;13-17;22-15,22-15,1.32,59,7,831.390263116
GEMS105,2018_Feb_23_1301,Jerry,PME,spatial_frequency,8,6,2,ReverseOrientation,5-5,20,14,selected,22-15,23-20;23-15;21-11;19-8;26-15;29-13,29-13,1.21,64,5,836.161881822
GEMS105,2018_Feb_23_1301,Jerry,PME,spatial_frequency,8,6,2,ReverseOrientation,5-5,20,15,selected,29-13,32-11;31-16;29-13;35-12;32-8;31-6,35-12,5.69,65,1,845.400965078
GEMS105,2018_Feb_23_1301,Jerry,PME,spatial_frequency,8,6,2,ReverseOrientation,5-5,20,16,selected,35-12,37-12;31-13;30-7;33-12;30-8;29-14,37-12,1.34,66,1,850.290260875
GEMS105,2018_Feb_23_1301,Jerry,PME,spatial_frequency,8,6,2,ReverseOrientation,5-5,20,17,selected,37-12,36-15;32-10;44-13;44-15;43-17;43-16,43-16,2.04,76,10,855.893892961
GEMS105,2018_Feb_23_1301,Jerry,PME,spatial_frequency,8,6,2,ReverseOrientation,5-5,20,18,selected,43-16,38-21;50-18;40-16;43-19;43-11;49-21,38-21,1.29,80,4,860.735411479
GEMS105,2018_Feb_23_1301,Jerry,PME,spatial_frequency,8,6,2,ReverseOrientation,5-5,20,19,selected,38-21,41-20;40-16;34-25;33-17;42-23;38-14,41-20,5.46,80,0,869.742296341
GEMS105,2018_Feb_23_1301,Jerry,PME,spatial_frequency,8,6,2,ReverseOrientation,5-5,20,20,selected,41-20,46-15;40-21;40-26;38-27;42-16;47-24,40-26,4.72,86,6,878.011499312
GEMS105,2018_Feb_23_1301,Jerry,PME,spatial_frequency,8,6,2,ReverseOrientation,5-5,20,21,selected,40-26,48-26;37-22;44-32;38-23;37-21;38-21,44-32,1.84,93,7,883.408528216
GEMS105,2018_Feb_23_1301,Jerry,PME,spatial_frequency,8,6,2,ReverseOrientation,5-5,20,22,selected,44-32,43-29;44-30;46-26;44-29;49-37;43-37,43-37,2.33,96,3,889.295178131
GEMS105,2018_Feb_23_1301,Jerry,PME,spatial_frequency,8,6,2,ReverseOrientation,5-5,20,23,selected,43-37,47-36;48-36;47-40;49-34;40-30;40-38,40-38,0.85,93,-3,893.691366474
GEMS105,2018_Feb_23_1301,Jerry,PME,spatial_frequency,8,6,2,ReverseOrientation,5-5,20,24,selected,40-38,45-42;43-38;42-40;37-36;46-35;45-35,37-36,1.73,93,0,898.966060626
GEMS105,2018_Feb_23_1301,Jerry,PME,spatial_frequency,8,6,2,ReverseOrientation,5-5,20,25,selected,37-36,39-33;37-30;44-36;36-40;42-32;43-34,36-40,2.57,95,2,905.096994334
GEMS105,2018_Feb_23_1301,Jerry,PME,spatial_frequency,8,6,2,ReverseOrientation,5-5,20,26,selected,36-40,30-42;35-38;37-45;40-43;41-38;31-44,40-43,5.34,96,1,913.97385295
GEMS105,2018_Feb_23_1301,Jerry,PME,spatial_frequency,8,6,2,ReverseOrientation,5-5,20,27,selected,40-43,47-43;35-45;44-45;40-44;33-43;41-45,47-43,2.11,99,3,919.635761019
GEMS105,2018_Feb_23_1301,Jerry,PME,spatial_frequency,8,6,2,ReverseOrientation,5-5,20,28,selected,47-43,48-46;53-38;52-48;45-42;45-43;52-43,52-48,4.71,100,1,927.90468775
GEMS105,2018_Feb_23_1301,Jerry,PME,spatial_frequency,8,6,2,ReverseOrientation,5-5,20,29,selected,52-48,49-41;55-50;59-51;52-53;51-45;47-53,52-53,2.64,98,-2,934.104947345
GEMS105,2018_Feb_23_1301,Jerry,PME,spatial_frequency,8,6,2,ReverseOrientation,5-5,20,30,selected,52-53,51-58;56-58;57-59;54-57;45-51;52-58,52-58,3.25,99,1,940.91242918
GEMS105,2018_Feb_23_1301,Jerry,PME,spatial_frequency,8,6,2,ReverseOrientation,5-5,20,31,selected,52-58,46-61;53-52;52-66;47-54;50-64;56-62,56-62,2.82,95,-4,947.279711917
GEMS105,2018_Feb_23_1301,Jerry,PME,spatial_frequency,8,6,2,ReverseOrientation,5-5,20,32,selected,56-62,51-62;51-63;50-58;51-56;61-67;57-62,51-62,1.35,97,2,952.182313626
GEMS105,2018_Feb_23_1301,Jerry,PME,spatial_frequency,8,6,2,ReverseOrientation,5-5,20,33,selected,51-62,47-60;51-55;56-61;52-64;55-61;53-68,53-68,1.05,94,-3,956.789450082
GEMS105,2018_Feb_23_1301,Jerry,PME,spatial_frequency,8,6,2,ReverseOrientation,5-5,20,34,selected,53-68,52-67;50-65;50-72;53-73;57-62;57-69,50-72,0.98,89,-5,961.3109734
GEMS105,2018_Feb_23_1301,Jerry,PME,spatial_frequency,8,6,2,ReverseOrientation,5-5,20,35,selected,50-72,51-66;52-71;55-74;54-78;52-70;55-78,54-78,2.43,83,-6,967.283435229
GEMS105,2018_Feb_23_1301,Jerry,PME,spatial_frequency,8,6,2,ReverseOrientation,5-5,20,36,selected,54-78,48-75;53-80;59-81;55-84;56-72;55-76,48-75,1.62,86,3,972.461335425
GEMS105,2018_Feb_23_1301,Jerry,PME,spatial_frequency,8,6,2,ReverseOrientation,5-5,20,37,selected,48-75,53-74;56-75;47-77;47-80;55-77;45-77,47-77,1.56,86,0,977.588868794
GEMS105,2018_Feb_23_1301,Jerry,PME,spatial_frequency,8,6,2,ReverseOrientation,5-5,20,38,selected,47-77,49-78;51-78;54-74;54-75;54-78;47-73,47-73,2.47,90,4,983.624497295
GEMS105,2018_Feb_23_1301,Jerry,PME,spatial_frequency,8,6,2,ReverseOrientation,5-5,20,39,selected,47-73,47-78;43-74;49-70;48-80;40-75;40-71,47-78,2.88,85,-5,990.067334912
GEMS105,2018_Feb_23_1301,Jerry,PME,spatial_frequency,8,6,2,ReverseOrientation,5-5,20,40,selected,47-78,46-72;42-81;49-77;44-81;43-79;54-81,49-77,2.86,85,0,996.470805672
GEMS105,2018_Feb_23_1301,Jerry,PME,spatial_frequency,8,6,2,ReverseOrientation,5-5,20,41,selected,49-77,54-80;53-74;54-81;49-85;55-77;52-83,49-85,1.45,76,-9,1001.47578823
GEMS105,2018_Feb_23_1301,Jerry,PME,spatial_frequency,8,6,2,ReverseOrientation,5-5,20,42,selected,49-85,46-90;50-79;45-80;56-84;50-80;49-86,49-86,4.31,75,-1,1009.33815979
GEMS105,2018_Feb_23_1301,Jerry,PME,spatial_frequency,8,6,2,ReverseOrientation,5-5,20,43,selected,49-86,51-89;54-87;53-86;52-93;53-90;48-82,52-93,2.61,63,-12,1015.48678659
GEMS105,2018_Feb_23_1301,Jerry,PME,spatial_frequency,8,6,2,ReverseOrientation,5-5,20,44,selected,52-93,56-91;54-99;55-88;50-90;51-90;52-97,54-99,6.08,49,-14,1025.12177843
GEMS105,2018_Feb_23_1301,Jerry,PME,spatial_frequency,8,6,2,ReverseOrientation,5-5,20,45,selected,54-99,62-99;59-98;49-99;52-92;51-93;47-98,47-98,1.05,52,3,1029.73306264
GEMS105,2018_Feb_23_1301,Jerry,PME,spatial_frequency,8,6,2,ReverseOrientation,5-5,20,46,selected,47-98,45-95;40-96;47-92;50-92;41-95;42-93,40-96,4.29,54,2,1037.573336
GEMS105,2018_Feb_23_1301,Jerry,PME,spatial_frequency,8,6,2,ReverseOrientation,5-5,20,47,selected,40-96,42-94;40-95;41-95;37-99;40-99;35-92,37-99,0.87,48,-6,1041.98671297
GEMS105,2018_Feb_23_1301,Jerry,PME,spatial_frequency,8,6,2,ReverseOrientation,5-5,20,48,selected,37-99,34-98;35-94;41-96;30-99;42-96;36-97,36-97,2.49,50,2,1048.02313754
GEMS105,2018_Feb_23_1301,Jerry,PME,spatial_frequency,8,6,2,ReverseOrientation,5-5,20,49,selected,36-97,31-98;35-98;37-95;30-99;30-97;40-97,31-98,0.84,44,-6,1052.40663103
GEMS105,2018_Feb_23_1301,Jerry,PME,spatial_frequency,8,6,3,ReverseSpatialFrequency,5-5,20,0,selected,5-5,2-10;4-1;4-7;10-1;0-7;10-4,4-7,5.02,21,1,1084.95423962
GEMS105,2018_Feb_23_1301,Jerry,PME,spatial_frequency,8,6,3,ReverseSpatialFrequency,5-5,20,1,selected,4-7,8-5;8-2;0-9;9-3;7-2;1-11,8-5,1.12,24,3,1089.61571941
GEMS105,2018_Feb_23_1301,Jerry,PME,spatial_frequency,8,6,3,ReverseSpatialFrequency,5-5,20,2,selected,8-5,6-11;10-9;10-12;5-10;14-9;6-7,6-7,1.28,24,0,1094.44893441
GEMS105,2018_Feb_23_1301,Jerry,PME,spatial_frequency,8,6,3,ReverseSpatialFrequency,5-5,20,3,selected,6-7,8-6;1-5;13-7;4-12;11-8;9-8,1-5,2.96,9,-15,1100.96417496
GEMS105,2018_Feb_23_1301,Jerry,PME,spatial_frequency,8,6,3,ReverseSpatialFrequency,5-5,20,4,selected,1-5,1-1;5-2;1-13;7-3;3-5;0-3,3-5,1.05,15,6,1105.56314363
GEMS105,2018_Feb_23_1301,Jerry,PME,spatial_frequency,8,6,3,ReverseSpatialFrequency,5-5,20,5,selected,3-5,3-6;0-8;6-5;2-7;6-1;5-2,6-1,2.24,13,-2,1111.35023879
GEMS105,2018_Feb_23_1301,Jerry,PME,spatial_frequency,8,6,3,ReverseSpatialFrequency,5-5,20,6,selected,6-1,7-4;7-2;5-3;10-2;13-1;7-0,7-4,1.11,18,5,1116.00439038
GEMS105,2018_Feb_23_1301,Jerry,PME,spatial_frequency,8,6,3,ReverseSpatialFrequency,5-5,20,7,selected,7-4,8-0;8-4;3-4;8-7;4-10;14-6,3-4,1.22,14,-4,1120.7681838
GEMS105,2018_Feb_23_1301,Jerry,PME,spatial_frequency,8,6,3,ReverseSpatialFrequency,5-5,20,8,selected,3-4,2-11;0-1;8-2;1-0;3-4;8-0,1-0,5.48,0,-14,1129.79869786
GEMS105,2018_Feb_23_1301,Jerry,PME,spatial_frequency,8,6,3,ReverseSpatialFrequency,5-5,20,9,selected,1-0,0-3;6-2;0-7;4-6;1-0;5-3,0-3,1.55,4,4,1134.89595692
GEMS105,2018_Feb_23_1301,Jerry,PME,spatial_frequency,8,6,3,ReverseSpatialFrequency,5-5,20,10,selected,0-3,3-0;5-6;5-5;6-7;0-1;1-4,5-6,2.46,20,16,1140.90817547
GEMS105,2018_Feb_23_1301,Jerry,PME,spatial_frequency,8,6,3,ReverseSpatialFrequency,5-5,20,11,selected,5-6,1-3;8-6;10-2;1-5;7-1;10-9,1-3,1.05,7,-13,1145.51006018
GEMS105,2018_Feb_23_1301,Jerry,PME,spatial_frequency,8,6,3,ReverseSpatialFrequency,5-5,20,12,selected,1-3,3-4;7-2;0-0;8-3;3-8;1-3,3-4,0.74,14,7,1149.79972056
GEMS105,2018_Feb_23_1301,Jerry,PME,spatial_frequency,8,6,3,ReverseSpatialFrequency,5-5,20,13,selected,3-4,6-6;7-2;3-3;4-5;3-9;8-1,8-1,2.04,17,3,1155.40047246
GEMS105,2018_Feb_23_1301,Jerry,PME,spatial_frequency,8,6,3,ReverseSpatialFrequency,5-5,20,14,selected,8-1,14-3;14-4;3-4;12-2;13-4;3-7,14-3,2.91,27,10,1161.84359368
GEMS105,2018_Feb_23_1301,Jerry,PME,spatial_frequency,8,6,3,ReverseSpatialFrequency,5-5,20,15,selected,14-3,9-7;12-0;16-1;19-6;19-4;14-2,14-2,0.99,27,0,1166.3798438
GEMS105,2018_Feb_23_1301,Jerry,PME,spatial_frequency,8,6,3,ReverseSpatialFrequency,5-5,20,16,selected,14-2,15-2;9-2;10-6;14-0;9-6;19-8,9-2,1.23,18,-9,1171.1514593
GEMS105,2018_Feb_23_1301,Jerry,PME,spatial_frequency,8,6,3,ReverseSpatialFrequency,5-5,20,17,selected,9-2,12-8;15-2;14-5;12-3;8-2;14-4,8-2,1.33,17,-1,1176.02314747
GEMS105,2018_Feb_23_1301,Jerry,PME,spatial_frequency,8,6,3,ReverseSpatialFrequency,5-5,20,18,selected,8-2,14-3;6-8;4-4;8-1;11-7;12-4,14-3,0.96,27,10,1180.551805
GEMS105,2018_Feb_23_1301,Jerry,PME,spatial_frequency,8,6,3,ReverseSpatialFrequency,5-5,20,19,selected,14-3,7-1;19-2;16-3;9-9;14-1;13-9,19-2,1.29,32,5,1185.4043206
GEMS105,2018_Feb_23_1301,Jerry,PME,spatial_frequency,8,6,3,ReverseSpatialFrequency,5-5,20,20,selected,19-2,14-7;17-0;24-3;21-2;20-8;15-4,15-4,1.61,31,-1,1190.56235972
GEMS105,2018_Feb_23_1301,Jerry,PME,spatial_frequency,8,6,3,ReverseSpatialFrequency,5-5,20,21,selected,15-4,16-11;9-9;20-5;8-3;11-8;11-2,8-3,3.76,19,-12,1197.88264012
GEMS105,2018_Feb_23_1301,Jerry,PME,spatial_frequency,8,6,3,ReverseSpatialFrequency,5-5,20,22,selected,8-3,3-6;3-1;5-1;10-6;3-4;4-5,10-6,2.37,28,9,1203.80349957
GEMS105,2018_Feb_23_1301,Jerry,PME,spatial_frequency,8,6,3,ReverseSpatialFrequency,5-5,20,23,selected,10-6,5-2;12-7;14-11;11-5;11-4;15-1,14-11,2.31,44,16,1209.67097148
GEMS105,2018_Feb_23_1301,Jerry,PME,spatial_frequency,8,6,3,ReverseSpatialFrequency,5-5,20,24,selected,14-11,15-16;17-12;10-12;16-7;7-12;9-12,17-12,5.68,50,6,1218.91047022
GEMS105,2018_Feb_23_1301,Jerry,PME,spatial_frequency,8,6,3,ReverseSpatialFrequency,5-5,20,25,selected,17-12,12-8;14-19;17-7;18-9;20-9;11-12,14-19,1.47,52,2,1223.93631126
GEMS105,2018_Feb_23_1301,Jerry,PME,spatial_frequency,8,6,3,ReverseSpatialFrequency,5-5,20,26,selected,14-19,8-21;18-24;20-15;12-18;19-23;14-21,18-24,1.11,66,14,1228.60765308
GEMS105,2018_Feb_23_1301,Jerry,PME,spatial_frequency,8,6,3,ReverseSpatialFrequency,5-5,20,27,selected,18-24,17-29;12-28;20-17;21-24;25-24;11-24,12-28,1.28,59,-7,1233.44024743
GEMS105,2018_Feb_23_1301,Jerry,PME,spatial_frequency,8,6,3,ReverseSpatialFrequency,5-5,20,28,selected,12-28,6-26;16-34;10-25;5-27;11-35;10-28,11-35,1.26,65,6,1238.25451042
GEMS105,2018_Feb_23_1301,Jerry,PME,spatial_frequency,8,6,3,ReverseSpatialFrequency,5-5,20,29,selected,11-35,11-28;11-41;13-42;15-37;9-42;14-28,13-42,1.83,71,6,1243.63824141
GEMS105,2018_Feb_23_1301,Jerry,PME,spatial_frequency,8,6,3,ReverseSpatialFrequency,5-5,20,30,selected,13-42,9-42;16-36;11-42;14-45;10-47;11-39,9-42,1.19,65,-6,1248.38458052
GEMS105,2018_Feb_23_1301,Jerry,PME,spatial_frequency,8,6,3,ReverseSpatialFrequency,5-5,20,31,selected,9-42,3-40;7-43;12-38;11-38;9-45;4-44,7-43,0.71,63,-2,1252.64776256
GEMS105,2018_Feb_23_1301,Jerry,PME,spatial_frequency,8,6,3,ReverseSpatialFrequency,5-5,20,32,selected,7-43,9-39;4-43;8-37;3-48;10-39;3-49,3-48,0.85,54,-9,1257.05997311
GEMS105,2018_Feb_23_1301,Jerry,PME,spatial_frequency,8,6,3,ReverseSpatialFrequency,5-5,20,33,selected,3-48,8-49;8-47;2-53;2-44;7-52;7-44,7-52,1.21,61,7,1261.82760347
GEMS105,2018_Feb_23_1301,Jerry,PME,spatial_frequency,8,6,3,ReverseSpatialFrequency,5-5,20,34,selected,7-52,7-58;7-45;7-46;1-52;9-51;6-55,7-58,1.06,59,-2,1266.4260555
GEMS105,2018_Feb_23_1301,Jerry,PME,spatial_frequency,8,6,3,ReverseSpatialFrequency,5-5,20,35,selected,7-58,2-56;0-60;5-54;4-60;13-62;8-55,0-60,1.33,49,-10,1271.30204123
GEMS105,2018_Feb_23_1301,Jerry,PME,spatial_frequency,8,6,3,ReverseSpatialFrequency,5-5,20,36,selected,0-60,0-62;0-54;5-66;5-60;7-57;4-55,7-57,1.01,61,12,1275.86056944
GEMS105,2018_Feb_23_1301,Jerry,PME,spatial_frequency,8,6,3,ReverseSpatialFrequency,5-5,20,37,selected,7-57,4-59;3-63;11-61;4-60;9-52;1-61,4-60,1.48,54,-7,1280.89541116
GEMS105,2018_Feb_23_1301,Jerry,PME,spatial_frequency,8,6,3,ReverseSpatialFrequency,5-5,20,38,selected,4-60,6-60;3-56;0-57;2-57;6-62;9-62,0-57,1.75,50,-4,1286.19843091
GEMS105,2018_Feb_23_1301,Jerry,PME,spatial_frequency,8,6,3,ReverseSpatialFrequency,5-5,20,39,selected,0-57,5-53;0-55;7-54;4-53;2-61;0-54,4-53,1.4,57,7,1291.14829327
GEMS105,2018_Feb_23_1301,Jerry,PME,spatial_frequency,8,6,3,ReverseSpatialFrequency,5-5,20,40,selected,4-53,0-57;4-53;1-53;7-51;2-54;6-48,6-48,2.7,62,5,1297.40516949
GEMS105,2018_Feb_23_1301,Jerry,PME,spatial_frequency,8,6,3,ReverseSpatialFrequency,5-5,20,41,selected,6-48,8-51;13-47;5-55;11-52;5-45;4-55,5-45,1.61,57,-5,1302.5779959
GEMS105,2018_Feb_23_1301,Jerry,PME,spatial_frequency,8,6,3,ReverseSpatialFrequency,5-5,20,42,selected,5-45,5-38;9-50;5-39;7-50;12-48;9-48,9-50,2.25,66,9,1308.3748526
GEMS105,2018_Feb_23_1301,Jerry,PME,spatial_frequency,8,6,3,ReverseSpatialFrequency,5-5,20,43,selected,9-50,8-57;4-49;16-50;12-56;9-57;16-53,12-56,0.98,71,5,1312.91930924
GEMS105,2018_Feb_23_1301,Jerry,PME,spatial_frequency,8,6,3,ReverseSpatialFrequency,5-5,20,44,selected,12-56,5-56;16-58;18-61;15-53;11-62;9-58,11-62,1.15,66,-5,1317.62387952
GEMS105,2018_Feb_23_1301,Jerry,PME,spatial_frequency,8,6,3,ReverseSpatialFrequency,5-5,20,45,selected,11-62,12-59;10-62;14-57;15-66;10-69;13-68,15-66,1.29,68,2,1322.47361704
GEMS105,2018_Feb_23_1301,Jerry,PME,spatial_frequency,8,6,3,ReverseSpatialFrequency,5-5,20,46,selected,15-66,19-60;17-60;13-65;8-68;14-69;11-70,19-60,0.97,76,8,1326.97430172
GEMS105,2018_Feb_23_1301,Jerry,PME,spatial_frequency,8,6,3,ReverseSpatialFrequency,5-5,20,47,selected,19-60,24-57;19-56;22-66;19-62;17-59;19-57,19-62,1.25,78,2,1331.7748638
GEMS105,2018_Feb_23_1301,Jerry,PME,spatial_frequency,8,6,3,ReverseSpatialFrequency,5-5,20,48,selected,19-62,15-67;12-65;20-60;20-58;22-69;24-56,22-69,3.46,75,-3,1338.78334016
GEMS105,2018_Feb_23_1301,Jerry,PME,spatial_frequency,8,6,3,ReverseSpatialFrequency,5-5,20,49,selected,22-69,20-72;28-68;22-63;22-65;26-67;28-72,20-72,2.97,72,-3,1345.28645786
GEMS105,2018_Feb_23_1301,Jerry,PME,spatial_frequency,8,6,4,ReverseBoth,5-5,20,0,selected,5-5,2-10;4-1;4-7;10-1;0-7;10-4,10-4,2.36,26,6,1384.51303575
GEMS105,2018_Feb_23_1301,Jerry,PME,spatial_frequency,8,6,4,ReverseBoth,5-5,20,1,selected,10-4,13-10;13-7;4-0;14-9;12-5;5-6,12-5,1.36,29,3,1389.42407509
GEMS105,2018_Feb_23_1301,Jerry,PME,spatial_frequency,8,6,4,ReverseBoth,5-5,20,2,selected,12-5,10-11;14-9;14-12;9-10;18-9;10-7,10-7,1.31,31,2,1394.27707212
GEMS105,2018_Feb_23_1301,Jerry,PME,spatial_frequency,8,6,4,ReverseBoth,5-5,20,3,selected,10-7,5-6;5-7;9-0;15-6;9-7;7-7,9-0,2.08,14,-17,1399.9242918
GEMS105,2018_Feb_23_1301,Jerry,PME,spatial_frequency,8,6,4,ReverseBoth,5-5,20,4,selected,9-0,4-6;7-2;12-5;8-5;4-2;7-6,4-6,2.25,16,2,1405.71874236
GEMS105,2018_Feb_23_1301,Jerry,PME,spatial_frequency,8,6,4,ReverseBoth,5-5,20,5,selected,4-6,6-2;9-11;8-11;3-5;0-4;7-10,0-4,0.91,6,-10,1410.17326494
GEMS105,2018_Feb_23_1301,Jerry,PME,spatial_frequency,8,6,4,ReverseBoth,5-5,20,6,selected,0-4,5-0;1-2;3-5;1-9;3-0;5-6,5-0,0.93,8,2,1414.65283058
GEMS105,2018_Feb_23_1301,Jerry,PME,spatial_frequency,8,6,4,ReverseBoth,5-5,20,7,selected,5-0,7-4;11-5;5-0;12-2;4-5;2-7,7-4,0.82,18,10,1419.0170209
GEMS105,2018_Feb_23_1301,Jerry,PME,spatial_frequency,8,6,4,ReverseBoth,5-5,20,8,selected,7-4,3-4;7-9;7-10;5-0;12-4;6-11,3-4,0.83,14,-4,1423.38890144
GEMS105,2018_Feb_23_1301,Jerry,PME,spatial_frequency,8,6,4,ReverseBoth,5-5,20,9,selected,3-4,7-6;9-8;0-3;4-0;3-1;8-4,3-1,1.72,8,-6,1428.6623037
GEMS105,2018_Feb_23_1301,Jerry,PME,spatial_frequency,8,6,4,ReverseBoth,5-5,20,10,selected,3-1,2-4;9-5;8-1;3-1;0-5;7-2,8-1,1.54,17,9,1433.76305336
GEMS105,2018_Feb_23_1301,Jerry,PME,spatial_frequency,8,6,4,ReverseBoth,5-5,20,11,selected,8-1,8-9;8-4;12-7;9-3;3-5;0-1,9-3,2.91,21,4,1440.2204891
GEMS105,2018_Feb_23_1301,Jerry,PME,spatial_frequency,8,6,4,ReverseBoth,5-5,20,12,selected,9-3,14-2;13-3;11-9;1-3;7-9;5-6,14-2,0.8,27,6,1444.57206331
GEMS105,2018_Feb_23_1301,Jerry,PME,spatial_frequency,8,6,4,ReverseBoth,5-5,20,13,selected,14-2,10-7;16-9;15-8;14-5;15-2;11-7,15-2,0.65,29,2,1448.7826382
GEMS105,2018_Feb_23_1301,Jerry,PME,spatial_frequency,8,6,4,ReverseBoth,5-5,20,14,selected,15-2,16-8;14-6;14-5;8-0;12-0;14-8,14-5,0.76,31,2,1453.0865302
GEMS105,2018_Feb_23_1301,Jerry,PME,spatial_frequency,8,6,4,ReverseBoth,5-5,20,15,selected,14-5,8-6;12-1;21-5;15-10;21-7;9-4,9-4,1.98,24,-7,1458.59936942
GEMS105,2018_Feb_23_1301,Jerry,PME,spatial_frequency,8,6,4,ReverseBoth,5-5,20,16,selected,9-4,5-0;17-4;3-4;8-3;3-8;13-5,5-0,1.09,8,-16,1463.24484684
GEMS105,2018_Feb_23_1301,Jerry,PME,spatial_frequency,8,6,4,ReverseBoth,5-5,20,17,selected,5-0,0-3;1-5;1-0;10-1;10-0;1-2,10-1,0.87,17,9,1467.64946705
GEMS105,2018_Feb_23_1301,Jerry,PME,spatial_frequency,8,6,4,ReverseBoth,5-5,20,18,selected,10-1,16-1;14-6;5-2;9-7;12-6;8-2,14-6,1.2,35,18,1472.3939509
GEMS105,2018_Feb_23_1301,Jerry,PME,spatial_frequency,8,6,4,ReverseBoth,5-5,20,19,selected,14-6,17-13;12-13;17-8;20-6;15-0;9-0,15-0,0.79,24,-11,1476.74957556
GEMS105,2018_Feb_23_1301,Jerry,PME,spatial_frequency,8,6,4,ReverseBoth,5-5,20,20,selected,15-0,12-2;13-6;12-3;21-1;12-0;17-0,21-1,1.08,35,11,1481.38070484
GEMS105,2018_Feb_23_1301,Jerry,PME,spatial_frequency,8,6,4,ReverseBoth,5-5,20,21,selected,21-1,20-8;25-2;17-7;23-0;27-4;22-7,22-7,0.89,45,10,1485.81847124
