subj_id,date,computer,experimenter,instructions,sight_radius,n_gabors,start_pos_list_ix,start_pos_list,landscape_ix,landscape_name,starting_pos,starting_score,trial,feedback,pos,stims,selected,rt,score,delta,exp_time
GEMS121,2018_Mar_07_1200,Kramer,sf,orientation,8,6,0,0-0;0-0;0-0;0-0,0,OrientationBias,0-0,0,0,training,0-0,1-2;5-4;0-0;7-1;6-1;2-4,5-4,6.94,19,19,171.837483703
GEMS121,2018_Mar_07_1200,Kramer,sf,orientation,8,6,0,0-0;0-0;0-0;0-0,0,OrientationBias,0-0,0,1,training,5-4,8-1;4-1;10-5;10-1;2-6;0-4,4-1,10.55,15,-4,189.670229721
GEMS121,2018_Mar_07_1200,Kramer,sf,orientation,8,6,0,0-0;0-0;0-0;0-0,0,OrientationBias,0-0,0,2,training,4-1,4-2;0-3;9-2;10-0;8-3;10-4,10-4,13.4,36,21,212.079499081
GEMS121,2018_Mar_07_1200,Kramer,sf,orientation,8,6,0,0-0;0-0;0-0;0-0,0,OrientationBias,0-0,0,3,training,10-4,7-3;6-4;6-9;17-4;11-10;15-3,6-4,10.15,22,-14,227.871020733
GEMS121,2018_Mar_07_1200,Kramer,sf,orientation,8,6,0,0-0;0-0;0-0;0-0,0,OrientationBias,0-0,0,4,training,6-4,3-8;2-7;11-1;12-9;12-7;10-2,2-7,7.36,7,-15,239.380248193
GEMS121,2018_Mar_07_1200,Kramer,sf,orientation,8,6,0,0-0;0-0;0-0;0-0,0,OrientationBias,0-0,0,5,training,2-7,8-2;4-5;2-0;7-7;7-3;7-6,4-5,6.14,15,8,262.844975143
GEMS121,2018_Mar_07_1200,Kramer,sf,orientation,8,6,0,0-0;0-0;0-0;0-0,0,OrientationBias,0-0,0,6,training,4-5,0-11;5-11;10-0;7-7;0-2;3-9,7-7,3.36,26,11,274.85998267
GEMS121,2018_Mar_07_1200,Kramer,sf,orientation,8,6,0,0-0;0-0;0-0;0-0,0,OrientationBias,0-0,0,7,training,7-7,13-4;5-7;10-6;8-6;8-8;5-10,13-4,5.15,45,19,285.973569019
GEMS121,2018_Mar_07_1200,Kramer,sf,orientation,8,6,0,0-0;0-0;0-0;0-0,0,OrientationBias,0-0,0,8,training,13-4,10-11;19-8;11-1;13-11;15-8;10-5,15-8,7.45,51,6,297.088109564
GEMS121,2018_Mar_07_1200,Kramer,sf,orientation,8,6,0,0-0;0-0;0-0;0-0,0,OrientationBias,0-0,0,9,training,15-8,16-10;21-3;11-12;15-9;12-3;9-13,9-13,2.16,32,-19,303.58570327
GEMS121,2018_Mar_07_1200,Kramer,sf,orientation,8,6,0,0-0;0-0;0-0;0-0,0,OrientationBias,0-0,0,10,training,9-13,3-10;4-16;6-7;15-12;7-8;2-14,3-10,8.4,11,-21,317.481067021
GEMS121,2018_Mar_07_1200,Kramer,sf,orientation,8,6,0,0-0;0-0;0-0;0-0,0,OrientationBias,0-0,0,11,training,3-10,3-13;3-15;3-5;4-11;5-6;2-4,5-6,8.71,19,8,330.67165125
GEMS121,2018_Mar_07_1200,Kramer,sf,orientation,8,6,0,0-0;0-0;0-0;0-0,0,OrientationBias,0-0,0,12,training,5-6,0-9;4-4;6-2;11-6;4-10;1-7,11-6,4.36,39,20,339.461403432
GEMS121,2018_Mar_07_1200,Kramer,sf,orientation,8,6,0,0-0;0-0;0-0;0-0,0,OrientationBias,0-0,0,13,training,11-6,11-13;18-7;9-11;14-3;11-3;17-8,18-7,3.43,59,20,345.797834192
GEMS121,2018_Mar_07_1200,Kramer,sf,orientation,8,6,0,0-0;0-0;0-0;0-0,0,OrientationBias,0-0,0,14,training,18-7,22-1;14-12;16-13;16-9;19-6;15-1,16-9,3.25,53,-6,352.256030619
GEMS121,2018_Mar_07_1200,Kramer,sf,orientation,8,6,0,0-0;0-0;0-0;0-0,0,OrientationBias,0-0,0,15,training,16-9,12-13;13-2;15-16;17-14;12-7;21-6,17-14,4.77,56,3,361.681246657
GEMS121,2018_Mar_07_1200,Kramer,sf,orientation,8,6,0,0-0;0-0;0-0;0-0,0,OrientationBias,0-0,0,16,training,17-14,19-12;14-15;20-17;21-14;13-14;11-10,13-14,4.89,45,-11,376.123108135
GEMS121,2018_Mar_07_1200,Kramer,sf,orientation,8,6,0,0-0;0-0;0-0;0-0,0,OrientationBias,0-0,0,17,training,13-14,9-10;18-12;8-9;19-17;6-16;8-16,19-17,7.32,61,16,388.798670913
GEMS121,2018_Mar_07_1200,Kramer,sf,orientation,8,6,0,0-0;0-0;0-0;0-0,0,OrientationBias,0-0,0,18,training,19-17,23-13;23-18;14-15;22-11;21-16;23-11,21-16,7.68,66,5,399.17158035
GEMS121,2018_Mar_07_1200,Kramer,sf,orientation,8,6,0,0-0;0-0;0-0;0-0,0,OrientationBias,0-0,0,19,training,21-16,15-11;27-17;15-17;19-14;27-16;21-12,27-16,4.25,78,12,407.568448375
GEMS121,2018_Mar_07_1200,Kramer,sf,orientation,8,6,0,0-0;0-0;0-0;0-0,0,OrientationBias,0-0,0,20,training,27-16,24-11;30-13;27-24;24-14;21-12;27-17,27-17,4.08,78,0,414.747177026
GEMS121,2018_Mar_07_1200,Kramer,sf,orientation,8,6,0,0-0;0-0;0-0;0-0,0,OrientationBias,0-0,0,21,training,27-17,24-12;22-23;30-16;25-11;26-10;22-16,22-23,3.81,68,-10,422.039641189
GEMS121,2018_Mar_07_1200,Kramer,sf,orientation,8,6,0,0-0;0-0;0-0;0-0,0,OrientationBias,0-0,0,22,training,22-23,29-24;26-24;24-23;22-16;26-21;26-20,26-21,10.77,76,8,435.710072888
GEMS121,2018_Mar_07_1200,Kramer,sf,orientation,8,6,0,0-0;0-0;0-0;0-0,0,OrientationBias,0-0,0,23,training,26-21,25-15;22-25;30-27;25-22;29-14;33-21,25-15,10.5,75,-1,449.253664817
GEMS121,2018_Mar_07_1200,Kramer,sf,orientation,8,6,0,0-0;0-0;0-0;0-0,0,OrientationBias,0-0,0,24,training,25-15,29-11;20-16;20-13;25-18;26-9;22-22,25-18,1.97,75,0,453.881330905
GEMS121,2018_Mar_07_1200,Kramer,sf,orientation,8,6,0,0-0;0-0;0-0;0-0,0,OrientationBias,0-0,0,25,training,25-18,24-16;25-19;27-16;24-17;28-18;33-18,27-16,2.56,78,3,459.737807285
GEMS121,2018_Mar_07_1200,Kramer,sf,orientation,8,6,0,0-0;0-0;0-0;0-0,0,OrientationBias,0-0,0,26,training,27-16,22-13;26-16;33-11;23-16;22-14;33-14,33-14,9.14,88,10,471.821302398
GEMS121,2018_Mar_07_1200,Kramer,sf,orientation,8,6,0,0-0;0-0;0-0;0-0,0,OrientationBias,0-0,0,27,training,33-14,33-22;36-20;35-12;31-9;30-9;32-19,33-22,3.85,88,0,478.610594287
GEMS121,2018_Mar_07_1200,Kramer,sf,orientation,8,6,0,0-0;0-0;0-0;0-0,0,OrientationBias,0-0,0,28,training,33-22,40-23;33-21;37-24;31-18;38-20;37-26,37-26,4.15,93,5,486.444069474
GEMS121,2018_Mar_07_1200,Kramer,sf,orientation,8,6,0,0-0;0-0;0-0;0-0,0,OrientationBias,0-0,0,29,training,37-26,31-27;38-28;43-22;35-32;36-25;43-27,36-25,2.02,92,-1,494.314518522
GEMS121,2018_Mar_07_1200,Kramer,sf,orientation,8,6,0,0-0;0-0;0-0;0-0,1,SimpleHill,0-0,0,0,selected,0-0,5-5;2-2;2-6;4-5;7-2;5-4,5-4,5.67,17,17,526.148911094
GEMS121,2018_Mar_07_1200,Kramer,sf,orientation,8,6,0,0-0;0-0;0-0;0-0,1,SimpleHill,0-0,0,1,selected,5-4,0-5;2-1;4-11;11-2;11-0;3-7,11-0,4.92,19,2,534.634755813
GEMS121,2018_Mar_07_1200,Kramer,sf,orientation,8,6,0,0-0;0-0;0-0;0-0,1,SimpleHill,0-0,0,2,selected,11-0,13-1;14-0;9-2;7-5;14-7;6-4,14-7,2.42,37,18,540.630347182
GEMS121,2018_Mar_07_1200,Kramer,sf,orientation,8,6,0,0-0;0-0;0-0;0-0,1,SimpleHill,0-0,0,3,selected,14-7,12-10;15-6;16-9;7-6;16-0;13-4,12-10,3.37,39,2,547.556858153
GEMS121,2018_Mar_07_1200,Kramer,sf,orientation,8,6,0,0-0;0-0;0-0;0-0,1,SimpleHill,0-0,0,4,selected,12-10,15-15;12-15;12-8;8-13;17-5;12-17,12-15,3.4,46,7,554.524943352
GEMS121,2018_Mar_07_1200,Kramer,sf,orientation,8,6,0,0-0;0-0;0-0;0-0,1,SimpleHill,0-0,0,5,selected,12-15,17-11;15-20;10-18;5-15;15-10;6-17,15-20,3.02,57,11,561.13106947
GEMS121,2018_Mar_07_1200,Kramer,sf,orientation,8,6,0,0-0;0-0;0-0;0-0,1,SimpleHill,0-0,0,6,selected,15-20,9-17;10-17;10-23;19-23;11-24;17-20,11-24,2.92,56,-1,567.621949881
GEMS121,2018_Mar_07_1200,Kramer,sf,orientation,8,6,0,0-0;0-0;0-0;0-0,1,SimpleHill,0-0,0,7,selected,11-24,17-25;8-27;16-27;10-30;11-22;11-27,17-25,2.7,65,9,573.91117599
GEMS121,2018_Mar_07_1200,Kramer,sf,orientation,8,6,0,0-0;0-0;0-0;0-0,1,SimpleHill,0-0,0,8,selected,17-25,11-20;14-26;16-28;14-31;10-26;19-31,19-31,8.31,73,8,585.785698853
GEMS121,2018_Mar_07_1200,Kramer,sf,orientation,8,6,0,0-0;0-0;0-0;0-0,1,SimpleHill,0-0,0,9,selected,19-31,19-32;19-36;19-26;26-28;14-29;18-31,19-32,3.26,74,1,592.606735254
GEMS121,2018_Mar_07_1200,Kramer,sf,orientation,8,6,0,0-0;0-0;0-0;0-0,1,SimpleHill,0-0,0,10,selected,19-32,19-37;23-30;21-35;18-39;16-35;13-28,23-30,1.56,77,3,597.754419754
GEMS121,2018_Mar_07_1200,Kramer,sf,orientation,8,6,0,0-0;0-0;0-0;0-0,1,SimpleHill,0-0,0,11,selected,23-30,21-35;30-29;23-31;21-33;28-33;23-23,23-31,3.65,78,1,604.969261858
GEMS121,2018_Mar_07_1200,Kramer,sf,orientation,8,6,0,0-0;0-0;0-0;0-0,1,SimpleHill,0-0,0,12,selected,23-31,21-32;19-33;17-35;17-36;17-27;25-28,25-28,3.77,77,-1,612.311399543
GEMS121,2018_Mar_07_1200,Kramer,sf,orientation,8,6,0,0-0;0-0;0-0;0-0,1,SimpleHill,0-0,0,13,selected,25-28,27-28;25-33;22-25;29-26;18-27;22-26,25-33,3.68,81,4,619.561373375
GEMS121,2018_Mar_07_1200,Kramer,sf,orientation,8,6,0,0-0;0-0;0-0;0-0,1,SimpleHill,0-0,0,14,selected,25-33,28-37;26-34;21-34;26-38;28-40;23-38,26-34,3.29,83,2,626.429906991
GEMS121,2018_Mar_07_1200,Kramer,sf,orientation,8,6,0,0-0;0-0;0-0;0-0,1,SimpleHill,0-0,0,15,selected,26-34,31-35;24-31;33-32;19-35;24-32;22-38,33-32,1.81,87,4,631.814002693
GEMS121,2018_Mar_07_1200,Kramer,sf,orientation,8,6,0,0-0;0-0;0-0;0-0,1,SimpleHill,0-0,0,16,selected,33-32,35-38;37-28;36-36;30-29;29-35;39-32,37-28,4.07,86,-1,639.470096498
GEMS121,2018_Mar_07_1200,Kramer,sf,orientation,8,6,0,0-0;0-0;0-0;0-0,1,SimpleHill,0-0,0,17,selected,37-28,37-20;38-25;44-30;42-24;40-26;37-22,37-20,4.75,78,-8,647.792740883
GEMS121,2018_Mar_07_1200,Kramer,sf,orientation,8,6,0,0-0;0-0;0-0;0-0,1,SimpleHill,0-0,0,18,selected,37-20,38-23;36-16;35-19;31-25;30-23;32-19,30-23,2.77,77,-1,654.125662151
GEMS121,2018_Mar_07_1200,Kramer,sf,orientation,8,6,0,0-0;0-0;0-0;0-0,1,SimpleHill,0-0,0,19,selected,30-23,36-22;23-20;23-24;28-29;35-25;30-26,28-29,3.08,81,4,660.780959246
GEMS121,2018_Mar_07_1200,Kramer,sf,orientation,8,6,0,0-0;0-0;0-0;0-0,1,SimpleHill,0-0,0,20,selected,28-29,35-31;30-23;25-30;34-25;31-34;27-28,31-34,2.88,87,6,667.247940286
GEMS121,2018_Mar_07_1200,Kramer,sf,orientation,8,6,0,0-0;0-0;0-0;0-0,1,SimpleHill,0-0,0,21,selected,31-34,36-38;38-35;30-39;30-29;34-34;24-34,34-34,2.27,89,2,673.104989631
GEMS121,2018_Mar_07_1200,Kramer,sf,orientation,8,6,0,0-0;0-0;0-0;0-0,1,SimpleHill,0-0,0,22,selected,34-34,34-28;40-29;40-31;31-27;32-31;39-32,39-32,2.81,91,2,679.484397261
GEMS121,2018_Mar_07_1200,Kramer,sf,orientation,8,6,0,0-0;0-0;0-0;0-0,1,SimpleHill,0-0,0,23,selected,39-32,42-32;43-35;45-27;35-27;44-28;32-33,43-35,4.02,94,3,687.063665716
GEMS121,2018_Mar_07_1200,Kramer,sf,orientation,8,6,0,0-0;0-0;0-0;0-0,1,SimpleHill,0-0,0,24,selected,43-35,39-37;46-36;45-37;47-29;49-35;42-34,49-35,2.84,95,1,693.454714463
GEMS121,2018_Mar_07_1200,Kramer,sf,orientation,8,6,0,0-0;0-0;0-0;0-0,1,SimpleHill,0-0,0,25,selected,49-35,42-38;45-32;44-29;55-37;50-34;50-32,55-37,2.85,96,1,699.886542968
GEMS121,2018_Mar_07_1200,Kramer,sf,orientation,8,6,0,0-0;0-0;0-0;0-0,1,SimpleHill,0-0,0,26,selected,55-37,56-30;62-36;54-30;62-35;54-43;59-42,56-30,1.38,91,-5,704.844243732
GEMS121,2018_Mar_07_1200,Kramer,sf,orientation,8,6,0,0-0;0-0;0-0;0-0,1,SimpleHill,0-0,0,27,selected,56-30,55-27;51-36;58-37;56-22;51-35;52-33,51-36,3.6,96,5,712.006550049
GEMS121,2018_Mar_07_1200,Kramer,sf,orientation,8,6,0,0-0;0-0;0-0;0-0,1,SimpleHill,0-0,0,28,selected,51-36,49-30;54-39;53-43;57-38;57-37;49-31,57-37,2.28,95,-1,717.855761933
GEMS121,2018_Mar_07_1200,Kramer,sf,orientation,8,6,0,0-0;0-0;0-0;0-0,1,SimpleHill,0-0,0,29,selected,57-37,61-31;51-41;54-35;64-35;59-41;60-30,59-41,4.07,96,1,725.4961152
GEMS121,2018_Mar_07_1200,Kramer,sf,orientation,8,6,0,0-0;0-0;0-0;0-0,1,SimpleHill,0-0,0,30,selected,59-41,56-41;61-38;66-40;57-46;55-46;64-37,61-38,2.25,94,-2,731.3196448
GEMS121,2018_Mar_07_1200,Kramer,sf,orientation,8,6,0,0-0;0-0;0-0;0-0,1,SimpleHill,0-0,0,31,selected,61-38,62-37;60-32;56-34;60-37;61-32;61-42,62-37,1.73,93,-1,736.625814995
GEMS121,2018_Mar_07_1200,Kramer,sf,orientation,8,6,0,0-0;0-0;0-0;0-0,1,SimpleHill,0-0,0,32,selected,62-37,58-32;66-34;69-40;67-35;55-34;59-44,55-34,2.86,94,1,743.067625258
GEMS121,2018_Mar_07_1200,Kramer,sf,orientation,8,6,0,0-0;0-0;0-0;0-0,1,SimpleHill,0-0,0,33,selected,55-34,52-27;52-31;54-38;62-36;55-33;57-40,52-31,1.52,92,-2,748.159741417
GEMS121,2018_Mar_07_1200,Kramer,sf,orientation,8,6,0,0-0;0-0;0-0;0-0,1,SimpleHill,0-0,0,34,selected,52-31,56-28;52-30;55-31;45-31;55-38;56-25,45-31,2.65,92,0,754.355040925
GEMS121,2018_Mar_07_1200,Kramer,sf,orientation,8,6,0,0-0;0-0;0-0;0-0,1,SimpleHill,0-0,0,35,selected,45-31,47-36;38-31;50-29;39-30;49-29;43-37,38-31,3.26,89,-3,761.18365135
GEMS121,2018_Mar_07_1200,Kramer,sf,orientation,8,6,0,0-0;0-0;0-0;0-0,1,SimpleHill,0-0,0,36,selected,38-31,30-31;33-36;41-38;38-28;33-29;42-29,30-31,2.54,84,-5,767.285884666
GEMS121,2018_Mar_07_1200,Kramer,sf,orientation,8,6,0,0-0;0-0;0-0;0-0,1,SimpleHill,0-0,0,37,selected,30-31,25-35;37-32;26-30;27-26;36-36;27-29,36-36,3.36,92,8,774.211616533
GEMS121,2018_Mar_07_1200,Kramer,sf,orientation,8,6,0,0-0;0-0;0-0;0-0,1,SimpleHill,0-0,0,38,selected,36-36,33-39;36-32;43-35;40-31;35-33;40-30,35-33,2.76,89,-3,780.522935413
GEMS121,2018_Mar_07_1200,Kramer,sf,orientation,8,6,0,0-0;0-0;0-0;0-0,1,SimpleHill,0-0,0,39,selected,35-33,37-39;42-36;33-40;28-31;40-31;36-34,42-36,3.34,94,5,787.416160948
GEMS121,2018_Mar_07_1200,Kramer,sf,orientation,8,6,0,0-0;0-0;0-0;0-0,2,SimpleHill,0-0,0,0,selected,0-0,6-2;0-7;1-1;3-6;0-5;0-0,6-2,4.56,15,15,809.36272154
GEMS121,2018_Mar_07_1200,Kramer,sf,orientation,8,6,0,0-0;0-0;0-0;0-0,2,SimpleHill,0-0,0,1,selected,6-2,4-9;10-4;9-1;5-9;12-7;3-6,12-7,3.0,34,19,815.933011086
GEMS121,2018_Mar_07_1200,Kramer,sf,orientation,8,6,0,0-0;0-0;0-0;0-0,2,SimpleHill,0-0,0,2,selected,12-7,5-8;9-2;14-6;20-7;11-0;13-11,13-11,2.81,42,8,822.317829557
GEMS121,2018_Mar_07_1200,Kramer,sf,orientation,8,6,0,0-0;0-0;0-0;0-0,2,SimpleHill,0-0,0,3,selected,13-11,14-15;13-5;8-12;11-8;16-18;19-15,16-18,3.16,56,14,829.049555088
GEMS121,2018_Mar_07_1200,Kramer,sf,orientation,8,6,0,0-0;0-0;0-0;0-0,2,SimpleHill,0-0,0,4,selected,16-18,13-18;9-21;21-24;15-19;13-14;18-23,15-19,4.17,56,0,836.784603177
GEMS121,2018_Mar_07_1200,Kramer,sf,orientation,8,6,0,0-0;0-0;0-0;0-0,2,SimpleHill,0-0,0,5,selected,15-19,12-16;16-16;11-18;10-17;12-14;8-20,12-14,2.58,45,-11,842.929717336
GEMS121,2018_Mar_07_1200,Kramer,sf,orientation,8,6,0,0-0;0-0;0-0;0-0,2,SimpleHill,0-0,0,6,selected,12-14,12-21;18-10;9-13;9-21;7-12;12-10,18-10,5.27,47,2,851.767777526
GEMS121,2018_Mar_07_1200,Kramer,sf,orientation,8,6,0,0-0;0-0;0-0;0-0,2,SimpleHill,0-0,0,7,selected,18-10,19-12;21-13;15-14;24-5;12-14;12-13,24-5,5.89,45,-2,861.235009198
GEMS121,2018_Mar_07_1200,Kramer,sf,orientation,8,6,0,0-0;0-0;0-0;0-0,2,SimpleHill,0-0,0,8,selected,24-5,20-8;27-6;26-10;28-3;29-4;21-3,26-10,2.73,56,11,867.544443374
GEMS121,2018_Mar_07_1200,Kramer,sf,orientation,8,6,0,0-0;0-0;0-0;0-0,2,SimpleHill,0-0,0,9,selected,26-10,28-5;23-3;28-17;24-13;21-9;26-8,28-5,2.86,49,-7,873.973471711
GEMS121,2018_Mar_07_1200,Kramer,sf,orientation,8,6,0,0-0;0-0;0-0;0-0,2,SimpleHill,0-0,0,10,selected,28-5,27-4;30-5;30-8;31-4;33-9;26-6,31-4,5.43,50,1,882.975145154
GEMS121,2018_Mar_07_1200,Kramer,sf,orientation,8,6,0,0-0;0-0;0-0;0-0,2,SimpleHill,0-0,0,11,selected,31-4,30-11;28-6;23-4;29-9;35-9;31-8,30-11,2.26,61,11,888.803920106
GEMS121,2018_Mar_07_1200,Kramer,sf,orientation,8,6,0,0-0;0-0;0-0;0-0,2,SimpleHill,0-0,0,12,selected,30-11,28-5;37-13;26-6;33-11;27-10;34-7,28-5,3.39,49,-12,895.776097044
GEMS121,2018_Mar_07_1200,Kramer,sf,orientation,8,6,0,0-0;0-0;0-0;0-0,2,SimpleHill,0-0,0,13,selected,28-5,31-1;31-2;35-5;28-10;22-3;26-6,31-1,2.74,44,-5,902.093158379
GEMS121,2018_Mar_07_1200,Kramer,sf,orientation,8,6,0,0-0;0-0;0-0;0-0,2,SimpleHill,0-0,0,14,selected,31-1,33-1;36-3;38-1;32-3;31-7;33-7,33-7,2.09,57,13,907.76155013
GEMS121,2018_Mar_07_1200,Kramer,sf,orientation,8,6,0,0-0;0-0;0-0;0-0,2,SimpleHill,0-0,0,15,selected,33-7,38-13;35-13;32-6;30-5;35-10;37-6,35-10,1.68,63,6,913.012544737
GEMS121,2018_Mar_07_1200,Kramer,sf,orientation,8,6,0,0-0;0-0;0-0;0-0,2,SimpleHill,0-0,0,16,selected,35-10,38-7;38-11;31-6;33-15;37-5;32-5,33-15,2.36,69,6,918.963875345
GEMS121,2018_Mar_07_1200,Kramer,sf,orientation,8,6,0,0-0;0-0;0-0;0-0,2,SimpleHill,0-0,0,17,selected,33-15,32-8;38-15;29-11;34-15;33-7;34-13,34-13,1.81,67,-2,924.3521092
GEMS121,2018_Mar_07_1200,Kramer,sf,orientation,8,6,0,0-0;0-0;0-0;0-0,2,SimpleHill,0-0,0,18,selected,34-13,30-17;39-8;34-13;36-6;36-13;26-13,39-8,5.49,62,-5,933.411770882
GEMS121,2018_Mar_07_1200,Kramer,sf,orientation,8,6,0,0-0;0-0;0-0;0-0,2,SimpleHill,0-0,0,19,selected,39-8,36-13;37-13;37-2;39-7;34-6;42-6,36-13,1.99,68,6,938.970376739
GEMS121,2018_Mar_07_1200,Kramer,sf,orientation,8,6,0,0-0;0-0;0-0;0-0,2,SimpleHill,0-0,0,20,selected,36-13,42-10;33-8;37-18;33-12;40-8;32-18,32-18,3.71,73,5,946.258503012
GEMS121,2018_Mar_07_1200,Kramer,sf,orientation,8,6,0,0-0;0-0;0-0;0-0,2,SimpleHill,0-0,0,21,selected,32-18,31-19;27-15;34-22;31-23;29-20;31-14,31-19,5.39,73,0,955.243073283
GEMS121,2018_Mar_07_1200,Kramer,sf,orientation,8,6,0,0-0;0-0;0-0;0-0,2,SimpleHill,0-0,0,22,selected,31-19,37-21;37-15;34-17;27-17;26-13;35-20,35-20,2.22,77,4,961.005042094
GEMS121,2018_Mar_07_1200,Kramer,sf,orientation,8,6,0,0-0;0-0;0-0;0-0,2,SimpleHill,0-0,0,23,selected,35-20,40-20;33-25;30-22;39-18;37-24;30-17,39-18,2.71,77,0,967.270668759
GEMS121,2018_Mar_07_1200,Kramer,sf,orientation,8,6,0,0-0;0-0;0-0;0-0,2,SimpleHill,0-0,0,24,selected,39-18,39-21;34-24;40-12;46-19;36-17;41-20,36-17,2.75,74,-3,973.564352154
GEMS121,2018_Mar_07_1200,Kramer,sf,orientation,8,6,0,0-0;0-0;0-0;0-0,2,SimpleHill,0-0,0,25,selected,36-17,33-22;37-13;41-15;37-17;38-18;34-11,37-13,1.4,69,-5,978.533709399
GEMS121,2018_Mar_07_1200,Kramer,sf,orientation,8,6,0,0-0;0-0;0-0;0-0,2,SimpleHill,0-0,0,26,selected,37-13,37-16;34-20;37-10;38-8;43-9;34-19,37-16,3.3,73,4,985.39664204
GEMS121,2018_Mar_07_1200,Kramer,sf,orientation,8,6,0,0-0;0-0;0-0;0-0,2,SimpleHill,0-0,0,27,selected,37-16,44-17;38-22;37-17;41-12;31-20;37-15,44-17,7.75,77,4,996.700467879
GEMS121,2018_Mar_07_1200,Kramer,sf,orientation,8,6,0,0-0;0-0;0-0;0-0,2,SimpleHill,0-0,0,28,selected,44-17,42-18;47-12;46-11;41-16;38-20;49-21,47-12,1.35,70,-7,1001.62105522
GEMS121,2018_Mar_07_1200,Kramer,sf,orientation,8,6,0,0-0;0-0;0-0;0-0,2,SimpleHill,0-0,0,29,selected,47-12,43-15;45-6;41-13;41-14;48-16;42-6,48-16,2.86,76,6,1008.05311836
GEMS121,2018_Mar_07_1200,Kramer,sf,orientation,8,6,0,0-0;0-0;0-0;0-0,2,SimpleHill,0-0,0,30,selected,48-16,48-8;46-14;41-19;55-15;49-18;49-12,46-14,3.72,73,-3,1015.33883305
GEMS121,2018_Mar_07_1200,Kramer,sf,orientation,8,6,0,0-0;0-0;0-0;0-0,2,SimpleHill,0-0,0,31,selected,46-14,49-10;42-20;41-16;38-14;43-13;43-16,43-16,1.23,75,2,1020.13887364
GEMS121,2018_Mar_07_1200,Kramer,sf,orientation,8,6,0,0-0;0-0;0-0;0-0,2,SimpleHill,0-0,0,32,selected,43-16,39-10;41-20;40-19;45-22;45-23;45-11,45-23,5.82,84,9,1029.51331344
GEMS121,2018_Mar_07_1200,Kramer,sf,orientation,8,6,0,0-0;0-0;0-0;0-0,2,SimpleHill,0-0,0,33,selected,45-23,46-20;45-15;46-25;42-23;41-26;48-29,45-15,2.87,75,-9,1035.95093177
GEMS121,2018_Mar_07_1200,Kramer,sf,orientation,8,6,0,0-0;0-0;0-0;0-0,2,SimpleHill,0-0,0,34,selected,45-15,39-20;49-20;48-17;44-14;46-9;50-20,50-20,4.31,82,7,1043.83109274
GEMS121,2018_Mar_07_1200,Kramer,sf,orientation,8,6,0,0-0;0-0;0-0;0-0,2,SimpleHill,0-0,0,35,selected,50-20,46-20;50-14;54-15;54-21;51-22;52-13,46-20,1.58,81,-1,1048.98888544
GEMS121,2018_Mar_07_1200,Kramer,sf,orientation,8,6,0,0-0;0-0;0-0;0-0,2,SimpleHill,0-0,0,36,selected,46-20,42-16;39-18;51-23;47-26;44-16;51-21,44-16,1.31,76,-5,1053.87616558
GEMS121,2018_Mar_07_1200,Kramer,sf,orientation,8,6,0,0-0;0-0;0-0;0-0,2,SimpleHill,0-0,0,37,selected,44-16,44-24;43-16;44-18;48-19;48-15;38-20,48-15,3.19,75,-1,1060.64119383
GEMS121,2018_Mar_07_1200,Kramer,sf,orientation,8,6,0,0-0;0-0;0-0;0-0,2,SimpleHill,0-0,0,38,selected,48-15,42-16;50-19;41-14;44-16;46-14;50-14,42-16,1.61,75,0,1065.8321993
GEMS121,2018_Mar_07_1200,Kramer,sf,orientation,8,6,0,0-0;0-0;0-0;0-0,2,SimpleHill,0-0,0,39,selected,42-16,43-23;40-19;45-19;35-15;41-13;45-16,45-16,3.37,76,1,1072.76619339
GEMS121,2018_Mar_07_1200,Kramer,sf,orientation,8,6,0,0-0;0-0;0-0;0-0,3,SimpleHill,0-0,0,0,selected,0-0,4-2;3-2;0-4;8-0;6-4;6-3,8-0,4.92,14,14,1086.51343187
GEMS121,2018_Mar_07_1200,Kramer,sf,orientation,8,6,0,0-0;0-0;0-0;0-0,3,SimpleHill,0-0,0,1,selected,8-0,11-3;3-0;6-7;9-3;3-6;14-4,11-3,5.67,25,11,1095.74190126
GEMS121,2018_Mar_07_1200,Kramer,sf,orientation,8,6,0,0-0;0-0;0-0;0-0,3,SimpleHill,0-0,0,2,selected,11-3,6-5;12-0;16-4;18-4;7-1;12-10,18-4,6.25,37,12,1105.55773713
GEMS121,2018_Mar_07_1200,Kramer,sf,orientation,8,6,0,0-0;0-0;0-0;0-0,3,SimpleHill,0-0,0,3,selected,18-4,17-2;20-1;22-7;12-5;15-3;23-4,23-4,4.36,43,6,1113.48982475
GEMS121,2018_Mar_07_1200,Kramer,sf,orientation,8,6,0,0-0;0-0;0-0;0-0,3,SimpleHill,0-0,0,4,selected,23-4,26-1;28-8;22-7;22-11;19-1;29-5,28-8,4.81,55,12,1121.85659769
GEMS121,2018_Mar_07_1200,Kramer,sf,orientation,8,6,0,0-0;0-0;0-0;0-0,3,SimpleHill,0-0,0,5,selected,28-8,22-7;27-4;23-8;34-9;30-2;28-2,34-9,7.15,61,6,1132.57149469
GEMS121,2018_Mar_07_1200,Kramer,sf,orientation,8,6,0,0-0;0-0;0-0;0-0,3,SimpleHill,0-0,0,6,selected,34-9,32-16;41-6;31-12;36-15;30-14;40-8,40-8,6.9,62,1,1143.02933966
GEMS121,2018_Mar_07_1200,Kramer,sf,orientation,8,6,0,0-0;0-0;0-0;0-0,3,SimpleHill,0-0,0,7,selected,40-8,46-4;44-14;35-14;45-2;42-1;41-14,44-14,4.3,73,11,1150.90326619
GEMS121,2018_Mar_07_1200,Kramer,sf,orientation,8,6,0,0-0;0-0;0-0;0-0,3,SimpleHill,0-0,0,8,selected,44-14,42-11;43-15;40-13;50-10;41-15;42-8,42-11,8.19,68,-5,1162.64531278
GEMS121,2018_Mar_07_1200,Kramer,sf,orientation,8,6,0,0-0;0-0;0-0;0-0,3,SimpleHill,0-0,0,9,selected,42-11,45-8;47-17;47-7;44-18;40-11;46-8,47-17,5.45,78,10,1171.67058758
GEMS121,2018_Mar_07_1200,Kramer,sf,orientation,8,6,0,0-0;0-0;0-0;0-0,3,SimpleHill,0-0,0,10,selected,47-17,47-16;44-14;44-10;49-21;47-23;40-17,47-23,2.61,85,7,1177.84936681
GEMS121,2018_Mar_07_1200,Kramer,sf,orientation,8,6,0,0-0;0-0;0-0;0-0,3,SimpleHill,0-0,0,11,selected,47-23,41-26;52-25;42-17;43-20;46-21;47-15,52-25,4.66,87,2,1186.07762366
GEMS121,2018_Mar_07_1200,Kramer,sf,orientation,8,6,0,0-0;0-0;0-0;0-0,3,SimpleHill,0-0,0,12,selected,52-25,56-28;47-28;50-24;52-17;53-30;44-25,56-28,4.79,89,2,1194.43530119
GEMS121,2018_Mar_07_1200,Kramer,sf,orientation,8,6,0,0-0;0-0;0-0;0-0,3,SimpleHill,0-0,0,13,selected,56-28,59-34;57-31;61-26;54-32;52-22;59-28,59-34,5.18,93,4,1203.18867264
GEMS121,2018_Mar_07_1200,Kramer,sf,orientation,8,6,0,0-0;0-0;0-0;0-0,3,SimpleHill,0-0,0,14,selected,59-34,64-39;59-27;55-33;56-27;54-38;57-32,64-39,2.56,93,0,1209.34730109
GEMS121,2018_Mar_07_1200,Kramer,sf,orientation,8,6,0,0-0;0-0;0-0;0-0,3,SimpleHill,0-0,0,15,selected,64-39,65-33;69-41;63-32;62-34;66-37;60-42,60-42,5.53,96,3,1218.43742756
GEMS121,2018_Mar_07_1200,Kramer,sf,orientation,8,6,0,0-0;0-0;0-0;0-0,3,SimpleHill,0-0,0,16,selected,60-42,60-48;67-42;55-39;65-41;59-36;66-42,66-42,4.67,93,-3,1226.67516234
GEMS121,2018_Mar_07_1200,Kramer,sf,orientation,8,6,0,0-0;0-0;0-0;0-0,3,SimpleHill,0-0,0,17,selected,66-42,64-48;61-38;63-47;68-45;60-45;69-44,63-47,3.53,96,3,1233.77203667
GEMS121,2018_Mar_07_1200,Kramer,sf,orientation,8,6,0,0-0;0-0;0-0;0-0,3,SimpleHill,0-0,0,18,selected,63-47,60-52;66-40;62-41;60-48;59-42;68-48,68-48,2.86,93,-3,1240.20187548
GEMS121,2018_Mar_07_1200,Kramer,sf,orientation,8,6,0,0-0;0-0;0-0;0-0,3,SimpleHill,0-0,0,19,selected,68-48,67-48;62-48;68-56;61-47;66-55;69-41,68-56,2.92,92,-1,1246.71041251
GEMS121,2018_Mar_07_1200,Kramer,sf,orientation,8,6,0,0-0;0-0;0-0;0-0,3,SimpleHill,0-0,0,20,selected,68-56,67-60;65-56;63-53;64-54;69-60;68-55,65-56,2.94,94,2,1253.21128812
GEMS121,2018_Mar_07_1200,Kramer,sf,orientation,8,6,0,0-0;0-0;0-0;0-0,3,SimpleHill,0-0,0,21,selected,65-56,61-50;66-51;59-56;64-58;66-63;61-53,64-58,3.08,94,0,1259.85794016
GEMS121,2018_Mar_07_1200,Kramer,sf,orientation,8,6,0,0-0;0-0;0-0;0-0,3,SimpleHill,0-0,0,22,selected,64-58,60-54;66-59;61-51;64-53;62-56;64-63,66-59,4.61,93,-1,1268.03060306
GEMS121,2018_Mar_07_1200,Kramer,sf,orientation,8,6,0,0-0;0-0;0-0;0-0,3,SimpleHill,0-0,0,23,selected,66-59,70-62;63-59;62-55;65-52;69-57;66-63,70-62,2.48,89,-4,1274.0861698
GEMS121,2018_Mar_07_1200,Kramer,sf,orientation,8,6,0,0-0;0-0;0-0;0-0,3,SimpleHill,0-0,0,24,selected,70-62,69-57;70-59;67-58;63-60;69-61;68-56,67-58,1.03,92,3,1278.69041858
GEMS121,2018_Mar_07_1200,Kramer,sf,orientation,8,6,0,0-0;0-0;0-0;0-0,3,SimpleHill,0-0,0,25,selected,67-58,68-57;69-57;64-61;70-63;67-55;68-56,67-55,1.86,93,1,1284.12166292
GEMS121,2018_Mar_07_1200,Kramer,sf,orientation,8,6,0,0-0;0-0;0-0;0-0,3,SimpleHill,0-0,0,26,selected,67-55,70-52;69-55;61-51;70-55;64-54;65-58,70-52,0.67,91,-2,1288.35839965
GEMS121,2018_Mar_07_1200,Kramer,sf,orientation,8,6,0,0-0;0-0;0-0;0-0,3,SimpleHill,0-0,0,27,selected,70-52,63-49;64-51;63-54;69-55;67-52;67-51,69-55,1.0,92,1,1292.9096245
GEMS121,2018_Mar_07_1200,Kramer,sf,orientation,8,6,0,0-0;0-0;0-0;0-0,3,SimpleHill,0-0,0,28,selected,69-55,70-60;66-49;69-58;63-54;68-51;68-49,68-49,2.62,93,1,1299.11502965
GEMS121,2018_Mar_07_1200,Kramer,sf,orientation,8,6,0,0-0;0-0;0-0;0-0,3,SimpleHill,0-0,0,29,selected,68-49,62-46;64-47;69-51;63-47;63-49;62-51,63-49,0.99,96,3,1303.65263329
GEMS121,2018_Mar_07_1200,Kramer,sf,orientation,8,6,0,0-0;0-0;0-0;0-0,3,SimpleHill,0-0,0,30,selected,63-49,63-51;57-51;59-48;62-47;68-54;65-49,63-51,2.34,96,0,1309.56643211
GEMS121,2018_Mar_07_1200,Kramer,sf,orientation,8,6,0,0-0;0-0;0-0;0-0,3,SimpleHill,0-0,0,31,selected,63-51,60-45;57-55;66-44;61-46;69-51;55-51,66-44,0.95,94,-2,1314.09104225
GEMS121,2018_Mar_07_1200,Kramer,sf,orientation,8,6,0,0-0;0-0;0-0;0-0,3,SimpleHill,0-0,0,32,selected,66-44,70-46;63-49;58-44;68-43;70-50;70-39,70-50,1.1,92,-2,1318.77349213
GEMS121,2018_Mar_07_1200,Kramer,sf,orientation,8,6,0,0-0;0-0;0-0;0-0,3,SimpleHill,0-0,0,33,selected,70-50,70-58;64-55;64-47;67-49;68-56;66-55,66-55,0.8,94,2,1323.13875072
GEMS121,2018_Mar_07_1200,Kramer,sf,orientation,8,6,0,0-0;0-0;0-0;0-0,3,SimpleHill,0-0,0,34,selected,66-55,68-49;69-58;70-51;67-57;68-48;69-60,69-58,1.41,91,-3,1328.12364845
GEMS121,2018_Mar_07_1200,Kramer,sf,orientation,8,6,0,0-0;0-0;0-0;0-0,3,SimpleHill,0-0,0,35,selected,69-58,67-57;64-56;64-57;68-59;64-61;69-63,68-59,0.81,91,0,1332.52026744
GEMS121,2018_Mar_07_1200,Kramer,sf,orientation,8,6,0,0-0;0-0;0-0;0-0,3,SimpleHill,0-0,0,36,selected,68-59,70-64;70-61;66-52;62-59;64-60;65-59,70-64,0.84,88,-3,1336.93777214
GEMS121,2018_Mar_07_1200,Kramer,sf,orientation,8,6,0,0-0;0-0;0-0;0-0,3,SimpleHill,0-0,0,37,selected,70-64,65-68;67-60;70-56;70-60;68-65;66-61,70-56,0.61,91,3,1341.12482447
GEMS121,2018_Mar_07_1200,Kramer,sf,orientation,8,6,0,0-0;0-0;0-0;0-0,3,SimpleHill,0-0,0,38,selected,70-56,70-61;67-63;64-60;69-57;68-63;70-50,68-63,1.22,90,-1,1345.91275148
GEMS121,2018_Mar_07_1200,Kramer,sf,orientation,8,6,0,0-0;0-0;0-0;0-0,3,SimpleHill,0-0,0,39,selected,68-63,66-66;69-67;63-59;64-68;70-70;69-61,69-61,0.64,90,0,1350.12802507
GEMS121,2018_Mar_07_1200,Kramer,sf,orientation,8,6,0,0-0;0-0;0-0;0-0,4,SimpleHill,0-0,0,0,selected,0-0,3-0;7-1;0-7;0-3;7-2;2-0,7-1,6.24,15,15,1365.32821367
GEMS121,2018_Mar_07_1200,Kramer,sf,orientation,8,6,0,0-0;0-0;0-0;0-0,4,SimpleHill,0-0,0,1,selected,7-1,9-1;8-5;9-7;7-8;5-8;4-0,8-5,2.36,24,9,1371.24536642
GEMS121,2018_Mar_07_1200,Kramer,sf,orientation,8,6,0,0-0;0-0;0-0;0-0,4,SimpleHill,0-0,0,2,selected,8-5,4-11;4-3;13-7;8-1;9-0;3-11,13-7,1.98,35,11,1376.78674427
GEMS121,2018_Mar_07_1200,Kramer,sf,orientation,8,6,0,0-0;0-0;0-0;0-0,4,SimpleHill,0-0,0,3,selected,13-7,6-5;8-11;13-0;14-12;11-3;15-10,14-12,2.69,45,10,1383.04095901
GEMS121,2018_Mar_07_1200,Kramer,sf,orientation,8,6,0,0-0;0-0;0-0;0-0,4,SimpleHill,0-0,0,4,selected,14-12,9-6;10-9;8-10;16-17;14-13;11-8,16-17,1.57,55,10,1388.18483185
GEMS121,2018_Mar_07_1200,Kramer,sf,orientation,8,6,0,0-0;0-0;0-0;0-0,4,SimpleHill,0-0,0,5,selected,16-17,18-14;19-11;17-21;22-21;21-16;18-13,19-11,2.08,50,-5,1393.83665979
GEMS121,2018_Mar_07_1200,Kramer,sf,orientation,8,6,0,0-0;0-0;0-0;0-0,4,SimpleHill,0-0,0,6,selected,19-11,23-11;17-16;13-6;18-16;18-8;15-6,15-6,1.66,36,-14,1399.05589259
GEMS121,2018_Mar_07_1200,Kramer,sf,orientation,8,6,0,0-0;0-0;0-0;0-0,4,SimpleHill,0-0,0,7,selected,15-6,20-0;10-9;17-7;16-10;7-6;15-7,20-0,0.67,32,-4,1403.29324263
GEMS121,2018_Mar_07_1200,Kramer,sf,orientation,8,6,0,0-0;0-0;0-0;0-0,4,SimpleHill,0-0,0,8,selected,20-0,15-2;23-2;20-4;22-1;23-1;17-1,23-2,0.89,39,7,1407.74954699
GEMS121,2018_Mar_07_1200,Kramer,sf,orientation,8,6,0,0-0;0-0;0-0;0-0,4,SimpleHill,0-0,0,9,selected,23-2,22-7;26-4;29-6;22-1;27-0;24-1,22-1,0.26,36,-3,1411.59825825
GEMS121,2018_Mar_07_1200,Kramer,sf,orientation,8,6,0,0-0;0-0;0-0;0-0,4,SimpleHill,0-0,0,10,selected,22-1,25-2;23-8;23-3;17-6;17-2;22-2,23-8,0.67,50,14,1415.84099832
GEMS121,2018_Mar_07_1200,Kramer,sf,orientation,8,6,0,0-0;0-0;0-0;0-0,4,SimpleHill,0-0,0,11,selected,23-8,19-12;18-3;17-10;19-3;19-10;17-8,18-3,0.82,35,-15,1420.21836024
GEMS121,2018_Mar_07_1200,Kramer,sf,orientation,8,6,0,0-0;0-0;0-0;0-0,4,SimpleHill,0-0,0,12,selected,18-3,21-10;12-3;16-4;16-5;18-1;11-5,21-10,0.31,51,16,1424.07420668
GEMS121,2018_Mar_07_1200,Kramer,sf,orientation,8,6,0,0-0;0-0;0-0;0-0,4,SimpleHill,0-0,0,13,selected,21-10,23-14;16-15;18-17;25-5;14-8;24-8,23-14,0.61,59,8,1428.25131502
GEMS121,2018_Mar_07_1200,Kramer,sf,orientation,8,6,0,0-0;0-0;0-0;0-0,4,SimpleHill,0-0,0,14,selected,23-14,17-11;20-9;19-10;17-10;25-11;29-12,29-12,1.4,62,3,1433.20945207
GEMS121,2018_Mar_07_1200,Kramer,sf,orientation,8,6,0,0-0;0-0;0-0;0-0,4,SimpleHill,0-0,0,15,selected,29-12,26-8;27-7;23-16;34-15;30-18;22-15,30-18,0.82,71,9,1437.58693723
GEMS121,2018_Mar_07_1200,Kramer,sf,orientation,8,6,0,0-0;0-0;0-0;0-0,4,SimpleHill,0-0,0,16,selected,30-18,35-12;34-24;28-13;25-16;26-14;25-12,26-14,1.25,62,-9,1442.41194117
GEMS121,2018_Mar_07_1200,Kramer,sf,orientation,8,6,0,0-0;0-0;0-0;0-0,4,SimpleHill,0-0,0,17,selected,26-14,30-10;29-17;23-13;29-8;20-15;23-8,30-10,1.37,60,-2,1447.34738336
GEMS121,2018_Mar_07_1200,Kramer,sf,orientation,8,6,0,0-0;0-0;0-0;0-0,4,SimpleHill,0-0,0,18,selected,30-10,34-15;32-14;35-6;35-15;26-11;37-9,37-9,0.7,63,3,1451.62200014
GEMS121,2018_Mar_07_1200,Kramer,sf,orientation,8,6,0,0-0;0-0;0-0;0-0,4,SimpleHill,0-0,0,19,selected,37-9,34-7;33-8;43-4;44-6;39-16;30-8,33-8,0.7,58,-5,1455.91351426
GEMS121,2018_Mar_07_1200,Kramer,sf,orientation,8,6,0,0-0;0-0;0-0;0-0,4,SimpleHill,0-0,0,20,selected,33-8,33-11;31-1;34-2;38-7;37-9;28-8,33-11,0.93,63,5,1460.41710266
GEMS121,2018_Mar_07_1200,Kramer,sf,orientation,8,6,0,0-0;0-0;0-0;0-0,4,SimpleHill,0-0,0,21,selected,33-11,30-11;38-14;30-12;36-4;40-12;35-9,40-12,1.26,69,6,1465.24745183
GEMS121,2018_Mar_07_1200,Kramer,sf,orientation,8,6,0,0-0;0-0;0-0;0-0,4,SimpleHill,0-0,0,22,selected,40-12,42-9;34-10;39-19;45-12;41-19;32-12,45-12,2.51,70,1,1471.32243985
GEMS121,2018_Mar_07_1200,Kramer,sf,orientation,8,6,0,0-0;0-0;0-0;0-0,4,SimpleHill,0-0,0,23,selected,45-12,40-15;39-17;50-7;45-16;45-7;47-16,39-17,2.42,75,5,1477.32484054
GEMS121,2018_Mar_07_1200,Kramer,sf,orientation,8,6,0,0-0;0-0;0-0;0-0,4,SimpleHill,0-0,0,24,selected,39-17,44-22;36-23;37-22;37-21;38-13;39-16,39-16,1.36,74,-1,1482.25740734
GEMS121,2018_Mar_07_1200,Kramer,sf,orientation,8,6,0,0-0;0-0;0-0;0-0,4,SimpleHill,0-0,0,25,selected,39-16,42-11;37-12;35-10;44-20;36-11;42-21,44-20,2.17,81,7,1487.99543933
GEMS121,2018_Mar_07_1200,Kramer,sf,orientation,8,6,0,0-0;0-0;0-0;0-0,4,SimpleHill,0-0,0,26,selected,44-20,51-21;47-22;49-16;40-22;42-13;41-27,51-21,1.42,83,2,1492.98090842
GEMS121,2018_Mar_07_1200,Kramer,sf,orientation,8,6,0,0-0;0-0;0-0;0-0,4,SimpleHill,0-0,0,27,selected,51-21,55-24;50-14;44-18;45-22;49-21;52-18,55-24,1.79,85,2,1498.34697044
GEMS121,2018_Mar_07_1200,Kramer,sf,orientation,8,6,0,0-0;0-0;0-0;0-0,4,SimpleHill,0-0,0,28,selected,55-24,53-26;59-27;62-21;48-22;55-24;50-27,55-24,1.99,85,0,1503.91908739
GEMS121,2018_Mar_07_1200,Kramer,sf,orientation,8,6,0,0-0;0-0;0-0;0-0,4,SimpleHill,0-0,0,29,selected,55-24,59-24;53-20;50-19;61-24;56-29;63-24,59-24,2.06,84,-1,1509.53494496
GEMS121,2018_Mar_07_1200,Kramer,sf,orientation,8,6,0,0-0;0-0;0-0;0-0,4,SimpleHill,0-0,0,30,selected,59-24,57-18;59-29;61-27;62-30;66-26;62-27,62-30,1.02,89,5,1514.12518137
GEMS121,2018_Mar_07_1200,Kramer,sf,orientation,8,6,0,0-0;0-0;0-0;0-0,4,SimpleHill,0-0,0,31,selected,62-30,61-32;60-33;60-29;58-30;62-30;66-26,60-33,1.01,92,3,1518.71992469
GEMS121,2018_Mar_07_1200,Kramer,sf,orientation,8,6,0,0-0;0-0;0-0;0-0,4,SimpleHill,0-0,0,32,selected,60-33,55-31;64-27;65-33;63-27;61-27;64-31,64-31,1.13,88,-4,1523.42909716
GEMS121,2018_Mar_07_1200,Kramer,sf,orientation,8,6,0,0-0;0-0;0-0;0-0,4,SimpleHill,0-0,0,33,selected,64-31,66-24;63-28;64-31;62-35;67-35;65-24,63-28,1.96,86,-2,1528.96716461
GEMS121,2018_Mar_07_1200,Kramer,sf,orientation,8,6,0,0-0;0-0;0-0;0-0,4,SimpleHill,0-0,0,34,selected,63-28,70-25;62-35;63-29;65-23;62-23;60-35,62-23,0.45,82,-4,1532.98081623
GEMS121,2018_Mar_07_1200,Kramer,sf,orientation,8,6,0,0-0;0-0;0-0;0-0,4,SimpleHill,0-0,0,35,selected,62-23,58-25;70-23;62-15;68-23;62-31;66-22,58-25,0.81,86,4,1537.36069023
GEMS121,2018_Mar_07_1200,Kramer,sf,orientation,8,6,0,0-0;0-0;0-0;0-0,4,SimpleHill,0-0,0,36,selected,58-25,57-32;61-22;53-29;63-29;59-27;65-24,53-29,0.87,91,5,1541.81357761
GEMS121,2018_Mar_07_1200,Kramer,sf,orientation,8,6,0,0-0;0-0;0-0;0-0,4,SimpleHill,0-0,0,37,selected,53-29,55-27;60-32;50-24;57-24;53-32;54-24,50-24,1.7,86,-5,1547.09524666
GEMS121,2018_Mar_07_1200,Kramer,sf,orientation,8,6,0,0-0;0-0;0-0;0-0,4,SimpleHill,0-0,0,38,selected,50-24,56-28;47-21;46-24;47-27;44-25;54-28,56-28,0.51,89,3,1551.17295002
GEMS121,2018_Mar_07_1200,Kramer,sf,orientation,8,6,0,0-0;0-0;0-0;0-0,4,SimpleHill,0-0,0,39,selected,56-28,56-36;51-26;49-28;56-28;61-22;55-30,56-36,0.48,95,6,1555.2302267
