subj_id,date,computer,experimenter,instructions,sight_radius,n_gabors,landscape_ix,landscape_name,starting_pos,starting_score,trial,feedback,pos,stims,selected,rt,score,delta,exp_time
GEMS202,2018_Mar_14_1224,George,SF,spatial_frequency,8,6,0,SpatialFrequencyBias,0-0,0,0,training,0-0,0-5;3-4;3-2;0-8;3-6;7-3,3-4,7.18,15,15,445.297145348
GEMS202,2018_Mar_14_1224,George,SF,spatial_frequency,8,6,0,SpatialFrequencyBias,0-0,0,1,training,3-4,3-8;10-4;2-4;10-7;8-8;8-5,3-8,9.82,29,14,465.050827536
GEMS202,2018_Mar_14_1224,George,SF,spatial_frequency,8,6,0,SpatialFrequencyBias,0-0,0,2,training,3-8,4-4;2-15;2-12;9-10;0-15;5-12,0-15,5.27,51,22,476.80208182
GEMS202,2018_Mar_14_1224,George,SF,spatial_frequency,8,6,0,SpatialFrequencyBias,0-0,0,3,training,0-15,4-19;4-21;4-16;4-12;7-14;0-21,4-19,6.67,61,10,487.839045816
GEMS202,2018_Mar_14_1224,George,SF,spatial_frequency,8,6,0,SpatialFrequencyBias,0-0,0,4,training,4-19,5-21;6-13;8-17;3-14;2-17;1-16,8-17,4.27,56,-5,502.310523627
GEMS202,2018_Mar_14_1224,George,SF,spatial_frequency,8,6,0,SpatialFrequencyBias,0-0,0,5,training,8-17,13-15;13-21;8-24;3-16;3-23;11-19,3-16,8.12,53,-3,514.508075301
GEMS202,2018_Mar_14_1224,George,SF,spatial_frequency,8,6,0,SpatialFrequencyBias,0-0,0,6,training,3-16,2-18;2-16;5-18;3-24;1-13;2-17,3-24,6.03,72,19,526.171815893
GEMS202,2018_Mar_14_1224,George,SF,spatial_frequency,8,6,0,SpatialFrequencyBias,0-0,0,7,training,3-24,4-17;4-25;5-26;6-24;6-23;7-19,6-23,4.02,70,-2,535.320831896
GEMS202,2018_Mar_14_1224,George,SF,spatial_frequency,8,6,0,SpatialFrequencyBias,0-0,0,8,training,6-23,11-28;7-25;1-25;13-22;7-20;6-27,1-25,11.19,75,5,553.092721602
GEMS202,2018_Mar_14_1224,George,SF,spatial_frequency,8,6,0,SpatialFrequencyBias,0-0,0,9,training,1-25,1-28;4-24;0-25;8-27;5-27;5-23,5-23,6.99,70,-5,569.56370551
GEMS202,2018_Mar_14_1224,George,SF,spatial_frequency,8,6,0,SpatialFrequencyBias,0-0,0,10,training,5-23,7-24;0-22;7-17;0-17;10-18;8-24,0-22,2.92,68,-2,577.200542621
GEMS202,2018_Mar_14_1224,George,SF,spatial_frequency,8,6,0,SpatialFrequencyBias,0-0,0,11,training,0-22,6-19;1-17;5-18;2-28;7-22;7-23,2-28,3.67,80,12,585.335453735
GEMS202,2018_Mar_14_1224,George,SF,spatial_frequency,8,6,0,SpatialFrequencyBias,0-0,0,12,training,2-28,5-23;10-28;2-31;8-28;7-24;4-35,7-24,11.66,72,-8,600.420414367
GEMS202,2018_Mar_14_1224,George,SF,spatial_frequency,8,6,0,SpatialFrequencyBias,0-0,0,13,training,7-24,9-17;11-27;2-19;12-20;4-29;3-24,4-29,1.95,82,10,610.315941518
GEMS202,2018_Mar_14_1224,George,SF,spatial_frequency,8,6,0,SpatialFrequencyBias,0-0,0,14,training,4-29,1-33;7-27;4-36;5-23;11-27;9-23,4-36,3.38,92,10,616.98871961
GEMS202,2018_Mar_14_1224,George,SF,spatial_frequency,8,6,0,SpatialFrequencyBias,0-0,0,15,training,4-36,3-32;7-43;7-38;0-40;8-39;11-37,3-32,3.65,87,-5,622.906003148
GEMS202,2018_Mar_14_1224,George,SF,spatial_frequency,8,6,0,SpatialFrequencyBias,0-0,0,16,training,3-32,2-30;8-32;10-35;2-38;2-39;2-35,2-39,2.68,95,8,629.677369823
GEMS202,2018_Mar_14_1224,George,SF,spatial_frequency,8,6,0,SpatialFrequencyBias,0-0,0,17,training,2-39,0-33;0-44;5-37;3-37;3-36;4-35,0-44,12.03,98,3,644.500960278
GEMS202,2018_Mar_14_1224,George,SF,spatial_frequency,8,6,0,SpatialFrequencyBias,0-0,0,18,training,0-44,0-43;7-41;0-50;4-41;0-52;5-40,7-41,2.02,96,-2,649.241487932
GEMS202,2018_Mar_14_1224,George,SF,spatial_frequency,8,6,0,SpatialFrequencyBias,0-0,0,19,training,7-41,4-48;11-41;0-39;6-46;2-36;0-40,0-39,2.33,95,-1,656.775747145
GEMS202,2018_Mar_14_1224,George,SF,spatial_frequency,8,6,0,SpatialFrequencyBias,0-0,0,20,training,0-39,3-37;5-35;0-36;5-43;0-37;6-37,3-37,3.45,93,-2,663.923239186
GEMS202,2018_Mar_14_1224,George,SF,spatial_frequency,8,6,0,SpatialFrequencyBias,0-0,0,21,training,3-37,6-42;3-35;9-34;10-37;1-40;0-35,1-40,2.72,96,3,670.436199103
GEMS202,2018_Mar_14_1224,George,SF,spatial_frequency,8,6,0,SpatialFrequencyBias,0-0,0,22,training,1-40,0-40;1-39;5-45;6-37;7-44;4-40,7-44,5.78,98,2,680.185263312
GEMS202,2018_Mar_14_1224,George,SF,spatial_frequency,8,6,0,SpatialFrequencyBias,0-0,0,23,training,7-44,6-42;8-38;1-49;11-44;7-45;2-43,1-49,9.49,99,1,693.562656245
GEMS202,2018_Mar_14_1224,George,SF,spatial_frequency,8,6,0,SpatialFrequencyBias,0-0,0,24,training,1-49,0-48;2-44;3-54;3-55;7-46;8-46,3-55,5.32,99,0,701.818235943
GEMS202,2018_Mar_14_1224,George,SF,spatial_frequency,8,6,0,SpatialFrequencyBias,0-0,0,25,training,3-55,10-54;4-50;9-56;2-49;2-61;7-49,2-61,5.44,95,-4,710.266189814
GEMS202,2018_Mar_14_1224,George,SF,spatial_frequency,8,6,0,SpatialFrequencyBias,0-0,0,26,training,2-61,7-57;9-58;4-58;4-63;6-61;0-56,0-56,1.7,98,3,716.375162847
GEMS202,2018_Mar_14_1224,George,SF,spatial_frequency,8,6,0,SpatialFrequencyBias,0-0,0,27,training,0-56,3-49;3-58;4-52;3-63;7-53;7-56,7-53,1.76,99,1,721.07764235
GEMS202,2018_Mar_14_1224,George,SF,spatial_frequency,8,6,0,SpatialFrequencyBias,0-0,0,28,training,7-53,10-49;3-55;11-59;10-55;14-56;8-46,14-56,5.02,98,-1,728.38407071
GEMS202,2018_Mar_14_1224,George,SF,spatial_frequency,8,6,0,SpatialFrequencyBias,0-0,0,29,training,14-56,9-60;9-58;18-62;15-53;9-55;11-53,11-53,3.08,99,1,734.866454723
GEMS202,2018_Mar_14_1224,George,SF,spatial_frequency,8,6,1,SimpleHill,25-64,83,0,selected,25-64,22-70;25-56;29-69;28-69;19-68;27-69,25-56,2.92,86,3,757.182828686
GEMS202,2018_Mar_14_1224,George,SF,spatial_frequency,8,6,1,SimpleHill,25-64,83,1,selected,25-56,22-57;29-55;31-52;29-50;26-61;28-60,22-57,8.32,83,-3,769.074911958
GEMS202,2018_Mar_14_1224,George,SF,spatial_frequency,8,6,1,SimpleHill,25-64,83,2,selected,22-57,24-52;18-51;23-51;25-56;19-58;16-61,25-56,2.98,86,3,775.610148094
GEMS202,2018_Mar_14_1224,George,SF,spatial_frequency,8,6,1,SimpleHill,25-64,83,3,selected,25-56,22-57;22-59;29-53;21-59;23-58;31-58,21-59,3.44,81,-5,782.609171171
GEMS202,2018_Mar_14_1224,George,SF,spatial_frequency,8,6,1,SimpleHill,25-64,83,4,selected,21-59,15-63;26-58;25-64;27-55;26-54;18-55,18-55,2.6,79,-2,788.77949031
GEMS202,2018_Mar_14_1224,George,SF,spatial_frequency,8,6,1,SimpleHill,25-64,83,5,selected,18-55,17-52;14-53;13-49;22-51;21-48;23-49,22-51,1.63,84,5,793.936482705
GEMS202,2018_Mar_14_1224,George,SF,spatial_frequency,8,6,1,SimpleHill,25-64,83,6,selected,22-51,25-44;24-57;26-54;21-44;26-50;19-45,26-54,3.91,88,4,801.414023394
GEMS202,2018_Mar_14_1224,George,SF,spatial_frequency,8,6,1,SimpleHill,25-64,83,7,selected,26-54,23-50;26-57;26-48;20-54;24-58;31-51,23-50,4.0,85,-3,808.980529715
GEMS202,2018_Mar_14_1224,George,SF,spatial_frequency,8,6,1,SimpleHill,25-64,83,8,selected,23-50,23-42;26-43;25-49;16-50;25-50;21-43,16-50,1.56,76,-9,814.103185756
GEMS202,2018_Mar_14_1224,George,SF,spatial_frequency,8,6,1,SimpleHill,25-64,83,9,selected,16-50,14-57;13-52;16-54;15-49;11-51;15-56,14-57,5.57,73,-3,823.247398766
GEMS202,2018_Mar_14_1224,George,SF,spatial_frequency,8,6,1,SimpleHill,25-64,83,10,selected,14-57,16-59;17-63;16-57;16-54;10-61;11-55,16-57,2.73,75,2,829.555061403
GEMS202,2018_Mar_14_1224,George,SF,spatial_frequency,8,6,1,SimpleHill,25-64,83,11,selected,16-57,20-61;13-56;20-58;17-61;18-51;12-55,13-56,13.22,71,-4,846.334282835
GEMS202,2018_Mar_14_1224,George,SF,spatial_frequency,8,6,1,SimpleHill,25-64,83,12,selected,13-56,17-59;20-59;16-62;17-52;17-54;7-52,16-62,3.52,74,3,853.430615404
GEMS202,2018_Mar_14_1224,George,SF,spatial_frequency,8,6,1,SimpleHill,25-64,83,13,selected,16-62,16-62;9-60;15-69;10-61;18-66;10-64,10-64,4.17,64,-10,861.16873756
GEMS202,2018_Mar_14_1224,George,SF,spatial_frequency,8,6,1,SimpleHill,25-64,83,14,selected,10-64,15-60;11-63;8-70;7-68;15-69;8-62,15-60,1.0,73,9,865.72871847
GEMS202,2018_Mar_14_1224,George,SF,spatial_frequency,8,6,1,SimpleHill,25-64,83,15,selected,15-60,10-66;11-59;14-63;17-62;11-61;9-63,9-63,4.63,63,-10,873.927990323
GEMS202,2018_Mar_14_1224,George,SF,spatial_frequency,8,6,1,SimpleHill,25-64,83,16,selected,9-63,8-64;6-60;15-61;4-63;3-68;9-59,4-63,0.9,54,-9,878.393286502
GEMS202,2018_Mar_14_1224,George,SF,spatial_frequency,8,6,1,SimpleHill,25-64,83,17,selected,4-63,4-60;4-59;5-56;8-67;5-58;0-62,5-56,1.51,58,4,883.459483934
GEMS202,2018_Mar_14_1224,George,SF,spatial_frequency,8,6,1,SimpleHill,25-64,83,18,selected,5-56,5-62;6-56;2-62;9-61;1-62;6-51,9-61,1.8,63,5,888.806611453
GEMS202,2018_Mar_14_1224,George,SF,spatial_frequency,8,6,1,SimpleHill,25-64,83,19,selected,9-61,4-55;4-66;11-59;15-63;4-62;2-62,4-55,7.74,57,-6,900.351249674
GEMS202,2018_Mar_14_1224,George,SF,spatial_frequency,8,6,1,SimpleHill,25-64,83,20,selected,4-55,9-56;10-55;9-53;2-49;4-62;0-58,4-62,5.63,54,-3,909.772602873
GEMS202,2018_Mar_14_1224,George,SF,spatial_frequency,8,6,1,SimpleHill,25-64,83,21,selected,4-62,3-59;11-60;0-66;8-61;5-65;6-57,5-65,4.63,55,1,918.042487198
GEMS202,2018_Mar_14_1224,George,SF,spatial_frequency,8,6,1,SimpleHill,25-64,83,22,selected,5-65,11-70;5-69;1-65;0-70;11-61;1-69,11-61,1.79,67,12,923.379056136
GEMS202,2018_Mar_14_1224,George,SF,spatial_frequency,8,6,1,SimpleHill,25-64,83,23,selected,11-61,15-62;4-59;14-58;5-64;18-64;19-61,19-61,11.77,78,11,938.716849429
GEMS202,2018_Mar_14_1224,George,SF,spatial_frequency,8,6,1,SimpleHill,25-64,83,24,selected,19-61,16-59;16-66;14-60;14-67;16-67;20-57,16-67,2.81,71,-7,945.07284736
GEMS202,2018_Mar_14_1224,George,SF,spatial_frequency,8,6,1,SimpleHill,25-64,83,25,selected,16-67,15-63;19-62;18-62;10-68;24-67;13-62,18-62,5.48,76,5,954.120637855
GEMS202,2018_Mar_14_1224,George,SF,spatial_frequency,8,6,1,SimpleHill,25-64,83,26,selected,18-62,21-69;17-61;19-62;22-59;14-56;12-65,22-59,6.38,82,6,964.066791204
GEMS202,2018_Mar_14_1224,George,SF,spatial_frequency,8,6,1,SimpleHill,25-64,83,27,selected,22-59,17-57;20-60;29-60;16-60;27-55;22-54,16-60,7.47,74,-8,975.084205853
GEMS202,2018_Mar_14_1224,George,SF,spatial_frequency,8,6,1,SimpleHill,25-64,83,28,selected,16-60,16-59;20-58;14-59;13-54;10-61;12-56,20-58,3.28,80,6,981.94691485
GEMS202,2018_Mar_14_1224,George,SF,spatial_frequency,8,6,1,SimpleHill,25-64,83,29,selected,20-58,19-51;18-53;24-64;21-57;17-54;21-53,21-57,5.69,82,2,991.208695385
GEMS202,2018_Mar_14_1224,George,SF,spatial_frequency,8,6,1,SimpleHill,25-64,83,30,selected,21-57,15-55;18-54;25-53;27-55;18-57;27-54,27-55,8.01,88,6,1002.77004533
GEMS202,2018_Mar_14_1224,George,SF,spatial_frequency,8,6,1,SimpleHill,25-64,83,31,selected,27-55,32-49;29-57;33-52;27-60;23-51;34-53,34-53,2.5,94,6,1008.82323419
GEMS202,2018_Mar_14_1224,George,SF,spatial_frequency,8,6,1,SimpleHill,25-64,83,32,selected,34-53,30-59;31-51;36-54;34-58;41-51;28-52,34-58,3.18,93,-1,1015.57697016
GEMS202,2018_Mar_14_1224,George,SF,spatial_frequency,8,6,1,SimpleHill,25-64,83,33,selected,34-58,34-50;36-51;38-58;31-55;33-59;41-58,31-55,3.98,92,-1,1023.10575258
GEMS202,2018_Mar_14_1224,George,SF,spatial_frequency,8,6,1,SimpleHill,25-64,83,34,selected,31-55,27-57;28-52;33-55;28-49;25-55;27-50,28-52,4.82,90,-2,1031.4872491
GEMS202,2018_Mar_14_1224,George,SF,spatial_frequency,8,6,1,SimpleHill,25-64,83,35,selected,28-52,28-47;30-59;36-52;28-55;24-57;24-56,24-57,2.41,85,-5,1037.44917631
GEMS202,2018_Mar_14_1224,George,SF,spatial_frequency,8,6,1,SimpleHill,25-64,83,36,selected,24-57,26-54;18-62;23-60;23-51;23-54;18-55,23-60,1.48,83,-2,1042.49591914
GEMS202,2018_Mar_14_1224,George,SF,spatial_frequency,8,6,1,SimpleHill,25-64,83,37,selected,23-60,30-58;18-54;24-54;28-66;27-57;25-64,28-66,1.56,85,2,1047.69319969
GEMS202,2018_Mar_14_1224,George,SF,spatial_frequency,8,6,1,SimpleHill,25-64,83,38,selected,28-66,27-70;26-64;31-69;22-63;26-61;33-62,26-61,2.22,86,1,1053.47751092
GEMS202,2018_Mar_14_1224,George,SF,spatial_frequency,8,6,1,SimpleHill,25-64,83,39,selected,26-61,33-60;30-59;22-60;28-54;26-58;30-57,26-58,7.59,87,1,1064.62526928
GEMS202,2018_Mar_14_1224,George,SF,spatial_frequency,8,6,2,SimpleHill,11-35,65,0,selected,11-35,4-35;13-31;9-29;11-30;18-35;5-36,18-35,6.04,75,10,1092.51617205
GEMS202,2018_Mar_14_1224,George,SF,spatial_frequency,8,6,2,SimpleHill,11-35,65,1,selected,18-35,18-40;22-29;21-32;24-33;25-33;20-41,20-41,2.22,80,5,1098.28537234
GEMS202,2018_Mar_14_1224,George,SF,spatial_frequency,8,6,2,SimpleHill,11-35,65,2,selected,20-41,21-46;21-37;14-42;13-38;23-40;17-42,23-40,3.11,83,3,1104.98484937
GEMS202,2018_Mar_14_1224,George,SF,spatial_frequency,8,6,2,SimpleHill,11-35,65,3,selected,23-40,20-41;22-36;24-33;26-45;22-39;23-48,26-45,4.29,87,4,1112.84474347
GEMS202,2018_Mar_14_1224,George,SF,spatial_frequency,8,6,2,SimpleHill,11-35,65,4,selected,26-45,27-43;33-44;32-49;27-42;33-48;29-48,27-42,4.87,88,1,1121.29499529
GEMS202,2018_Mar_14_1224,George,SF,spatial_frequency,8,6,2,SimpleHill,11-35,65,5,selected,27-42,32-39;26-36;23-41;31-42;27-48;22-42,22-42,8.59,83,-5,1133.44673144
GEMS202,2018_Mar_14_1224,George,SF,spatial_frequency,8,6,2,SimpleHill,11-35,65,6,selected,22-42,26-45;20-39;23-42;16-37;22-36;24-40,23-42,4.69,84,1,1141.69018954
GEMS202,2018_Mar_14_1224,George,SF,spatial_frequency,8,6,2,SimpleHill,11-35,65,7,selected,23-42,24-47;23-35;24-46;18-43;23-40;28-40,24-46,5.59,86,2,1150.86481073
GEMS202,2018_Mar_14_1224,George,SF,spatial_frequency,8,6,2,SimpleHill,11-35,65,8,selected,24-46,25-39;26-47;24-50;24-48;18-50;25-40,26-47,6.14,88,2,1160.57030006
GEMS202,2018_Mar_14_1224,George,SF,spatial_frequency,8,6,2,SimpleHill,11-35,65,9,selected,26-47,22-47;28-46;19-49;23-48;21-53;33-44,28-46,6.44,90,2,1170.59592573
GEMS202,2018_Mar_14_1224,George,SF,spatial_frequency,8,6,2,SimpleHill,11-35,65,10,selected,28-46,31-47;29-53;26-49;27-40;31-51;26-46,29-53,1.92,91,1,1176.08534442
GEMS202,2018_Mar_14_1224,George,SF,spatial_frequency,8,6,2,SimpleHill,11-35,65,11,selected,29-53,25-58;29-58;29-53;30-47;22-51;31-53,22-51,1.95,84,-7,1181.60453655
GEMS202,2018_Mar_14_1224,George,SF,spatial_frequency,8,6,2,SimpleHill,11-35,65,12,selected,22-51,17-57;18-54;28-56;24-52;18-56;24-45,18-54,3.37,79,-5,1188.53854974
GEMS202,2018_Mar_14_1224,George,SF,spatial_frequency,8,6,2,SimpleHill,11-35,65,13,selected,18-54,19-49;26-54;17-56;13-58;22-50;13-59,19-49,2.2,80,1,1194.30471138
GEMS202,2018_Mar_14_1224,George,SF,spatial_frequency,8,6,2,SimpleHill,11-35,65,14,selected,19-49,15-49;21-52;24-46;17-51;19-50;19-44,17-51,1.78,78,-2,1199.6331314
GEMS202,2018_Mar_14_1224,George,SF,spatial_frequency,8,6,2,SimpleHill,11-35,65,15,selected,17-51,18-44;22-47;18-48;16-53;11-49;20-48,20-48,2.99,81,3,1206.17621013
GEMS202,2018_Mar_14_1224,George,SF,spatial_frequency,8,6,2,SimpleHill,11-35,65,16,selected,20-48,20-44;20-46;25-53;27-50;16-47;25-45,27-50,5.75,89,8,1215.50767999
GEMS202,2018_Mar_14_1224,George,SF,spatial_frequency,8,6,2,SimpleHill,11-35,65,17,selected,27-50,23-49;27-57;25-56;33-53;19-50;29-50,33-53,3.43,94,5,1222.49575589
GEMS202,2018_Mar_14_1224,George,SF,spatial_frequency,8,6,2,SimpleHill,11-35,65,18,selected,33-53,32-53;35-47;38-48;31-48;35-48;33-48,32-53,2.88,93,-1,1228.94915806
GEMS202,2018_Mar_14_1224,George,SF,spatial_frequency,8,6,2,SimpleHill,11-35,65,19,selected,32-53,31-55;39-54;27-54;37-54;31-56;39-52,31-56,4.15,92,-1,1236.64607659
GEMS202,2018_Mar_14_1224,George,SF,spatial_frequency,8,6,2,SimpleHill,11-35,65,20,selected,31-56,32-60;24-56;27-62;24-55;33-59;37-51,33-59,7.63,92,0,1247.86246413
GEMS202,2018_Mar_14_1224,George,SF,spatial_frequency,8,6,2,SimpleHill,11-35,65,21,selected,33-59,35-66;36-63;39-64;38-53;32-55;29-53,39-64,3.32,93,1,1254.72428422
GEMS202,2018_Mar_14_1224,George,SF,spatial_frequency,8,6,2,SimpleHill,11-35,65,22,selected,39-64,37-66;38-63;43-61;45-63;37-69;42-65,45-63,12.16,96,3,1270.45350076
GEMS202,2018_Mar_14_1224,George,SF,spatial_frequency,8,6,2,SimpleHill,11-35,65,23,selected,45-63,43-59;43-61;42-61;47-65;41-68;50-65,43-61,2.33,96,0,1276.37833945
GEMS202,2018_Mar_14_1224,George,SF,spatial_frequency,8,6,2,SimpleHill,11-35,65,24,selected,43-61,43-67;50-64;43-57;39-61;46-61;47-55,46-61,8.52,97,1,1288.48351682
GEMS202,2018_Mar_14_1224,George,SF,spatial_frequency,8,6,2,SimpleHill,11-35,65,25,selected,46-61,42-66;39-64;48-62;40-61;43-62;46-68,43-62,7.62,96,-1,1299.65959507
GEMS202,2018_Mar_14_1224,George,SF,spatial_frequency,8,6,2,SimpleHill,11-35,65,26,selected,43-62,44-67;48-57;44-66;37-58;49-58;48-58,49-58,3.65,98,2,1306.84317405
GEMS202,2018_Mar_14_1224,George,SF,spatial_frequency,8,6,2,SimpleHill,11-35,65,27,selected,49-58,52-51;51-51;46-51;49-65;55-60;51-55,55-60,19.88,97,-1,1330.28495878
GEMS202,2018_Mar_14_1224,George,SF,spatial_frequency,8,6,2,SimpleHill,11-35,65,28,selected,55-60,48-62;56-53;53-61;52-57;58-57;51-66,53-61,3.8,97,0,1337.65172111
GEMS202,2018_Mar_14_1224,George,SF,spatial_frequency,8,6,2,SimpleHill,11-35,65,29,selected,53-61,49-58;53-53;60-63;50-63;49-60;54-64,50-63,2.84,96,-1,1344.08279969
GEMS202,2018_Mar_14_1224,George,SF,spatial_frequency,8,6,2,SimpleHill,11-35,65,30,selected,50-63,51-58;43-60;46-57;49-67;53-70;50-66,49-67,3.47,94,-2,1351.10591199
GEMS202,2018_Mar_14_1224,George,SF,spatial_frequency,8,6,2,SimpleHill,11-35,65,31,selected,49-67,52-68;49-67;50-67;47-67;55-65;47-61,47-67,11.96,94,0,1366.62915008
GEMS202,2018_Mar_14_1224,George,SF,spatial_frequency,8,6,2,SimpleHill,11-35,65,32,selected,47-67,50-66;41-65;43-68;52-61;46-70;41-63,43-68,9.06,92,-2,1379.27684314
GEMS202,2018_Mar_14_1224,George,SF,spatial_frequency,8,6,2,SimpleHill,11-35,65,33,selected,43-68,43-66;37-66;41-68;41-66;48-66;48-63,41-68,11.16,91,-1,1398.07069954
GEMS202,2018_Mar_14_1224,George,SF,spatial_frequency,8,6,2,SimpleHill,11-35,65,34,selected,41-68,38-69;47-68;43-68;48-68;44-68;40-70,43-68,8.76,92,1,1410.39991306
GEMS202,2018_Mar_14_1224,George,SF,spatial_frequency,8,6,2,SimpleHill,11-35,65,35,selected,43-68,37-70;43-64;49-63;40-66;39-66;44-61,44-61,3.81,96,4,1417.75928957
GEMS202,2018_Mar_14_1224,George,SF,spatial_frequency,8,6,2,SimpleHill,11-35,65,36,selected,44-61,43-59;40-62;43-61;38-64;48-59;44-64,43-61,6.02,96,0,1427.35820113
GEMS202,2018_Mar_14_1224,George,SF,spatial_frequency,8,6,2,SimpleHill,11-35,65,37,selected,43-61,46-57;39-55;38-64;43-58;38-61;41-60,38-61,8.24,94,-2,1439.15011072
GEMS202,2018_Mar_14_1224,George,SF,spatial_frequency,8,6,2,SimpleHill,11-35,65,38,selected,38-61,44-60;40-61;39-59;44-66;42-67;42-59,40-61,5.94,95,1,1448.65304821
GEMS202,2018_Mar_14_1224,George,SF,spatial_frequency,8,6,2,SimpleHill,11-35,65,39,selected,40-61,35-64;39-55;39-66;42-55;40-65;44-61,44-61,15.34,96,1,1467.57196582
GEMS202,2018_Mar_14_1224,George,SF,spatial_frequency,8,6,3,SimpleHill,10-28,58,0,selected,10-28,11-21;11-33;7-33;4-28;9-25;9-35,9-35,3.31,61,3,1489.56767114
GEMS202,2018_Mar_14_1224,George,SF,spatial_frequency,8,6,3,SimpleHill,10-28,58,1,selected,9-35,13-36;7-35;12-37;4-34;2-33;16-32,7-35,3.97,58,-3,1497.09750923
GEMS202,2018_Mar_14_1224,George,SF,spatial_frequency,8,6,3,SimpleHill,10-28,58,2,selected,7-35,2-34;5-41;7-35;9-36;2-37;13-35,9-36,3.27,62,4,1503.93990546
GEMS202,2018_Mar_14_1224,George,SF,spatial_frequency,8,6,3,SimpleHill,10-28,58,3,selected,9-36,12-32;14-31;12-42;11-36;5-34;6-39,12-42,5.77,69,7,1513.24563025
GEMS202,2018_Mar_14_1224,George,SF,spatial_frequency,8,6,3,SimpleHill,10-28,58,4,selected,12-42,6-44;16-40;12-37;11-48;11-47;6-42,16-40,9.66,74,5,1526.47015103
GEMS202,2018_Mar_14_1224,George,SF,spatial_frequency,8,6,3,SimpleHill,10-28,58,5,selected,16-40,15-33;17-41;21-46;15-34;19-47;11-46,17-41,7.78,76,2,1537.81614318
GEMS202,2018_Mar_14_1224,George,SF,spatial_frequency,8,6,3,SimpleHill,10-28,58,6,selected,17-41,20-48;23-46;17-37;12-47;20-36;15-42,15-42,9.42,74,-2,1550.79687615
GEMS202,2018_Mar_14_1224,George,SF,spatial_frequency,8,6,3,SimpleHill,10-28,58,7,selected,15-42,22-40;9-38;21-41;12-39;14-42;16-48,14-42,2.83,72,-2,1557.20443943
GEMS202,2018_Mar_14_1224,George,SF,spatial_frequency,8,6,3,SimpleHill,10-28,58,8,selected,14-42,12-49;16-35;18-41;13-35;11-40;13-37,11-40,3.76,67,-5,1564.5354698
GEMS202,2018_Mar_14_1224,George,SF,spatial_frequency,8,6,3,SimpleHill,10-28,58,9,selected,11-40,13-39;13-35;7-38;15-40;14-37;15-42,7-38,1.06,60,-7,1569.17049135
GEMS202,2018_Mar_14_1224,George,SF,spatial_frequency,8,6,3,SimpleHill,10-28,58,10,selected,7-38,7-37;4-32;13-33;8-45;14-41;14-39,14-39,3.3,71,11,1576.04433861
GEMS202,2018_Mar_14_1224,George,SF,spatial_frequency,8,6,3,SimpleHill,10-28,58,11,selected,14-39,17-34;13-40;12-33;17-43;13-34;15-35,17-43,6.59,77,6,1586.1941286
GEMS202,2018_Mar_14_1224,George,SF,spatial_frequency,8,6,3,SimpleHill,10-28,58,12,selected,17-43,18-50;20-42;20-43;15-45;22-38;13-44,20-42,1.77,80,3,1591.54864898
GEMS202,2018_Mar_14_1224,George,SF,spatial_frequency,8,6,3,SimpleHill,10-28,58,13,selected,20-42,19-42;23-36;17-37;20-44;28-42;19-46,28-42,1.86,89,9,1596.97938026
GEMS202,2018_Mar_14_1224,George,SF,spatial_frequency,8,6,3,SimpleHill,10-28,58,14,selected,28-42,35-40;25-47;26-36;22-43;28-48;30-35,35-40,2.99,93,4,1603.53803183
GEMS202,2018_Mar_14_1224,George,SF,spatial_frequency,8,6,3,SimpleHill,10-28,58,15,selected,35-40,38-35;42-39;37-45;36-46;31-37;28-43,28-43,1.75,89,-4,1608.84792327
GEMS202,2018_Mar_14_1224,George,SF,spatial_frequency,8,6,3,SimpleHill,10-28,58,16,selected,28-43,29-48;25-40;25-50;26-38;28-46;30-38,25-40,1.63,85,-4,1614.06267193
GEMS202,2018_Mar_14_1224,George,SF,spatial_frequency,8,6,3,SimpleHill,10-28,58,17,selected,25-40,27-40;19-35;19-40;20-45;28-45;22-40,20-45,2.62,81,-4,1620.25023255
GEMS202,2018_Mar_14_1224,George,SF,spatial_frequency,8,6,3,SimpleHill,10-28,58,18,selected,20-45,27-43;18-42;25-40;20-41;25-51;20-49,27-43,0.1,88,7,1624.99118464
GEMS202,2018_Mar_14_1224,George,SF,spatial_frequency,8,6,3,SimpleHill,10-28,58,19,selected,27-43,24-36;32-46;22-47;30-38;33-47;32-49,24-36,3.68,82,-6,1632.23031189
GEMS202,2018_Mar_14_1224,George,SF,spatial_frequency,8,6,3,SimpleHill,10-28,58,20,selected,24-36,20-30;27-39;23-31;25-43;21-38;17-36,21-38,1.2,80,-2,1638.60952551
GEMS202,2018_Mar_14_1224,George,SF,spatial_frequency,8,6,3,SimpleHill,10-28,58,21,selected,21-38,19-34;26-34;23-36;28-40;21-37;16-36,28-40,1.29,88,8,1643.45823621
GEMS202,2018_Mar_14_1224,George,SF,spatial_frequency,8,6,3,SimpleHill,10-28,58,22,selected,28-40,23-45;23-35;29-43;25-33;32-45;27-34,32-45,4.35,93,5,1651.36208706
GEMS202,2018_Mar_14_1224,George,SF,spatial_frequency,8,6,3,SimpleHill,10-28,58,23,selected,32-45,36-49;36-47;30-46;36-48;38-47;39-47,36-48,4.01,96,3,1658.92457813
GEMS202,2018_Mar_14_1224,George,SF,spatial_frequency,8,6,3,SimpleHill,10-28,58,24,selected,36-48,37-54;38-42;36-50;31-42;37-52;43-51,36-50,10.25,96,0,1672.74563121
GEMS202,2018_Mar_14_1224,George,SF,spatial_frequency,8,6,3,SimpleHill,10-28,58,25,selected,36-50,40-47;42-49;44-50;34-44;31-45;37-57,44-50,3.77,99,3,1680.06403777
GEMS202,2018_Mar_14_1224,George,SF,spatial_frequency,8,6,3,SimpleHill,10-28,58,26,selected,44-50,41-53;49-50;47-44;42-56;40-53;44-48,44-48,2.24,99,0,1685.86692878
GEMS202,2018_Mar_14_1224,George,SF,spatial_frequency,8,6,3,SimpleHill,10-28,58,27,selected,44-48,46-48;45-43;46-43;45-44;49-50;41-47,49-50,4.35,99,0,1693.78278727
GEMS202,2018_Mar_14_1224,George,SF,spatial_frequency,8,6,3,SimpleHill,10-28,58,28,selected,49-50,51-53;55-48;56-49;48-57;43-54;51-50,51-53,5.16,99,0,1702.51452997
GEMS202,2018_Mar_14_1224,George,SF,spatial_frequency,8,6,3,SimpleHill,10-28,58,29,selected,51-53,56-53;45-54;49-50;56-59;58-51;53-59,58-51,5.46,98,-1,1711.56154072
GEMS202,2018_Mar_14_1224,George,SF,spatial_frequency,8,6,3,SimpleHill,10-28,58,30,selected,58-51,56-52;54-46;59-45;56-47;57-52;54-51,54-46,3.63,99,1,1718.75476858
GEMS202,2018_Mar_14_1224,George,SF,spatial_frequency,8,6,3,SimpleHill,10-28,58,31,selected,54-46,60-51;60-50;53-41;51-41;53-48;58-52,60-51,4.19,97,-2,1726.51823665
GEMS202,2018_Mar_14_1224,George,SF,spatial_frequency,8,6,3,SimpleHill,10-28,58,32,selected,60-51,62-56;55-45;57-53;65-49;58-57;64-51,64-51,6.09,96,-1,1736.17916554
GEMS202,2018_Mar_14_1224,George,SF,spatial_frequency,8,6,3,SimpleHill,10-28,58,33,selected,64-51,60-56;67-47;68-51;60-47;70-51;66-49,68-51,9.46,93,-3,1749.18365613
GEMS202,2018_Mar_14_1224,George,SF,spatial_frequency,8,6,3,SimpleHill,10-28,58,34,selected,68-51,62-54;67-53;70-49;65-44;67-58;65-55,67-58,5.64,92,-1,1758.39499132
GEMS202,2018_Mar_14_1224,George,SF,spatial_frequency,8,6,3,SimpleHill,10-28,58,35,selected,67-58,61-55;61-60;70-56;63-56;64-53;69-56,64-53,1.95,95,3,1763.90165341
GEMS202,2018_Mar_14_1224,George,SF,spatial_frequency,8,6,3,SimpleHill,10-28,58,36,selected,64-53,69-58;61-51;60-52;58-56;68-53;65-52,61-51,5.52,97,2,1772.96932071
GEMS202,2018_Mar_14_1224,George,SF,spatial_frequency,8,6,3,SimpleHill,10-28,58,37,selected,61-51,55-55;62-46;67-56;60-57;64-55;65-48,67-56,4.46,93,-4,1781.00425211
GEMS202,2018_Mar_14_1224,George,SF,spatial_frequency,8,6,3,SimpleHill,10-28,58,38,selected,67-56,69-62;64-51;64-53;64-59;60-58;62-60,60-58,13.16,96,3,1797.72876872
GEMS202,2018_Mar_14_1224,George,SF,spatial_frequency,8,6,3,SimpleHill,10-28,58,39,selected,60-58,59-58;59-65;56-61;64-61;58-57;64-52,58-57,7.74,97,1,1809.0134551
GEMS202,2018_Mar_14_1224,George,SF,spatial_frequency,8,6,4,SimpleHill,28-3,46,0,selected,28-3,33-0;28-0;25-10;30-2;31-5;22-3,22-3,16.02,40,-6,1837.03281911
GEMS202,2018_Mar_14_1224,George,SF,spatial_frequency,8,6,4,SimpleHill,28-3,46,1,selected,22-3,18-7;21-1;22-8;21-4;19-2;15-6,22-8,6.74,49,9,1847.32765179
GEMS202,2018_Mar_14_1224,George,SF,spatial_frequency,8,6,4,SimpleHill,28-3,46,2,selected,22-8,24-7;16-12;26-13;22-9;19-15;19-3,19-15,5.3,56,7,1856.19843385
GEMS202,2018_Mar_14_1224,George,SF,spatial_frequency,8,6,4,SimpleHill,28-3,46,3,selected,19-15,21-10;20-22;17-19;21-21;26-13;24-21,21-21,3.47,66,10,1863.21398172
GEMS202,2018_Mar_14_1224,George,SF,spatial_frequency,8,6,4,SimpleHill,28-3,46,4,selected,21-21,17-17;18-16;26-23;14-22;21-14;25-23,26-23,4.41,73,7,1871.19643519
GEMS202,2018_Mar_14_1224,George,SF,spatial_frequency,8,6,4,SimpleHill,28-3,46,5,selected,26-23,22-23;22-20;32-28;30-28;24-19;28-19,30-28,3.02,82,9,1877.78008568
GEMS202,2018_Mar_14_1224,George,SF,spatial_frequency,8,6,4,SimpleHill,28-3,46,6,selected,30-28,34-26;32-23;24-32;35-27;27-30;25-31,25-31,4.01,80,-2,1885.36311711
GEMS202,2018_Mar_14_1224,George,SF,spatial_frequency,8,6,4,SimpleHill,28-3,46,7,selected,25-31,24-33;19-29;19-36;22-28;24-34;32-29,24-33,4.02,80,0,1892.94273092
GEMS202,2018_Mar_14_1224,George,SF,spatial_frequency,8,6,4,SimpleHill,28-3,46,8,selected,24-33,29-37;28-32;27-28;24-30;22-27;21-35,27-28,4.76,79,-1,1901.26302666
GEMS202,2018_Mar_14_1224,George,SF,spatial_frequency,8,6,4,SimpleHill,28-3,46,9,selected,27-28,27-24;25-35;34-26;32-28;20-31;29-30,29-30,3.11,83,4,1907.9321925
GEMS202,2018_Mar_14_1224,George,SF,spatial_frequency,8,6,4,SimpleHill,28-3,46,10,selected,29-30,27-31;32-31;22-27;29-32;33-29;30-23,33-29,8.3,85,2,1919.7962062
GEMS202,2018_Mar_14_1224,George,SF,spatial_frequency,8,6,4,SimpleHill,28-3,46,11,selected,33-29,28-30;30-36;28-27;30-23;37-24;38-31,28-27,10.44,79,-6,1933.80663482
GEMS202,2018_Mar_14_1224,George,SF,spatial_frequency,8,6,4,SimpleHill,28-3,46,12,selected,28-27,29-27;35-26;22-24;33-28;27-28;29-34,27-28,5.48,79,0,1943.86469229
GEMS202,2018_Mar_14_1224,George,SF,spatial_frequency,8,6,4,SimpleHill,28-3,46,13,selected,27-28,31-33;25-25;31-25;32-30;28-33;31-31,28-33,5.89,84,5,1953.31603979
GEMS202,2018_Mar_14_1224,George,SF,spatial_frequency,8,6,4,SimpleHill,28-3,46,14,selected,28-33,23-33;33-27;24-30;28-37;36-33;30-27,30-27,4.0,81,-3,1960.86217604
GEMS202,2018_Mar_14_1224,George,SF,spatial_frequency,8,6,4,SimpleHill,28-3,46,15,selected,30-27,33-32;31-33;24-26;33-23;29-30;27-20,29-30,4.64,83,2,1969.06358099
GEMS202,2018_Mar_14_1224,George,SF,spatial_frequency,8,6,4,SimpleHill,28-3,46,16,selected,29-30,33-26;24-30;32-37;31-35;22-33;31-31,22-33,8.28,78,-5,1980.90438444
GEMS202,2018_Mar_14_1224,George,SF,spatial_frequency,8,6,4,SimpleHill,28-3,46,17,selected,22-33,17-36;18-33;27-29;22-26;19-32;25-31,25-31,0.69,80,2,1987.65002782
GEMS202,2018_Mar_14_1224,George,SF,spatial_frequency,8,6,4,SimpleHill,28-3,46,18,selected,25-31,26-35;27-29;23-31;22-31;21-37;30-25,21-37,6.23,79,-1,1997.42857033
GEMS202,2018_Mar_14_1224,George,SF,spatial_frequency,8,6,4,SimpleHill,28-3,46,19,selected,21-37,21-44;26-38;22-31;18-33;20-43;25-40,20-43,1.42,81,2,2002.41452306
GEMS202,2018_Mar_14_1224,George,SF,spatial_frequency,8,6,4,SimpleHill,28-3,46,20,selected,20-43,15-41;17-39;20-41;22-38;22-45;20-50,22-38,2.63,81,0,2008.60879794
GEMS202,2018_Mar_14_1224,George,SF,spatial_frequency,8,6,4,SimpleHill,28-3,46,21,selected,22-38,25-44;22-33;22-35;28-43;24-35;18-35,24-35,2.47,81,0,2014.62569148
GEMS202,2018_Mar_14_1224,George,SF,spatial_frequency,8,6,4,SimpleHill,28-3,46,22,selected,24-35,28-29;25-42;25-34;25-39;23-31;20-35,25-39,3.18,85,4,2021.35959225
GEMS202,2018_Mar_14_1224,George,SF,spatial_frequency,8,6,4,SimpleHill,28-3,46,23,selected,25-39,27-37;19-35;22-45;25-37;18-41;22-35,18-41,6.76,77,-8,2031.6781867
GEMS202,2018_Mar_14_1224,George,SF,spatial_frequency,8,6,4,SimpleHill,28-3,46,24,selected,18-41,14-41;14-40;18-38;19-43;17-39;18-39,19-43,4.0,79,2,2039.24320939
GEMS202,2018_Mar_14_1224,George,SF,spatial_frequency,8,6,4,SimpleHill,28-3,46,25,selected,19-43,19-41;14-45;16-42;22-46;15-45;19-46,22-46,5.0,84,5,2047.80978997
GEMS202,2018_Mar_14_1224,George,SF,spatial_frequency,8,6,4,SimpleHill,28-3,46,26,selected,22-46,26-40;28-44;24-52;20-41;17-47;24-39,17-47,6.06,78,-6,2057.41678868
GEMS202,2018_Mar_14_1224,George,SF,spatial_frequency,8,6,4,SimpleHill,28-3,46,27,selected,17-47,16-51;16-45;14-47;12-47;14-53;18-43,18-43,1.94,78,0,2062.9283341
GEMS202,2018_Mar_14_1224,George,SF,spatial_frequency,8,6,4,SimpleHill,28-3,46,28,selected,18-43,15-44;24-45;14-37;16-46;19-49;12-46,15-44,4.6,74,-4,2071.09830402
GEMS202,2018_Mar_14_1224,George,SF,spatial_frequency,8,6,4,SimpleHill,28-3,46,29,selected,15-44,15-47;16-47;13-51;15-39;12-37;22-44,12-37,0.24,67,-7,2075.006213
GEMS202,2018_Mar_14_1224,George,SF,spatial_frequency,8,6,4,SimpleHill,28-3,46,30,selected,12-37,16-40;11-44;15-32;6-39;13-34;16-42,16-42,1.7,75,8,2080.24899603
GEMS202,2018_Mar_14_1224,George,SF,spatial_frequency,8,6,4,SimpleHill,28-3,46,31,selected,16-42,18-39;16-41;11-42;22-47;20-36;18-35,11-42,4.22,68,-7,2088.00497456
GEMS202,2018_Mar_14_1224,George,SF,spatial_frequency,8,6,4,SimpleHill,28-3,46,32,selected,11-42,16-37;9-38;4-42;13-42;14-45;17-43,14-45,2.12,73,5,2093.69471437
GEMS202,2018_Mar_14_1224,George,SF,spatial_frequency,8,6,4,SimpleHill,28-3,46,33,selected,14-45,13-49;14-46;17-52;21-43;19-39;8-49,21-43,0.96,82,9,2098.2166929
GEMS202,2018_Mar_14_1224,George,SF,spatial_frequency,8,6,4,SimpleHill,28-3,46,34,selected,21-43,22-50;26-49;27-41;24-45;20-43;25-41,25-41,3.78,85,3,2105.55426853
GEMS202,2018_Mar_14_1224,George,SF,spatial_frequency,8,6,4,SimpleHill,28-3,46,35,selected,25-41,20-35;19-44;30-43;29-38;29-40;19-40,30-43,2.84,91,6,2111.96173579
GEMS202,2018_Mar_14_1224,George,SF,spatial_frequency,8,6,4,SimpleHill,28-3,46,36,selected,30-43,28-36;25-38;32-37;36-38;27-46;33-47,25-38,19.61,84,-7,2135.10927744
GEMS202,2018_Mar_14_1224,George,SF,spatial_frequency,8,6,4,SimpleHill,28-3,46,37,selected,25-38,22-45;23-37;23-40;19-40;25-33;21-44,21-44,2.41,82,-2,2141.07700152
GEMS202,2018_Mar_14_1224,George,SF,spatial_frequency,8,6,4,SimpleHill,28-3,46,38,selected,21-44,17-47;25-39;23-37;22-40;20-47;18-40,22-40,2.28,82,0,2146.9223919
GEMS202,2018_Mar_14_1224,George,SF,spatial_frequency,8,6,4,SimpleHill,28-3,46,39,selected,22-40,23-40;25-34;20-37;28-36;23-37;26-43,28-36,2.84,86,4,2153.33912936
