subj_id,date,computer,experimenter,instructions,sight_radius,n_gabors,start_pos_list_ix,start_pos_list,landscape_ix,landscape_name,starting_pos,starting_score,trial,feedback,pos,stims,selected,rt,score,delta,exp_time
GEMS135,2018_Apr_24_1548,Elaine,GH,orientation,8,6,0,0-0;0-0;0-0;0-0,0,OrientationBias,0-0,0,0,training,0-0,3-3;3-1;5-6;1-1;3-6;1-2,3-3,16.01,11,11,199.005234486
GEMS135,2018_Apr_24_1548,Elaine,GH,orientation,8,6,0,0-0;0-0;0-0;0-0,0,OrientationBias,0-0,0,1,training,3-3,5-3;0-9;10-4;3-8;4-3;9-1,0-9,8.19,0,-11,212.326180848
GEMS135,2018_Apr_24_1548,Elaine,GH,orientation,8,6,0,0-0;0-0;0-0;0-0,0,OrientationBias,0-0,0,2,training,0-9,1-2;4-8;3-6;2-6;3-14;4-10,3-14,12.31,11,11,236.249743205
GEMS135,2018_Apr_24_1548,Elaine,GH,orientation,8,6,0,0-0;0-0;0-0;0-0,0,OrientationBias,0-0,0,3,training,3-14,3-18;1-16;9-13;2-11;8-15;0-7,1-16,4.87,3,-8,249.785181536
GEMS135,2018_Apr_24_1548,Elaine,GH,orientation,8,6,0,0-0;0-0;0-0;0-0,0,OrientationBias,0-0,0,4,training,1-16,7-12;3-20;1-16;2-23;1-19;1-13,1-16,1.58,3,0,254.446551298
GEMS135,2018_Apr_24_1548,Elaine,GH,orientation,8,6,0,0-0;0-0;0-0;0-0,0,OrientationBias,0-0,0,5,training,1-16,3-23;7-14;0-17;1-18;3-21;2-17,7-14,6.08,26,23,264.436428348
GEMS135,2018_Apr_24_1548,Elaine,GH,orientation,8,6,0,0-0;0-0;0-0;0-0,0,OrientationBias,0-0,0,6,training,7-14,7-17;7-8;5-18;4-7;3-15;8-16,7-17,4.33,26,0,272.705986609
GEMS135,2018_Apr_24_1548,Elaine,GH,orientation,8,6,0,0-0;0-0;0-0;0-0,0,OrientationBias,0-0,0,7,training,7-17,13-15;5-16;7-21;7-12;6-14;12-16,12-16,5.06,42,16,282.921452302
GEMS135,2018_Apr_24_1548,Elaine,GH,orientation,8,6,0,0-0;0-0;0-0;0-0,0,OrientationBias,0-0,0,8,training,12-16,16-18;12-16;13-12;7-21;19-13;16-10,16-18,7.49,53,11,294.035141124
GEMS135,2018_Apr_24_1548,Elaine,GH,orientation,8,6,0,0-0;0-0;0-0;0-0,0,OrientationBias,0-0,0,9,training,16-18,15-12;16-21;15-21;14-18;18-21;14-13,14-13,3.83,48,-5,303.186741799
GEMS135,2018_Apr_24_1548,Elaine,GH,orientation,8,6,0,0-0;0-0;0-0;0-0,0,OrientationBias,0-0,0,10,training,14-13,20-14;13-15;13-9;17-7;11-10;16-8,16-8,6.46,53,5,313.529003815
GEMS135,2018_Apr_24_1548,Elaine,GH,orientation,8,6,0,0-0;0-0;0-0;0-0,0,OrientationBias,0-0,0,11,training,16-8,18-10;15-9;15-6;19-4;22-8;11-5,22-8,7.27,68,15,324.34261956
GEMS135,2018_Apr_24_1548,Elaine,GH,orientation,8,6,0,0-0;0-0;0-0;0-0,0,OrientationBias,0-0,0,12,training,22-8,21-13;14-8;16-9;16-12;18-5;20-13,20-13,6.71,64,-4,334.635639382
GEMS135,2018_Apr_24_1548,Elaine,GH,orientation,8,6,0,0-0;0-0;0-0;0-0,0,OrientationBias,0-0,0,13,training,20-13,26-14;14-18;25-7;14-10;16-12;19-10,26-14,4.63,76,12,344.764926671
GEMS135,2018_Apr_24_1548,Elaine,GH,orientation,8,6,0,0-0;0-0;0-0;0-0,0,OrientationBias,0-0,0,14,training,26-14,28-15;28-13;26-18;32-12;28-9;20-17,28-9,2.18,80,4,349.987715459
GEMS135,2018_Apr_24_1548,Elaine,GH,orientation,8,6,0,0-0;0-0;0-0;0-0,0,OrientationBias,0-0,0,15,training,28-9,27-9;35-8;33-3;22-8;31-12;27-10,31-12,3.45,85,5,359.055041326
GEMS135,2018_Apr_24_1548,Elaine,GH,orientation,8,6,0,0-0;0-0;0-0;0-0,0,OrientationBias,0-0,0,16,training,31-12,26-16;34-13;28-8;24-14;33-16;28-7,34-13,2.93,89,4,365.482005154
GEMS135,2018_Apr_24_1548,Elaine,GH,orientation,8,6,0,0-0;0-0;0-0;0-0,0,OrientationBias,0-0,0,17,training,34-13,37-15;34-11;39-14;35-7;30-13;28-16,34-11,8.65,89,0,377.394668334
GEMS135,2018_Apr_24_1548,Elaine,GH,orientation,8,6,0,0-0;0-0;0-0;0-0,0,OrientationBias,0-0,0,18,training,34-11,33-9;40-15;31-8;37-5;33-18;33-8,37-5,5.29,93,4,386.323977326
GEMS135,2018_Apr_24_1548,Elaine,GH,orientation,8,6,0,0-0;0-0;0-0;0-0,0,OrientationBias,0-0,0,19,training,37-5,33-9;34-11;38-6;36-0;30-8;37-3,34-11,2.43,89,-4,392.22468406
GEMS135,2018_Apr_24_1548,Elaine,GH,orientation,8,6,0,0-0;0-0;0-0;0-0,0,OrientationBias,0-0,0,20,training,34-11,27-13;39-11;28-7;33-7;34-13;31-13,27-13,1.58,78,-11,397.545935151
GEMS135,2018_Apr_24_1548,Elaine,GH,orientation,8,6,0,0-0;0-0;0-0;0-0,0,OrientationBias,0-0,0,21,training,27-13,32-11;23-7;29-12;25-17;27-19;24-12,25-17,3.62,75,-3,404.762527892
GEMS135,2018_Apr_24_1548,Elaine,GH,orientation,8,6,0,0-0;0-0;0-0;0-0,0,OrientationBias,0-0,0,22,training,25-17,29-20;24-15;31-22;27-17;28-15;30-22,31-22,1.23,85,10,408.936054318
GEMS135,2018_Apr_24_1548,Elaine,GH,orientation,8,6,0,0-0;0-0;0-0;0-0,0,OrientationBias,0-0,0,23,training,31-22,30-22;34-27;31-30;29-17;28-26;30-16,34-27,1.11,89,4,414.263836914
GEMS135,2018_Apr_24_1548,Elaine,GH,orientation,8,6,0,0-0;0-0;0-0;0-0,0,OrientationBias,0-0,0,24,training,34-27,27-26;31-26;31-33;38-27;37-32;29-27,37-32,2.59,93,4,419.674983331
GEMS135,2018_Apr_24_1548,Elaine,GH,orientation,8,6,0,0-0;0-0;0-0;0-0,0,OrientationBias,0-0,0,25,training,37-32,35-28;32-32;42-31;38-28;43-36;33-27,35-28,2.25,91,-2,425.250837924
GEMS135,2018_Apr_24_1548,Elaine,GH,orientation,8,6,0,0-0;0-0;0-0;0-0,0,OrientationBias,0-0,0,26,training,35-28,37-22;32-24;33-23;30-30;32-26;38-24,30-30,5.58,84,-7,434.777082215
GEMS135,2018_Apr_24_1548,Elaine,GH,orientation,8,6,0,0-0;0-0;0-0;0-0,0,OrientationBias,0-0,0,27,training,30-30,34-29;32-34;37-32;28-32;34-33;36-28,34-33,5.21,89,5,443.619448101
GEMS135,2018_Apr_24_1548,Elaine,GH,orientation,8,6,0,0-0;0-0;0-0;0-0,0,OrientationBias,0-0,0,28,training,34-33,34-30;31-32;35-26;31-39;35-34;39-31,39-31,7.48,95,6,457.660540721
GEMS135,2018_Apr_24_1548,Elaine,GH,orientation,8,6,0,0-0;0-0;0-0;0-0,0,OrientationBias,0-0,0,29,training,39-31,33-32;38-26;33-26;40-35;40-30;42-28,33-32,6.38,88,-7,467.608855573
GEMS135,2018_Apr_24_1548,Elaine,GH,orientation,8,6,0,0-0;0-0;0-0;0-0,1,SimpleHill,0-0,0,0,selected,0-0,0-1;1-6;2-1;1-3;7-1;8-0,8-0,6.29,14,14,508.383346953
GEMS135,2018_Apr_24_1548,Elaine,GH,orientation,8,6,0,0-0;0-0;0-0;0-0,1,SimpleHill,0-0,0,1,selected,8-0,10-0;7-3;3-5;12-5;9-1;14-2,14-2,2.43,28,14,514.372967927
GEMS135,2018_Apr_24_1548,Elaine,GH,orientation,8,6,0,0-0;0-0;0-0;0-0,1,SimpleHill,0-0,0,2,selected,14-2,15-6;13-1;15-2;20-4;16-4;18-0,15-2,7.96,29,1,525.900553089
GEMS135,2018_Apr_24_1548,Elaine,GH,orientation,8,6,0,0-0;0-0;0-0;0-0,1,SimpleHill,0-0,0,3,selected,15-2,20-0;9-3;19-2;14-1;12-4;10-4,20-0,1.96,32,3,531.430763336
GEMS135,2018_Apr_24_1548,Elaine,GH,orientation,8,6,0,0-0;0-0;0-0;0-0,1,SimpleHill,0-0,0,4,selected,20-0,23-7;21-0;16-1;14-4;24-0;17-2,24-0,4.04,36,4,539.046255725
GEMS135,2018_Apr_24_1548,Elaine,GH,orientation,8,6,0,0-0;0-0;0-0;0-0,1,SimpleHill,0-0,0,5,selected,24-0,19-4;24-2;25-7;31-1;21-0;16-0,25-7,4.91,50,14,547.529995144
GEMS135,2018_Apr_24_1548,Elaine,GH,orientation,8,6,0,0-0;0-0;0-0;0-0,1,SimpleHill,0-0,0,6,selected,25-7,25-14;27-10;20-11;19-5;20-7;20-10,20-10,4.16,50,0,555.251206992
GEMS135,2018_Apr_24_1548,Elaine,GH,orientation,8,6,0,0-0;0-0;0-0;0-0,1,SimpleHill,0-0,0,7,selected,20-10,17-10;19-17;21-3;20-14;24-4;20-5,19-17,1.38,59,9,560.21178494
GEMS135,2018_Apr_24_1548,Elaine,GH,orientation,8,6,0,0-0;0-0;0-0;0-0,1,SimpleHill,0-0,0,8,selected,19-17,22-14;19-17;19-12;16-23;12-20;17-10,22-14,2.68,58,-1,566.445632311
GEMS135,2018_Apr_24_1548,Elaine,GH,orientation,8,6,0,0-0;0-0;0-0;0-0,1,SimpleHill,0-0,0,9,selected,22-14,19-18;27-12;26-20;28-11;22-18;24-17,19-18,1.22,60,2,571.242821507
GEMS135,2018_Apr_24_1548,Elaine,GH,orientation,8,6,0,0-0;0-0;0-0;0-0,1,SimpleHill,0-0,0,10,selected,19-18,21-13;18-11;17-21;14-14;21-22;22-24,22-24,3.81,70,10,578.631394944
GEMS135,2018_Apr_24_1548,Elaine,GH,orientation,8,6,0,0-0;0-0;0-0;0-0,1,SimpleHill,0-0,0,11,selected,22-24,19-25;17-19;18-19;19-26;28-28;18-30,19-25,3.41,68,-2,585.618109151
GEMS135,2018_Apr_24_1548,Elaine,GH,orientation,8,6,0,0-0;0-0;0-0;0-0,1,SimpleHill,0-0,0,12,selected,19-25,17-20;16-21;17-27;15-19;15-25;25-30,17-27,26.98,67,-1,616.174503991
GEMS135,2018_Apr_24_1548,Elaine,GH,orientation,8,6,0,0-0;0-0;0-0;0-0,1,SimpleHill,0-0,0,13,selected,17-27,18-29;13-33;10-25;19-28;12-31;22-30,13-33,13.58,66,-1,633.33078283
GEMS135,2018_Apr_24_1548,Elaine,GH,orientation,8,6,0,0-0;0-0;0-0;0-0,1,SimpleHill,0-0,0,14,selected,13-33,11-39;8-28;12-33;7-28;19-30;11-38,19-30,9.24,72,6,646.131696952
GEMS135,2018_Apr_24_1548,Elaine,GH,orientation,8,6,0,0-0;0-0;0-0;0-0,1,SimpleHill,0-0,0,15,selected,19-30,20-25;18-29;17-24;20-31;21-34;19-32,18-29,11.78,70,-2,661.476325738
GEMS135,2018_Apr_24_1548,Elaine,GH,orientation,8,6,0,0-0;0-0;0-0;0-0,1,SimpleHill,0-0,0,16,selected,18-29,21-30;26-29;18-31;13-34;16-32;18-26,18-31,3.3,72,2,668.348295455
GEMS135,2018_Apr_24_1548,Elaine,GH,orientation,8,6,0,0-0;0-0;0-0;0-0,1,SimpleHill,0-0,0,17,selected,18-31,21-30;11-34;16-35;24-33;16-37;17-29,21-30,1.87,75,3,673.773248777
GEMS135,2018_Apr_24_1548,Elaine,GH,orientation,8,6,0,0-0;0-0;0-0;0-0,1,SimpleHill,0-0,0,18,selected,21-30,26-32;16-27;23-29;22-23;28-32;17-28,26-32,2.25,82,7,679.59978573
GEMS135,2018_Apr_24_1548,Elaine,GH,orientation,8,6,0,0-0;0-0;0-0;0-0,1,SimpleHill,0-0,0,19,selected,26-32,32-35;20-34;23-34;28-34;24-35;27-33,32-35,1.31,89,7,684.490262921
GEMS135,2018_Apr_24_1548,Elaine,GH,orientation,8,6,0,0-0;0-0;0-0;0-0,1,SimpleHill,0-0,0,20,selected,32-35,31-39;34-37;32-29;35-42;33-41;34-38,31-39,2.0,90,1,690.064829139
GEMS135,2018_Apr_24_1548,Elaine,GH,orientation,8,6,0,0-0;0-0;0-0;0-0,1,SimpleHill,0-0,0,21,selected,31-39,23-39;27-41;34-38;37-40;35-38;34-42,37-40,1.94,94,4,695.556471022
GEMS135,2018_Apr_24_1548,Elaine,GH,orientation,8,6,0,0-0;0-0;0-0;0-0,1,SimpleHill,0-0,0,22,selected,37-40,37-33;37-34;36-43;34-35;34-43;37-46,37-33,3.4,90,-4,702.528518874
GEMS135,2018_Apr_24_1548,Elaine,GH,orientation,8,6,0,0-0;0-0;0-0;0-0,1,SimpleHill,0-0,0,23,selected,37-33,30-33;41-34;37-32;40-29;31-38;44-31,41-34,1.41,93,3,707.508474631
GEMS135,2018_Apr_24_1548,Elaine,GH,orientation,8,6,0,0-0;0-0;0-0;0-0,1,SimpleHill,0-0,0,24,selected,41-34,40-38;42-36;42-32;35-29;39-36;44-39,42-32,3.28,92,-1,714.362157096
GEMS135,2018_Apr_24_1548,Elaine,GH,orientation,8,6,0,0-0;0-0;0-0;0-0,1,SimpleHill,0-0,0,25,selected,42-32,43-26;36-32;37-29;46-27;46-37;43-28,46-27,4.22,89,-3,722.148801779
GEMS135,2018_Apr_24_1548,Elaine,GH,orientation,8,6,0,0-0;0-0;0-0;0-0,1,SimpleHill,0-0,0,26,selected,46-27,42-28;48-28;46-28;43-21;42-22;48-26,48-28,2.16,90,1,727.891164432
GEMS135,2018_Apr_24_1548,Elaine,GH,orientation,8,6,0,0-0;0-0;0-0;0-0,1,SimpleHill,0-0,0,27,selected,48-28,46-29;48-27;44-29;43-27;47-34;47-26,46-29,0.75,90,0,732.218825712
GEMS135,2018_Apr_24_1548,Elaine,GH,orientation,8,6,0,0-0;0-0;0-0;0-0,1,SimpleHill,0-0,0,28,selected,46-29,46-35;50-26;45-35;53-31;47-31;41-29,47-31,2.42,92,2,738.218024838
GEMS135,2018_Apr_24_1548,Elaine,GH,orientation,8,6,0,0-0;0-0;0-0;0-0,1,SimpleHill,0-0,0,29,selected,47-31,48-25;44-32;45-29;48-36;49-25;41-29,48-36,3.59,96,4,745.362730383
GEMS135,2018_Apr_24_1548,Elaine,GH,orientation,8,6,0,0-0;0-0;0-0;0-0,1,SimpleHill,0-0,0,30,selected,48-36,50-38;52-40;50-33;53-41;54-35;42-36,52-40,1.89,97,1,750.818934096
GEMS135,2018_Apr_24_1548,Elaine,GH,orientation,8,6,0,0-0;0-0;0-0;0-0,1,SimpleHill,0-0,0,31,selected,52-40,55-35;58-40;49-42;59-42;55-46;58-45,59-42,3.71,97,0,758.089210006
GEMS135,2018_Apr_24_1548,Elaine,GH,orientation,8,6,0,0-0;0-0;0-0;0-0,1,SimpleHill,0-0,0,32,selected,59-42,59-35;63-46;60-48;58-44;55-45;63-48,60-48,2.27,97,0,763.935986779
GEMS135,2018_Apr_24_1548,Elaine,GH,orientation,8,6,0,0-0;0-0;0-0;0-0,1,SimpleHill,0-0,0,33,selected,60-48,59-51;57-51;60-40;65-48;59-54;64-47,65-48,3.29,95,-2,770.799521717
GEMS135,2018_Apr_24_1548,Elaine,GH,orientation,8,6,0,0-0;0-0;0-0;0-0,1,SimpleHill,0-0,0,34,selected,65-48,69-45;64-44;66-42;59-48;70-48;59-51,59-48,6.48,98,3,780.828321792
GEMS135,2018_Apr_24_1548,Elaine,GH,orientation,8,6,0,0-0;0-0;0-0;0-0,1,SimpleHill,0-0,0,35,selected,59-48,62-47;62-49;65-48;56-52;58-51;55-47,62-49,8.38,97,-1,792.775034258
GEMS135,2018_Apr_24_1548,Elaine,GH,orientation,8,6,0,0-0;0-0;0-0;0-0,1,SimpleHill,0-0,0,36,selected,62-49,62-51;69-47;59-50;62-46;55-52;67-52,59-50,2.44,98,1,798.793586226
GEMS135,2018_Apr_24_1548,Elaine,GH,orientation,8,6,0,0-0;0-0;0-0;0-0,1,SimpleHill,0-0,0,37,selected,59-50,63-44;54-56;53-49;52-53;60-48;65-51,60-48,4.27,97,-1,806.652484612
GEMS135,2018_Apr_24_1548,Elaine,GH,orientation,8,6,0,0-0;0-0;0-0;0-0,1,SimpleHill,0-0,0,38,selected,60-48,68-48;57-50;57-55;62-54;66-43;56-42,68-48,0.5,93,-4,810.723613828
GEMS135,2018_Apr_24_1548,Elaine,GH,orientation,8,6,0,0-0;0-0;0-0;0-0,1,SimpleHill,0-0,0,39,selected,68-48,69-51;69-53;70-50;64-54;66-54;69-50,66-54,1.91,94,1,816.216131167
GEMS135,2018_Apr_24_1548,Elaine,GH,orientation,8,6,0,0-0;0-0;0-0;0-0,2,SimpleHill,0-0,0,0,selected,0-0,1-0;1-4;2-4;0-1;1-5;6-2,2-4,6.99,11,11,839.095492798
GEMS135,2018_Apr_24_1548,Elaine,GH,orientation,8,6,0,0-0;0-0;0-0;0-0,2,SimpleHill,0-0,0,1,selected,2-4,4-6;2-11;3-6;1-3;4-8;5-4,2-11,5.25,23,12,847.92079387
GEMS135,2018_Apr_24_1548,Elaine,GH,orientation,8,6,0,0-0;0-0;0-0;0-0,2,SimpleHill,0-0,0,2,selected,2-11,1-10;2-5;4-10;7-13;10-11;4-15,2-5,13.14,13,-10,864.622362871
GEMS135,2018_Apr_24_1548,Elaine,GH,orientation,8,6,0,0-0;0-0;0-0;0-0,2,SimpleHill,0-0,0,3,selected,2-5,7-5;7-7;0-6;9-4;8-8;3-8,3-8,0.34,20,7,868.538498103
GEMS135,2018_Apr_24_1548,Elaine,GH,orientation,8,6,0,0-0;0-0;0-0;0-0,2,SimpleHill,0-0,0,4,selected,3-8,1-8;5-12;2-9;2-3;5-8;7-7,5-12,1.79,30,10,873.892944791
GEMS135,2018_Apr_24_1548,Elaine,GH,orientation,8,6,0,0-0;0-0;0-0;0-0,2,SimpleHill,0-0,0,5,selected,5-12,6-19;11-9;8-19;10-10;2-7;7-15,6-19,1.89,42,12,879.359654607
GEMS135,2018_Apr_24_1548,Elaine,GH,orientation,8,6,0,0-0;0-0;0-0;0-0,2,SimpleHill,0-0,0,6,selected,6-19,5-22;2-25;9-13;8-15;6-16;3-13,8-15,2.75,40,-2,885.674425088
GEMS135,2018_Apr_24_1548,Elaine,GH,orientation,8,6,0,0-0;0-0;0-0;0-0,2,SimpleHill,0-0,0,7,selected,8-15,6-19;2-16;6-8;2-19;8-14;6-22,6-19,1.39,42,2,890.647600949
GEMS135,2018_Apr_24_1548,Elaine,GH,orientation,8,6,0,0-0;0-0;0-0;0-0,2,SimpleHill,0-0,0,8,selected,6-19,11-23;11-19;3-22;2-14;10-21;2-18,3-22,1.83,40,-2,896.045088664
GEMS135,2018_Apr_24_1548,Elaine,GH,orientation,8,6,0,0-0;0-0;0-0;0-0,2,SimpleHill,0-0,0,9,selected,3-22,6-15;0-27;0-19;2-19;0-17;4-29,4-29,5.12,48,8,904.748240207
GEMS135,2018_Apr_24_1548,Elaine,GH,orientation,8,6,0,0-0;0-0;0-0;0-0,2,SimpleHill,0-0,0,10,selected,4-29,8-30;0-32;8-26;3-36;1-32;7-26,8-30,2.85,56,8,911.160428848
GEMS135,2018_Apr_24_1548,Elaine,GH,orientation,8,6,0,0-0;0-0;0-0;0-0,2,SimpleHill,0-0,0,11,selected,8-30,4-28;5-35;14-34;3-35;11-28;6-32,4-28,1.8,48,-8,916.533073482
GEMS135,2018_Apr_24_1548,Elaine,GH,orientation,8,6,0,0-0;0-0;0-0;0-0,2,SimpleHill,0-0,0,12,selected,4-28,1-26;7-32;3-25;5-33;0-22;1-23,5-33,2.35,53,5,922.445138727
GEMS135,2018_Apr_24_1548,Elaine,GH,orientation,8,6,0,0-0;0-0;0-0;0-0,2,SimpleHill,0-0,0,13,selected,5-33,4-26;6-36;2-38;10-27;8-26;8-39,8-26,1.36,53,0,927.382318814
GEMS135,2018_Apr_24_1548,Elaine,GH,orientation,8,6,0,0-0;0-0;0-0;0-0,2,SimpleHill,0-0,0,14,selected,8-26,1-27;1-28;13-25;14-24;13-24;4-29,13-25,5.01,60,7,935.959348149
GEMS135,2018_Apr_24_1548,Elaine,GH,orientation,8,6,0,0-0;0-0;0-0;0-0,2,SimpleHill,0-0,0,15,selected,13-25,12-32;15-29;11-30;10-20;17-24;13-21,15-29,18.86,66,6,958.396352665
GEMS135,2018_Apr_24_1548,Elaine,GH,orientation,8,6,0,0-0;0-0;0-0;0-0,2,SimpleHill,0-0,0,16,selected,15-29,12-35;11-29;9-32;10-32;17-36;20-24,20-24,4.54,68,2,966.521647751
GEMS135,2018_Apr_24_1548,Elaine,GH,orientation,8,6,0,0-0;0-0;0-0;0-0,2,SimpleHill,0-0,0,17,selected,20-24,20-22;21-27;24-26;23-20;20-18;26-21,24-26,2.66,74,6,972.769674936
GEMS135,2018_Apr_24_1548,Elaine,GH,orientation,8,6,0,0-0;0-0;0-0;0-0,2,SimpleHill,0-0,0,18,selected,24-26,26-33;22-30;19-28;28-21;24-32;30-31,26-33,2.74,82,8,979.0985881
GEMS135,2018_Apr_24_1548,Elaine,GH,orientation,8,6,0,0-0;0-0;0-0;0-0,2,SimpleHill,0-0,0,19,selected,26-33,31-34;24-37;24-35;27-27;22-28;29-38,22-28,1.58,74,-8,984.24437396
GEMS135,2018_Apr_24_1548,Elaine,GH,orientation,8,6,0,0-0;0-0;0-0;0-0,2,SimpleHill,0-0,0,20,selected,22-28,24-33;16-26;15-26;20-34;29-25;22-28,24-33,1.1,80,6,988.907572415
GEMS135,2018_Apr_24_1548,Elaine,GH,orientation,8,6,0,0-0;0-0;0-0;0-0,2,SimpleHill,0-0,0,21,selected,24-33,31-35;29-35;22-27;21-29;26-35;24-37,24-37,2.69,83,3,995.170258274
GEMS135,2018_Apr_24_1548,Elaine,GH,orientation,8,6,0,0-0;0-0;0-0;0-0,2,SimpleHill,0-0,0,22,selected,24-37,22-31;24-35;21-34;27-43;24-45;27-40,22-31,6.97,77,-6,1005.68470104
GEMS135,2018_Apr_24_1548,Elaine,GH,orientation,8,6,0,0-0;0-0;0-0;0-0,2,SimpleHill,0-0,0,23,selected,22-31,20-38;23-33;24-34;16-34;29-30;25-34,29-30,3.34,83,6,1012.59693178
GEMS135,2018_Apr_24_1548,Elaine,GH,orientation,8,6,0,0-0;0-0;0-0;0-0,2,SimpleHill,0-0,0,24,selected,29-30,33-24;35-34;26-33;24-30;25-31;22-32,35-34,4.1,90,7,1020.26578116
GEMS135,2018_Apr_24_1548,Elaine,GH,orientation,8,6,0,0-0;0-0;0-0;0-0,2,SimpleHill,0-0,0,25,selected,35-34,35-42;29-29;41-36;41-37;32-32;37-39,41-36,1.4,94,4,1025.24470494
GEMS135,2018_Apr_24_1548,Elaine,GH,orientation,8,6,0,0-0;0-0;0-0;0-0,2,SimpleHill,0-0,0,26,selected,41-36,42-39;39-41;46-41;41-33;43-29;44-37,42-39,2.28,96,2,1031.08580101
GEMS135,2018_Apr_24_1548,Elaine,GH,orientation,8,6,0,0-0;0-0;0-0;0-0,2,SimpleHill,0-0,0,27,selected,42-39,47-34;41-45;44-38;37-37;36-40;46-45,44-38,3.1,96,0,1037.74430914
GEMS135,2018_Apr_24_1548,Elaine,GH,orientation,8,6,0,0-0;0-0;0-0;0-0,2,SimpleHill,0-0,0,28,selected,44-38,47-41;44-33;50-41;48-39;46-40;42-31,44-33,0.69,93,-3,1042.00392979
GEMS135,2018_Apr_24_1548,Elaine,GH,orientation,8,6,0,0-0;0-0;0-0;0-0,2,SimpleHill,0-0,0,29,selected,44-33,50-29;42-33;46-37;48-35;41-40;39-33,42-33,2.02,92,-1,1047.59579545
GEMS135,2018_Apr_24_1548,Elaine,GH,orientation,8,6,0,0-0;0-0;0-0;0-0,2,SimpleHill,0-0,0,30,selected,42-33,48-32;43-37;43-29;41-33;36-35;39-34,41-33,0.93,92,0,1052.10609301
GEMS135,2018_Apr_24_1548,Elaine,GH,orientation,8,6,0,0-0;0-0;0-0;0-0,2,SimpleHill,0-0,0,31,selected,41-33,45-30;37-34;46-28;41-27;41-41;36-38,46-28,1.88,90,-2,1057.57830427
GEMS135,2018_Apr_24_1548,Elaine,GH,orientation,8,6,0,0-0;0-0;0-0;0-0,2,SimpleHill,0-0,0,32,selected,46-28,48-29;47-26;51-30;52-27;48-34;48-30,52-27,1.22,89,-1,1062.36814156
GEMS135,2018_Apr_24_1548,Elaine,GH,orientation,8,6,0,0-0;0-0;0-0;0-0,2,SimpleHill,0-0,0,33,selected,52-27,51-20;47-22;53-20;47-24;50-31;54-30,47-22,0.56,84,-5,1066.50073221
GEMS135,2018_Apr_24_1548,Elaine,GH,orientation,8,6,0,0-0;0-0;0-0;0-0,2,SimpleHill,0-0,0,34,selected,47-22,40-21;45-24;44-24;50-27;41-26;46-27,40-21,0.44,81,-3,1070.49802871
GEMS135,2018_Apr_24_1548,Elaine,GH,orientation,8,6,0,0-0;0-0;0-0;0-0,2,SimpleHill,0-0,0,35,selected,40-21,37-16;34-23;46-20;42-17;47-22;36-27,47-22,0.46,84,3,1074.53970998
GEMS135,2018_Apr_24_1548,Elaine,GH,orientation,8,6,0,0-0;0-0;0-0;0-0,2,SimpleHill,0-0,0,36,selected,47-22,42-25;43-28;47-29;47-22;40-22;42-17,42-17,0.44,76,-8,1078.54113823
GEMS135,2018_Apr_24_1548,Elaine,GH,orientation,8,6,0,0-0;0-0;0-0;0-0,2,SimpleHill,0-0,0,37,selected,42-17,39-11;46-12;42-22;35-20;39-15;47-20,42-22,0.54,83,7,1082.65047571
GEMS135,2018_Apr_24_1548,Elaine,GH,orientation,8,6,0,0-0;0-0;0-0;0-0,2,SimpleHill,0-0,0,38,selected,42-22,39-28;46-25;46-20;37-20;44-22;46-28,44-22,1.52,83,0,1087.7307231
GEMS135,2018_Apr_24_1548,Elaine,GH,orientation,8,6,0,0-0;0-0;0-0;0-0,2,SimpleHill,0-0,0,39,selected,44-22,49-16;47-20;50-23;46-25;39-22;45-24,47-20,2.14,81,-2,1093.45250215
GEMS135,2018_Apr_24_1548,Elaine,GH,orientation,8,6,0,0-0;0-0;0-0;0-0,3,SimpleHill,0-0,0,0,selected,0-0,3-2;3-6;1-5;0-5;7-3;1-6,1-6,8.46,13,13,1111.41344053
GEMS135,2018_Apr_24_1548,Elaine,GH,orientation,8,6,0,0-0;0-0;0-0;0-0,3,SimpleHill,0-0,0,1,selected,1-6,6-3;2-12;2-5;3-11;1-11;0-1,0-1,1.81,1,-12,1116.80238495
GEMS135,2018_Apr_24_1548,Elaine,GH,orientation,8,6,0,0-0;0-0;0-0;0-0,3,SimpleHill,0-0,0,2,selected,0-1,3-6;5-7;5-1;3-1;1-3;8-1,8-1,2.33,16,15,1122.6995825
GEMS135,2018_Apr_24_1548,Elaine,GH,orientation,8,6,0,0-0;0-0;0-0;0-0,3,SimpleHill,0-0,0,3,selected,8-1,3-5;11-5;16-1;8-3;9-4;4-6,16-1,2.68,28,12,1128.96176133
GEMS135,2018_Apr_24_1548,Elaine,GH,orientation,8,6,0,0-0;0-0;0-0;0-0,3,SimpleHill,0-0,0,4,selected,16-1,19-3;13-7;23-2;24-1;13-1;22-1,24-1,2.32,38,10,1134.84509052
GEMS135,2018_Apr_24_1548,Elaine,GH,orientation,8,6,0,0-0;0-0;0-0;0-0,3,SimpleHill,0-0,0,5,selected,24-1,20-6;21-3;25-4;19-7;24-7;28-5,25-4,2.52,45,7,1140.93737278
GEMS135,2018_Apr_24_1548,Elaine,GH,orientation,8,6,0,0-0;0-0;0-0;0-0,3,SimpleHill,0-0,0,6,selected,25-4,21-1;28-9;21-6;29-9;26-8;29-5,29-5,1.47,50,5,1145.99256903
GEMS135,2018_Apr_24_1548,Elaine,GH,orientation,8,6,0,0-0;0-0;0-0;0-0,3,SimpleHill,0-0,0,7,selected,29-5,26-6;28-6;30-4;33-7;30-0;37-5,30-0,2.81,42,-8,1152.35924041
GEMS135,2018_Apr_24_1548,Elaine,GH,orientation,8,6,0,0-0;0-0;0-0;0-0,3,SimpleHill,0-0,0,8,selected,30-0,27-7;25-6;36-2;30-4;25-3;28-1,27-7,3.3,52,10,1159.22790548
GEMS135,2018_Apr_24_1548,Elaine,GH,orientation,8,6,0,0-0;0-0;0-0;0-0,3,SimpleHill,0-0,0,9,selected,27-7,23-12;21-9;27-11;19-7;27-14;31-5,31-5,1.69,52,0,1164.4760639
GEMS135,2018_Apr_24_1548,Elaine,GH,orientation,8,6,0,0-0;0-0;0-0;0-0,3,SimpleHill,0-0,0,10,selected,31-5,36-10;29-0;34-12;34-3;25-2;34-7,34-3,2.94,50,-2,1170.98965811
GEMS135,2018_Apr_24_1548,Elaine,GH,orientation,8,6,0,0-0;0-0;0-0;0-0,3,SimpleHill,0-0,0,11,selected,34-3,36-5;37-9;28-6;37-10;34-5;35-0,36-5,1.93,55,5,1176.49899475
GEMS135,2018_Apr_24_1548,Elaine,GH,orientation,8,6,0,0-0;0-0;0-0;0-0,3,SimpleHill,0-0,0,12,selected,36-5,43-3;38-9;33-6;34-12;30-6;35-4,38-9,1.3,63,8,1181.3819824
GEMS135,2018_Apr_24_1548,Elaine,GH,orientation,8,6,0,0-0;0-0;0-0;0-0,3,SimpleHill,0-0,0,13,selected,38-9,40-2;43-4;36-10;34-6;36-13;33-7,43-4,4.54,56,-7,1189.47629789
GEMS135,2018_Apr_24_1548,Elaine,GH,orientation,8,6,0,0-0;0-0;0-0;0-0,3,SimpleHill,0-0,0,14,selected,43-4,35-4;47-0;49-3;40-7;42-2;46-6,46-6,2.16,60,4,1195.20324325
GEMS135,2018_Apr_24_1548,Elaine,GH,orientation,8,6,0,0-0;0-0;0-0;0-0,3,SimpleHill,0-0,0,15,selected,46-6,40-2;45-9;44-4;48-0;49-2;47-12,48-0,2.2,49,-11,1200.96467802
GEMS135,2018_Apr_24_1548,Elaine,GH,orientation,8,6,0,0-0;0-0;0-0;0-0,3,SimpleHill,0-0,0,16,selected,48-0,49-7;54-1;52-6;55-3;43-0;47-1,52-6,1.5,61,12,1206.03718332
GEMS135,2018_Apr_24_1548,Elaine,GH,orientation,8,6,0,0-0;0-0;0-0;0-0,3,SimpleHill,0-0,0,17,selected,52-6,55-9;50-1;58-4;57-7;53-5;56-2,55-9,2.46,65,4,1212.0771028
GEMS135,2018_Apr_24_1548,Elaine,GH,orientation,8,6,0,0-0;0-0;0-0;0-0,3,SimpleHill,0-0,0,18,selected,55-9,60-3;54-15;53-16;52-14;48-12;51-4,60-3,2.95,53,-12,1218.60442612
GEMS135,2018_Apr_24_1548,Elaine,GH,orientation,8,6,0,0-0;0-0;0-0;0-0,3,SimpleHill,0-0,0,19,selected,60-3,54-7;62-9;59-7;64-6;64-9;64-4,54-7,3.11,62,9,1225.28476333
GEMS135,2018_Apr_24_1548,Elaine,GH,orientation,8,6,0,0-0;0-0;0-0;0-0,3,SimpleHill,0-0,0,20,selected,54-7,52-8;59-4;55-8;57-4;57-11;57-2,52-8,2.58,64,2,1231.43453307
GEMS135,2018_Apr_24_1548,Elaine,GH,orientation,8,6,0,0-0;0-0;0-0;0-0,3,SimpleHill,0-0,0,21,selected,52-8,54-15;58-6;53-4;58-12;47-4;50-1,53-4,1.91,57,-7,1236.92819379
GEMS135,2018_Apr_24_1548,Elaine,GH,orientation,8,6,0,0-0;0-0;0-0;0-0,3,SimpleHill,0-0,0,22,selected,53-4,54-3;56-4;58-0;49-1;59-2;48-4,48-4,1.47,57,0,1241.96090412
GEMS135,2018_Apr_24_1548,Elaine,GH,orientation,8,6,0,0-0;0-0;0-0;0-0,3,SimpleHill,0-0,0,23,selected,48-4,45-6;43-3;51-7;42-5;54-4;49-2,45-6,0.58,60,3,1246.11571853
GEMS135,2018_Apr_24_1548,Elaine,GH,orientation,8,6,0,0-0;0-0;0-0;0-0,3,SimpleHill,0-0,0,24,selected,45-6,43-10;52-8;52-3;47-6;45-11;49-10,52-3,1.28,55,-5,1250.97700226
GEMS135,2018_Apr_24_1548,Elaine,GH,orientation,8,6,0,0-0;0-0;0-0;0-0,3,SimpleHill,0-0,0,25,selected,52-3,54-7;46-5;54-2;54-3;45-1;48-7,46-5,0.5,59,4,1255.03324489
GEMS135,2018_Apr_24_1548,Elaine,GH,orientation,8,6,0,0-0;0-0;0-0;0-0,3,SimpleHill,0-0,0,26,selected,46-5,41-10;46-3;48-3;40-9;38-5;45-4,45-4,1.64,57,-2,1260.25681503
GEMS135,2018_Apr_24_1548,Elaine,GH,orientation,8,6,0,0-0;0-0;0-0;0-0,3,SimpleHill,0-0,0,27,selected,45-4,40-0;51-1;44-10;45-10;48-6;50-4,51-1,3.49,51,-6,1267.30092869
GEMS135,2018_Apr_24_1548,Elaine,GH,orientation,8,6,0,0-0;0-0;0-0;0-0,3,SimpleHill,0-0,0,28,selected,51-1,49-8;44-3;48-6;59-1;58-1;55-1,44-3,2.76,55,4,1273.61381958
GEMS135,2018_Apr_24_1548,Elaine,GH,orientation,8,6,0,0-0;0-0;0-0;0-0,3,SimpleHill,0-0,0,29,selected,44-3,46-1;44-7;52-3;49-1;45-5;40-7,45-5,1.75,59,4,1278.94724478
GEMS135,2018_Apr_24_1548,Elaine,GH,orientation,8,6,0,0-0;0-0;0-0;0-0,3,SimpleHill,0-0,0,30,selected,45-5,39-4;48-12;51-3;50-4;48-7;39-10,50-4,2.19,57,-2,1284.68827104
GEMS135,2018_Apr_24_1548,Elaine,GH,orientation,8,6,0,0-0;0-0;0-0;0-0,3,SimpleHill,0-0,0,31,selected,50-4,51-0;51-1;55-3;57-5;45-9;56-9,56-9,3.85,65,8,1292.12119469
GEMS135,2018_Apr_24_1548,Elaine,GH,orientation,8,6,0,0-0;0-0;0-0;0-0,3,SimpleHill,0-0,0,32,selected,56-9,62-9;59-14;51-11;51-8;50-10;62-14,51-11,1.2,69,4,1296.88580223
GEMS135,2018_Apr_24_1548,Elaine,GH,orientation,8,6,0,0-0;0-0;0-0;0-0,3,SimpleHill,0-0,0,33,selected,51-11,48-16;50-8;54-17;46-6;45-16;50-15,54-17,1.32,77,8,1301.77967081
GEMS135,2018_Apr_24_1548,Elaine,GH,orientation,8,6,0,0-0;0-0;0-0;0-0,3,SimpleHill,0-0,0,34,selected,54-17,50-18;47-15;59-20;50-15;50-14;58-19,50-18,2.74,79,2,1308.08652314
GEMS135,2018_Apr_24_1548,Elaine,GH,orientation,8,6,0,0-0;0-0;0-0;0-0,3,SimpleHill,0-0,0,35,selected,50-18,50-21;45-12;52-22;55-17;45-23;51-20,45-12,1.25,70,-9,1312.90123521
GEMS135,2018_Apr_24_1548,Elaine,GH,orientation,8,6,0,0-0;0-0;0-0;0-0,3,SimpleHill,0-0,0,36,selected,45-12,45-15;45-9;41-9;43-15;43-12;40-13,43-12,1.13,70,0,1317.6007953
GEMS135,2018_Apr_24_1548,Elaine,GH,orientation,8,6,0,0-0;0-0;0-0;0-0,3,SimpleHill,0-0,0,37,selected,43-12,41-11;38-17;46-16;43-4;48-9;42-18,41-11,0.94,67,-3,1322.11360688
GEMS135,2018_Apr_24_1548,Elaine,GH,orientation,8,6,0,0-0;0-0;0-0;0-0,3,SimpleHill,0-0,0,38,selected,41-11,44-18;37-6;44-14;35-7;36-6;36-16,36-16,4.45,72,5,1330.13210443
GEMS135,2018_Apr_24_1548,Elaine,GH,orientation,8,6,0,0-0;0-0;0-0;0-0,3,SimpleHill,0-0,0,39,selected,36-16,40-21;31-19;30-15;35-13;38-20;30-16,38-20,1.67,79,7,1335.37906955
GEMS135,2018_Apr_24_1548,Elaine,GH,orientation,8,6,0,0-0;0-0;0-0;0-0,4,SimpleHill,0-0,0,0,selected,0-0,5-3;1-6;8-0;0-4;0-0;3-6,8-0,3.1,14,14,1348.48643397
GEMS135,2018_Apr_24_1548,Elaine,GH,orientation,8,6,0,0-0;0-0;0-0;0-0,4,SimpleHill,0-0,0,1,selected,8-0,6-3;11-4;6-7;13-0;11-5;3-4,6-7,1.91,24,10,1353.96491745
GEMS135,2018_Apr_24_1548,Elaine,GH,orientation,8,6,0,0-0;0-0;0-0;0-0,4,SimpleHill,0-0,0,2,selected,6-7,8-7;8-13;1-11;10-13;0-6;13-10,13-10,2.59,40,16,1360.13207978
GEMS135,2018_Apr_24_1548,Elaine,GH,orientation,8,6,0,0-0;0-0;0-0;0-0,4,SimpleHill,0-0,0,3,selected,13-10,15-13;13-4;14-3;19-11;13-5;13-8,14-3,2.24,29,-11,1365.9530852
GEMS135,2018_Apr_24_1548,Elaine,GH,orientation,8,6,0,0-0;0-0;0-0;0-0,4,SimpleHill,0-0,0,4,selected,14-3,17-2;15-7;9-4;16-5;19-6;10-7,19-6,1.86,42,13,1371.38970753
GEMS135,2018_Apr_24_1548,Elaine,GH,orientation,8,6,0,0-0;0-0;0-0;0-0,4,SimpleHill,0-0,0,5,selected,19-6,15-10;22-1;22-2;21-12;12-9;14-3,22-1,1.92,36,-6,1376.87816608
GEMS135,2018_Apr_24_1548,Elaine,GH,orientation,8,6,0,0-0;0-0;0-0;0-0,4,SimpleHill,0-0,0,6,selected,22-1,27-1;18-0;19-3;22-2;26-5;29-2,18-0,1.43,29,-7,1381.87452182
GEMS135,2018_Apr_24_1548,Elaine,GH,orientation,8,6,0,0-0;0-0;0-0;0-0,4,SimpleHill,0-0,0,7,selected,18-0,11-3;23-1;12-5;22-0;14-4;21-2,23-1,1.4,37,8,1386.84858818
GEMS135,2018_Apr_24_1548,Elaine,GH,orientation,8,6,0,0-0;0-0;0-0;0-0,4,SimpleHill,0-0,0,8,selected,23-1,27-2;16-1;25-7;24-5;18-3;25-2,25-7,1.37,50,13,1391.78131225
GEMS135,2018_Apr_24_1548,Elaine,GH,orientation,8,6,0,0-0;0-0;0-0;0-0,4,SimpleHill,0-0,0,9,selected,25-7,26-9;31-4;26-13;32-4;22-14;26-3,22-14,1.76,58,8,1397.11832601
GEMS135,2018_Apr_24_1548,Elaine,GH,orientation,8,6,0,0-0;0-0;0-0;0-0,4,SimpleHill,0-0,0,10,selected,22-14,26-12;29-16;26-19;27-19;21-13;20-16,29-16,2.72,68,10,1403.42052067
GEMS135,2018_Apr_24_1548,Elaine,GH,orientation,8,6,0,0-0;0-0;0-0;0-0,4,SimpleHill,0-0,0,11,selected,29-16,25-12;23-17;26-21;30-21;30-10;33-20,30-21,3.11,75,7,1410.1158773
GEMS135,2018_Apr_24_1548,Elaine,GH,orientation,8,6,0,0-0;0-0;0-0;0-0,4,SimpleHill,0-0,0,12,selected,30-21,35-15;27-27;29-25;32-24;33-24;33-23,35-15,1.38,71,-4,1415.0539911
GEMS135,2018_Apr_24_1548,Elaine,GH,orientation,8,6,0,0-0;0-0;0-0;0-0,4,SimpleHill,0-0,0,13,selected,35-15,30-20;38-19;34-16;31-12;33-19;32-15,38-19,1.29,77,6,1419.90416118
GEMS135,2018_Apr_24_1548,Elaine,GH,orientation,8,6,0,0-0;0-0;0-0;0-0,4,SimpleHill,0-0,0,14,selected,38-19,35-26;35-15;41-26;33-20;34-14;39-21,34-14,1.87,68,-9,1425.3638139
GEMS135,2018_Apr_24_1548,Elaine,GH,orientation,8,6,0,0-0;0-0;0-0;0-0,4,SimpleHill,0-0,0,15,selected,34-14,37-11;30-15;40-14;36-16;30-17;31-13,40-14,1.04,72,4,1429.98335451
GEMS135,2018_Apr_24_1548,Elaine,GH,orientation,8,6,0,0-0;0-0;0-0;0-0,4,SimpleHill,0-0,0,16,selected,40-14,43-16;43-14;37-7;43-9;33-11;35-9,35-9,0.84,61,-11,1434.40697048
GEMS135,2018_Apr_24_1548,Elaine,GH,orientation,8,6,0,0-0;0-0;0-0;0-0,4,SimpleHill,0-0,0,17,selected,35-9,41-9;42-8;42-12;31-12;27-9;37-11,31-12,1.09,63,2,1439.1333035
GEMS135,2018_Apr_24_1548,Elaine,GH,orientation,8,6,0,0-0;0-0;0-0;0-0,4,SimpleHill,0-0,0,18,selected,31-12,30-13;28-14;36-18;27-11;30-8;30-14,36-18,1.83,75,12,1444.54337601
GEMS135,2018_Apr_24_1548,Elaine,GH,orientation,8,6,0,0-0;0-0;0-0;0-0,4,SimpleHill,0-0,0,19,selected,36-18,40-13;38-11;37-15;33-17;35-13;42-22,37-15,2.06,72,-3,1450.17668383
GEMS135,2018_Apr_24_1548,Elaine,GH,orientation,8,6,0,0-0;0-0;0-0;0-0,4,SimpleHill,0-0,0,20,selected,37-15,40-11;43-17;35-11;30-15;33-16;41-21,41-21,1.56,81,9,1455.30099975
GEMS135,2018_Apr_24_1548,Elaine,GH,orientation,8,6,0,0-0;0-0;0-0;0-0,4,SimpleHill,0-0,0,21,selected,41-21,41-15;35-23;36-16;39-27;38-27;44-24,38-27,2.99,86,5,1461.86940865
GEMS135,2018_Apr_24_1548,Elaine,GH,orientation,8,6,0,0-0;0-0;0-0;0-0,4,SimpleHill,0-0,0,22,selected,38-27,31-28;43-23;40-29;36-24;31-29;38-20,43-23,1.48,84,-2,1466.91012004
GEMS135,2018_Apr_24_1548,Elaine,GH,orientation,8,6,0,0-0;0-0;0-0;0-0,4,SimpleHill,0-0,0,23,selected,43-23,43-21;42-17;38-20;46-22;43-25;44-29,44-29,3.3,90,6,1473.77307721
GEMS135,2018_Apr_24_1548,Elaine,GH,orientation,8,6,0,0-0;0-0;0-0;0-0,4,SimpleHill,0-0,0,24,selected,44-29,49-32;47-22;38-27;47-36;40-30;41-22,49-32,0.99,93,3,1478.33120407
GEMS135,2018_Apr_24_1548,Elaine,GH,orientation,8,6,0,0-0;0-0;0-0;0-0,4,SimpleHill,0-0,0,25,selected,49-32,55-28;46-31;54-31;43-34;52-37;47-26,43-34,3.03,93,0,1484.9258523
GEMS135,2018_Apr_24_1548,Elaine,GH,orientation,8,6,0,0-0;0-0;0-0;0-0,4,SimpleHill,0-0,0,26,selected,43-34,49-39;49-35;41-28;42-28;43-34;49-31,49-31,3.65,92,-1,1492.15424176
GEMS135,2018_Apr_24_1548,Elaine,GH,orientation,8,6,0,0-0;0-0;0-0;0-0,4,SimpleHill,0-0,0,27,selected,49-31,47-25;45-37;55-33;53-32;54-34;47-29,53-32,1.42,93,1,1497.15693215
GEMS135,2018_Apr_24_1548,Elaine,GH,orientation,8,6,0,0-0;0-0;0-0;0-0,4,SimpleHill,0-0,0,28,selected,53-32,57-33;51-36;56-28;56-25;58-31;55-37,56-25,1.87,86,-7,1502.60271202
GEMS135,2018_Apr_24_1548,Elaine,GH,orientation,8,6,0,0-0;0-0;0-0;0-0,4,SimpleHill,0-0,0,29,selected,56-25,56-18;59-19;58-28;53-27;57-21;62-21,57-21,0.56,82,-4,1506.73463528
GEMS135,2018_Apr_24_1548,Elaine,GH,orientation,8,6,0,0-0;0-0;0-0;0-0,4,SimpleHill,0-0,0,30,selected,57-21,56-18;56-27;57-20;62-24;60-24;62-23,56-18,0.9,78,-4,1511.217336
GEMS135,2018_Apr_24_1548,Elaine,GH,orientation,8,6,0,0-0;0-0;0-0;0-0,4,SimpleHill,0-0,0,31,selected,56-18,53-25;57-21;60-13;53-13;61-18;52-24,60-13,0.59,70,-8,1515.38879462
GEMS135,2018_Apr_24_1548,Elaine,GH,orientation,8,6,0,0-0;0-0;0-0;0-0,4,SimpleHill,0-0,0,32,selected,60-13,63-10;58-8;63-9;58-18;60-10;64-7,64-7,1.27,59,-11,1520.22919161
GEMS135,2018_Apr_24_1548,Elaine,GH,orientation,8,6,0,0-0;0-0;0-0;0-0,4,SimpleHill,0-0,0,33,selected,64-7,58-7;61-10;63-6;63-7;57-6;64-12,63-6,0.87,57,-2,1524.67195269
GEMS135,2018_Apr_24_1548,Elaine,GH,orientation,8,6,0,0-0;0-0;0-0;0-0,4,SimpleHill,0-0,0,34,selected,63-6,62-1;63-8;59-11;68-6;57-7;67-11,63-8,0.78,61,4,1529.01889319
GEMS135,2018_Apr_24_1548,Elaine,GH,orientation,8,6,0,0-0;0-0;0-0;0-0,4,SimpleHill,0-0,0,35,selected,63-8,62-6;69-7;61-14;62-1;59-6;62-10,59-6,0.69,59,-2,1533.28831381
GEMS135,2018_Apr_24_1548,Elaine,GH,orientation,8,6,0,0-0;0-0;0-0;0-0,4,SimpleHill,0-0,0,36,selected,59-6,62-4;64-5;62-2;59-7;61-6;55-4,59-7,0.54,61,2,1537.41271487
GEMS135,2018_Apr_24_1548,Elaine,GH,orientation,8,6,0,0-0;0-0;0-0;0-0,4,SimpleHill,0-0,0,37,selected,59-7,55-2;56-11;55-5;58-0;54-4;65-9,56-11,2.24,68,7,1543.23563957
GEMS135,2018_Apr_24_1548,Elaine,GH,orientation,8,6,0,0-0;0-0;0-0;0-0,4,SimpleHill,0-0,0,38,selected,56-11,54-7;55-14;58-16;59-14;51-6;49-11,58-16,1.62,75,7,1548.43835723
GEMS135,2018_Apr_24_1548,Elaine,GH,orientation,8,6,0,0-0;0-0;0-0;0-0,4,SimpleHill,0-0,0,39,selected,58-16,62-21;65-17;60-23;55-18;61-21;53-18,65-17,2.16,73,-2,1554.18631607
