subj_id,date,computer,experimenter,version,generation,inherit_from,sight_radius,n_gabors,block_ix,landscape_name,starting_pos,starting_score,trial,pos,stims,selected,rt,score,delta,exp_time,landscape_ix
GEMS170,2018_Oct_19_1033,George,MP,1.2,2,GEMS157,10,6,1,SimpleHill,0-0,0,0,0-0,5-3;1-2;8-5;3-0;5-2;9-3,3-0,16.92,5,5,277.592424568,1
GEMS170,2018_Oct_19_1033,George,MP,1.2,2,GEMS157,10,6,1,SimpleHill,0-0,0,1,3-0,5-8;9-3;5-7;10-5;2-1;8-2,2-1,33.17,5,0,314.85789919,1
GEMS170,2018_Oct_19_1033,George,MP,1.2,2,GEMS157,10,6,1,SimpleHill,0-0,0,2,2-1,1-3;2-4;6-2;4-6;6-3;10-3,6-3,45.48,17,12,364.419447655,1
GEMS170,2018_Oct_19_1033,George,MP,1.2,2,GEMS157,10,6,1,SimpleHill,0-0,0,3,6-3,5-5;3-4;11-9;14-7;2-1;3-1,14-7,13.69,37,20,382.200821421,1
GEMS170,2018_Oct_19_1033,George,MP,1.2,2,GEMS157,10,6,1,SimpleHill,0-0,0,4,14-7,19-15;17-5;17-2;11-3;20-0;10-5,19-15,3.7,56,19,389.97672833,1
GEMS170,2018_Oct_19_1033,George,MP,1.2,2,GEMS157,10,6,1,SimpleHill,0-0,0,5,19-15,24-9;18-21;12-10;24-23;23-7;20-23,24-23,8.39,71,15,402.440008463,1
GEMS170,2018_Oct_19_1033,George,MP,1.2,2,GEMS157,10,6,1,SimpleHill,0-0,0,6,24-23,27-32;17-26;28-24;20-20;22-32;16-29,17-26,6.98,66,-5,413.502036907,1
GEMS170,2018_Oct_19_1033,George,MP,1.2,2,GEMS157,10,6,1,SimpleHill,0-0,0,7,17-26,18-32;9-27;13-17;9-32;26-29;27-26,9-32,8.09,59,-7,425.684695972,1
GEMS170,2018_Oct_19_1033,George,MP,1.2,2,GEMS157,10,6,1,SimpleHill,0-0,0,8,9-32,14-40;8-37;1-38;8-28;10-23;8-30,10-23,6.16,53,-6,435.912282869,1
GEMS170,2018_Oct_19_1033,George,MP,1.2,2,GEMS157,10,6,1,SimpleHill,0-0,0,9,10-23,7-32;15-23;17-17;11-14;17-27;0-23,17-17,4.5,56,3,444.489341727,1
GEMS170,2018_Oct_19_1033,George,MP,1.2,2,GEMS157,10,6,1,SimpleHill,0-0,0,10,17-17,8-15;12-23;14-9;8-21;21-8;18-16,8-15,8.19,40,-16,456.762573785,1
GEMS170,2018_Oct_19_1033,George,MP,1.2,2,GEMS157,10,6,1,SimpleHill,0-0,0,11,8-15,16-14;3-8;11-8;11-14;2-22;11-6,11-14,6.41,43,3,467.258101936,1
GEMS170,2018_Oct_19_1033,George,MP,1.2,2,GEMS157,10,6,1,SimpleHill,0-0,0,12,11-14,18-21;9-13;13-17;8-23;5-19;11-4,5-19,32.73,40,-3,504.0581995,1
GEMS170,2018_Oct_19_1033,George,MP,1.2,2,GEMS157,10,6,1,SimpleHill,0-0,0,13,5-19,8-25;6-18;4-11;13-20;12-20;6-17,8-25,7.21,52,12,515.349239253,1
GEMS170,2018_Oct_19_1033,George,MP,1.2,2,GEMS157,10,6,1,SimpleHill,0-0,0,14,8-25,13-18;17-24;7-26;0-19;10-29;1-23,7-26,35.93,51,-1,555.367833734,1
GEMS170,2018_Oct_19_1033,George,MP,1.2,2,GEMS157,10,6,1,SimpleHill,0-0,0,15,7-26,15-30;3-22;15-21;5-21;1-23;8-35,8-35,4.54,60,9,563.985809028,1
GEMS170,2018_Oct_19_1033,George,MP,1.2,2,GEMS157,10,6,1,SimpleHill,0-0,0,16,8-35,1-36;13-36;6-44;15-31;1-33;10-37,6-44,17.33,60,0,585.386262727,1
GEMS170,2018_Oct_19_1033,George,MP,1.2,2,GEMS157,10,6,1,SimpleHill,0-0,0,17,6-44,14-48;9-51;13-44;8-38;2-46;11-48,13-44,7.34,71,11,596.804399925,1
GEMS170,2018_Oct_19_1033,George,MP,1.2,2,GEMS157,10,6,1,SimpleHill,0-0,0,18,13-44,14-40;22-41;14-35;16-35;9-52;21-49,9-52,10.15,66,-5,611.023263988,1
GEMS170,2018_Oct_19_1033,George,MP,1.2,2,GEMS157,10,6,1,SimpleHill,0-0,0,19,9-52,3-54;9-50;7-43;8-60;1-47;2-55,8-60,5.94,62,-4,621.036309029,1
GEMS170,2018_Oct_19_1033,George,MP,1.2,2,GEMS157,10,6,1,SimpleHill,0-0,0,20,8-60,1-55;0-60;6-60;2-53;12-51;1-63,6-60,8.05,59,-3,633.160522122,1
GEMS170,2018_Oct_19_1033,George,MP,1.2,2,GEMS157,10,6,1,SimpleHill,0-0,0,21,6-60,3-61;2-54;11-60;3-62;4-51;3-52,4-51,4.49,57,-2,641.721965277,1
GEMS170,2018_Oct_19_1033,George,MP,1.2,2,GEMS157,10,6,1,SimpleHill,0-0,0,22,4-51,5-60;0-56;13-53;13-54;9-54;11-53,13-54,1.03,72,15,646.819458986,1
GEMS170,2018_Oct_19_1033,George,MP,1.2,2,GEMS157,10,6,1,SimpleHill,0-0,0,23,13-54,6-58;15-59;11-48;9-57;13-48;10-59,10-59,6.09,66,-6,656.983396813,1
GEMS170,2018_Oct_19_1033,George,MP,1.2,2,GEMS157,10,6,1,SimpleHill,0-0,0,24,10-59,11-55;5-63;2-57;18-63;15-67;11-65,18-63,1.0,76,10,662.067639022,1
GEMS170,2018_Oct_19_1033,George,MP,1.2,2,GEMS157,10,6,1,SimpleHill,0-0,0,25,18-63,26-63;26-62;18-64;24-57;24-69;12-56,26-62,11.57,85,9,677.71229881,1
GEMS170,2018_Oct_19_1033,George,MP,1.2,2,GEMS157,10,6,1,SimpleHill,0-0,0,26,26-62,35-58;24-67;19-61;19-67;27-60;19-64,27-60,14.2,87,2,695.993832142,1
GEMS170,2018_Oct_19_1033,George,MP,1.2,2,GEMS157,10,6,1,SimpleHill,0-0,0,27,27-60,36-63;27-50;18-64;33-58;23-55;31-59,36-63,18.94,92,5,718.994804902,1
GEMS170,2018_Oct_19_1033,George,MP,1.2,2,GEMS157,10,6,1,SimpleHill,0-0,0,28,36-63,42-65;42-68;29-57;40-67;38-63;29-70,29-57,11.59,90,-2,734.642151545,1
GEMS170,2018_Oct_19_1033,George,MP,1.2,2,GEMS157,10,6,1,SimpleHill,0-0,0,29,29-57,29-62;20-61;30-64;29-48;31-58;27-60,30-64,8.21,88,-2,746.915221317,1
GEMS170,2018_Oct_19_1033,George,MP,1.2,2,GEMS157,10,6,1,SimpleHill,0-0,0,30,30-64,33-65;36-64;32-59;37-61;31-64;38-60,36-64,8.66,92,4,759.660778676,1
GEMS170,2018_Oct_19_1033,George,MP,1.2,2,GEMS157,10,6,1,SimpleHill,0-0,0,31,36-64,28-68;44-64;36-63;34-70;42-64;45-64,34-70,7.3,86,-6,771.0258036,1
GEMS170,2018_Oct_19_1033,George,MP,1.2,2,GEMS157,10,6,1,SimpleHill,0-0,0,32,34-70,39-69;39-67;31-68;32-62;31-70;27-64,39-69,5.15,90,4,780.257475195,1
GEMS170,2018_Oct_19_1033,George,MP,1.2,2,GEMS157,10,6,1,SimpleHill,0-0,0,33,39-69,45-61;36-63;46-69;35-61;47-68;36-70,47-68,21.29,93,3,805.607350791,1
GEMS170,2018_Oct_19_1033,George,MP,1.2,2,GEMS157,10,6,1,SimpleHill,0-0,0,34,47-68,49-63;39-66;39-68;46-66;45-62;50-65,46-66,22.49,94,1,832.17588111,1
GEMS170,2018_Oct_19_1033,George,MP,1.2,2,GEMS157,10,6,1,SimpleHill,0-0,0,35,46-66,52-66;39-62;43-57;39-69;48-68;37-62,43-57,9.13,98,4,845.38835325,1
GEMS170,2018_Oct_19_1033,George,MP,1.2,2,GEMS157,10,6,1,SimpleHill,0-0,0,36,43-57,45-48;52-56;45-65;40-58;44-49;37-58,44-49,28.22,99,1,877.678594052,1
GEMS170,2018_Oct_19_1033,George,MP,1.2,2,GEMS157,10,6,1,SimpleHill,0-0,0,37,44-49,44-50;43-40;48-51;45-45;47-48;46-42,43-40,23.49,97,-2,905.25447465,1
GEMS170,2018_Oct_19_1033,George,MP,1.2,2,GEMS157,10,6,1,SimpleHill,0-0,0,38,43-40,37-42;44-44;38-35;49-39;39-48;40-46,39-48,2.54,97,0,911.847949761,1
GEMS170,2018_Oct_19_1033,George,MP,1.2,2,GEMS157,10,6,1,SimpleHill,0-0,0,39,39-48,37-44;47-48;43-50;41-50;38-51;45-55,38-51,4.43,97,0,920.365297963,1
GEMS170,2018_Oct_19_1033,George,MP,1.2,2,GEMS157,10,6,2,SimpleHill,0-0,0,0,0-0,1-4;7-4;5-7;4-4;3-1;4-1,3-1,13.42,7,7,951.46878348,1
GEMS170,2018_Oct_19_1033,George,MP,1.2,2,GEMS157,10,6,2,SimpleHill,0-0,0,1,3-1,4-8;6-3;13-1;7-3;12-1;4-10,6-3,16.06,17,10,971.596224063,1
GEMS170,2018_Oct_19_1033,George,MP,1.2,2,GEMS157,10,6,2,SimpleHill,0-0,0,2,6-3,12-0;3-4;2-10;6-12;0-2;15-4,12-0,8.52,21,4,984.19488627,1
GEMS170,2018_Oct_19_1033,George,MP,1.2,2,GEMS157,10,6,2,SimpleHill,0-0,0,3,12-0,17-6;14-2;5-1;3-1;8-3;18-6,8-3,19.56,20,-1,1007.83119037,1
GEMS170,2018_Oct_19_1033,George,MP,1.2,2,GEMS157,10,6,2,SimpleHill,0-0,0,4,8-3,12-4;15-1;9-9;0-8;9-7;1-7,15-1,10.54,27,7,1022.44475831,1
GEMS170,2018_Oct_19_1033,George,MP,1.2,2,GEMS157,10,6,2,SimpleHill,0-0,0,5,15-1,18-9;11-5;21-9;12-6;6-1;18-7,18-9,15.15,45,18,1041.66580541,1
GEMS170,2018_Oct_19_1033,George,MP,1.2,2,GEMS157,10,6,2,SimpleHill,0-0,0,6,18-9,12-5;12-11;23-6;22-7;12-10;17-3,17-3,13.08,34,-11,1058.82530195,1
GEMS170,2018_Oct_19_1033,George,MP,1.2,2,GEMS157,10,6,2,SimpleHill,0-0,0,7,17-3,18-2;14-1;14-6;17-2;10-6;16-1,18-2,11.74,33,-1,1074.62191435,1
GEMS170,2018_Oct_19_1033,George,MP,1.2,2,GEMS157,10,6,2,SimpleHill,0-0,0,8,18-2,13-0;23-10;26-6;17-0;18-9;27-0,18-9,2.85,45,12,1081.54927613,1
GEMS170,2018_Oct_19_1033,George,MP,1.2,2,GEMS157,10,6,2,SimpleHill,0-0,0,9,18-9,15-2;20-17;20-9;12-2;10-4;12-11,20-17,11.62,60,15,1097.24737372,1
GEMS170,2018_Oct_19_1033,George,MP,1.2,2,GEMS157,10,6,2,SimpleHill,0-0,0,10,20-17,19-19;28-21;17-11;14-21;25-21;22-19,22-19,3.27,65,5,1104.59019545,1
GEMS170,2018_Oct_19_1033,George,MP,1.2,2,GEMS157,10,6,2,SimpleHill,0-0,0,11,22-19,21-11;22-12;18-24;18-23;15-20;18-11,18-24,2.62,66,1,1111.28068285,1
GEMS170,2018_Oct_19_1033,George,MP,1.2,2,GEMS157,10,6,2,SimpleHill,0-0,0,12,18-24,13-23;18-32;10-27;19-24;23-31;21-27,21-27,1.77,72,6,1117.17323139,1
GEMS170,2018_Oct_19_1033,George,MP,1.2,2,GEMS157,10,6,2,SimpleHill,0-0,0,13,21-27,24-23;12-30;23-23;26-31;23-20;15-29,12-30,11.0,63,-9,1132.23454058,1
GEMS170,2018_Oct_19_1033,George,MP,1.2,2,GEMS157,10,6,2,SimpleHill,0-0,0,14,12-30,3-32;8-21;19-32;12-31;8-28;19-37,19-37,6.25,77,14,1142.55559315,1
GEMS170,2018_Oct_19_1033,George,MP,1.2,2,GEMS157,10,6,2,SimpleHill,0-0,0,15,19-37,19-39;17-32;18-30;19-31;24-30;17-39,19-39,7.98,78,1,1154.60859467,1
GEMS170,2018_Oct_19_1033,George,MP,1.2,2,GEMS157,10,6,2,SimpleHill,0-0,0,16,19-39,18-30;17-37;21-44;13-42;16-32;20-47,21-44,5.19,82,4,1163.85634642,1
GEMS170,2018_Oct_19_1033,George,MP,1.2,2,GEMS157,10,6,2,SimpleHill,0-0,0,17,21-44,12-47;14-45;31-44;22-36;22-48;13-39,12-47,7.46,70,-12,1175.39568752,1
GEMS170,2018_Oct_19_1033,George,MP,1.2,2,GEMS157,10,6,2,SimpleHill,0-0,0,18,12-47,16-49;7-47;14-55;17-45;4-42;14-42,16-49,11.3,76,6,1190.77114938,1
GEMS170,2018_Oct_19_1033,George,MP,1.2,2,GEMS157,10,6,2,SimpleHill,0-0,0,19,16-49,22-56;11-41;10-50;15-41;22-57;18-47,18-47,13.02,79,3,1207.8625671,1
GEMS170,2018_Oct_19_1033,George,MP,1.2,2,GEMS157,10,6,2,SimpleHill,0-0,0,20,18-47,25-45;22-48;26-44;24-53;23-53;20-38,23-53,3.47,85,6,1215.40330252,1
GEMS170,2018_Oct_19_1033,George,MP,1.2,2,GEMS157,10,6,2,SimpleHill,0-0,0,21,23-53,13-53;32-53;17-54;27-57;19-56;23-49,23-49,10.93,85,0,1230.40085125,1
GEMS170,2018_Oct_19_1033,George,MP,1.2,2,GEMS157,10,6,2,SimpleHill,0-0,0,22,23-49,26-53;29-54;20-57;25-49;21-50;33-49,20-57,6.27,81,-4,1240.74144513,1
GEMS170,2018_Oct_19_1033,George,MP,1.2,2,GEMS157,10,6,2,SimpleHill,0-0,0,23,20-57,15-53;22-64;16-52;20-61;12-51;23-66,22-64,9.74,80,-1,1254.56438672,1
GEMS170,2018_Oct_19_1033,George,MP,1.2,2,GEMS157,10,6,2,SimpleHill,0-0,0,24,22-64,28-56;29-68;19-61;20-60;25-69;29-59,20-60,5.96,80,0,1264.58963784,1
GEMS170,2018_Oct_19_1033,George,MP,1.2,2,GEMS157,10,6,2,SimpleHill,0-0,0,25,20-60,20-63;23-66;25-59;12-55;22-69;27-56,25-59,5.24,85,5,1273.92013121,1
GEMS170,2018_Oct_19_1033,George,MP,1.2,2,GEMS157,10,6,2,SimpleHill,0-0,0,26,25-59,33-63;27-59;33-55;24-51;21-53;30-57,33-63,7.37,90,5,1285.37810005,1
GEMS170,2018_Oct_19_1033,George,MP,1.2,2,GEMS157,10,6,2,SimpleHill,0-0,0,27,33-63,26-66;28-69;25-64;33-64;28-65;32-54,28-65,1.3,85,-5,1290.75680924,1
GEMS170,2018_Oct_19_1033,George,MP,1.2,2,GEMS157,10,6,2,SimpleHill,0-0,0,28,28-65,26-69;29-70;33-58;34-66;24-62;25-59,29-70,1.34,83,-2,1296.16335462,1
GEMS170,2018_Oct_19_1033,George,MP,1.2,2,GEMS157,10,6,2,SimpleHill,0-0,0,29,29-70,23-66;26-64;37-68;35-67;34-62;20-70,37-68,4.85,90,7,1305.07799945,1
GEMS170,2018_Oct_19_1033,George,MP,1.2,2,GEMS157,10,6,2,SimpleHill,0-0,0,30,37-68,35-59;41-67;34-62;43-68;34-70;42-65,34-70,3.17,86,-4,1312.32912657,1
GEMS170,2018_Oct_19_1033,George,MP,1.2,2,GEMS157,10,6,2,SimpleHill,0-0,0,31,34-70,37-69;37-64;39-70;38-62;33-65;29-66,37-64,5.8,92,6,1322.2039548,1
GEMS170,2018_Oct_19_1033,George,MP,1.2,2,GEMS157,10,6,2,SimpleHill,0-0,0,32,37-64,40-70;41-60;42-58;46-65;29-62;39-69,39-69,1.93,90,-2,1328.20701393,1
GEMS170,2018_Oct_19_1033,George,MP,1.2,2,GEMS157,10,6,2,SimpleHill,0-0,0,33,39-69,40-67;37-62;43-69;39-70;39-61;49-69,40-67,7.57,92,2,1339.86083027,1
GEMS170,2018_Oct_19_1033,George,MP,1.2,2,GEMS157,10,6,2,SimpleHill,0-0,0,34,40-67,33-65;43-70;48-67;44-62;48-62;36-65,36-65,6.89,91,-1,1350.81654391,1
GEMS170,2018_Oct_19_1033,George,MP,1.2,2,GEMS157,10,6,2,SimpleHill,0-0,0,35,36-65,37-64;36-56;33-64;37-65;32-70;37-63,32-70,8.22,85,-6,1363.11979454,1
GEMS170,2018_Oct_19_1033,George,MP,1.2,2,GEMS157,10,6,2,SimpleHill,0-0,0,36,32-70,37-66;32-64;33-66;34-64;33-63;27-69,33-63,1.47,90,5,1368.67045026,1
GEMS170,2018_Oct_19_1033,George,MP,1.2,2,GEMS157,10,6,2,SimpleHill,0-0,0,37,33-63,30-61;36-62;28-64;37-56;38-61;38-67,30-61,3.35,89,-1,1376.08683528,1
GEMS170,2018_Oct_19_1033,George,MP,1.2,2,GEMS157,10,6,2,SimpleHill,0-0,0,38,30-61,36-65;27-52;33-61;26-55;21-61;33-65,33-65,6.4,89,0,1386.55545711,1
GEMS170,2018_Oct_19_1033,George,MP,1.2,2,GEMS157,10,6,2,SimpleHill,0-0,0,39,33-65,39-68;43-65;24-63;36-60;34-59;37-60,34-59,1.32,93,4,1391.94956978,1
GEMS170,2018_Oct_19_1033,George,MP,1.2,2,GEMS157,10,6,3,SimpleHill,0-0,0,0,0-0,6-2;9-2;4-3;1-8;7-3;2-6,4-3,5.45,13,13,1518.12536415,1
GEMS170,2018_Oct_19_1033,George,MP,1.2,2,GEMS157,10,6,3,SimpleHill,0-0,0,1,4-3,3-7;8-8;6-9;12-8;2-7;4-5,4-5,5.71,17,4,1527.89506254,1
GEMS170,2018_Oct_19_1033,George,MP,1.2,2,GEMS157,10,6,3,SimpleHill,0-0,0,2,4-5,13-3;5-2;9-3;9-10;10-11;7-9,9-10,2.25,34,17,1534.20862015,1
GEMS170,2018_Oct_19_1033,George,MP,1.2,2,GEMS157,10,6,3,SimpleHill,0-0,0,3,9-10,6-19;7-3;15-18;2-8;5-5;8-1,5-5,2.93,19,-15,1541.18735514,1
GEMS170,2018_Oct_19_1033,George,MP,1.2,2,GEMS157,10,6,3,SimpleHill,0-0,0,4,5-5,10-4;6-1;13-7;2-14;7-11;9-0,9-0,5.14,16,-3,1550.39560846,1
GEMS170,2018_Oct_19_1033,George,MP,1.2,2,GEMS157,10,6,3,SimpleHill,0-0,0,5,9-0,17-4;6-0;12-9;1-5;2-4;16-7,6-0,0.93,11,-5,1555.38560654,1
GEMS170,2018_Oct_19_1033,George,MP,1.2,2,GEMS157,10,6,3,SimpleHill,0-0,0,6,6-0,14-4;6-0;4-7;11-1;0-8;5-5,6-0,3.89,11,0,1563.33638723,1
GEMS170,2018_Oct_19_1033,George,MP,1.2,2,GEMS157,10,6,3,SimpleHill,0-0,0,7,6-0,0-4;14-6;10-4;5-5;8-3;10-8,8-3,6.25,20,9,1573.64234904,1
GEMS170,2018_Oct_19_1033,George,MP,1.2,2,GEMS157,10,6,3,SimpleHill,0-0,0,8,8-3,15-6;3-6;17-2;8-12;5-5;10-2,8-12,2.68,35,15,1580.40060318,1
GEMS170,2018_Oct_19_1033,George,MP,1.2,2,GEMS157,10,6,3,SimpleHill,0-0,0,9,8-12,15-7;1-13;7-11;3-8;10-9;5-5,7-11,4.65,32,-3,1589.11408921,1
GEMS170,2018_Oct_19_1033,George,MP,1.2,2,GEMS157,10,6,3,SimpleHill,0-0,0,10,7-11,8-12;11-13;4-19;10-15;8-11;11-18,4-19,3.35,38,6,1596.53702748,1
GEMS170,2018_Oct_19_1033,George,MP,1.2,2,GEMS157,10,6,3,SimpleHill,0-0,0,11,4-19,4-25;10-12;7-12;7-19;7-18;6-12,7-19,2.54,43,5,1603.13947029,1
GEMS170,2018_Oct_19_1033,George,MP,1.2,2,GEMS157,10,6,3,SimpleHill,0-0,0,12,7-19,6-27;15-13;4-11;2-21;0-20;9-11,4-11,3.02,27,-16,1610.22484563,1
GEMS170,2018_Oct_19_1033,George,MP,1.2,2,GEMS157,10,6,3,SimpleHill,0-0,0,13,4-11,3-4;6-4;12-15;11-7;8-19;8-17,8-19,0.25,45,18,1614.54595581,1
GEMS170,2018_Oct_19_1033,George,MP,1.2,2,GEMS157,10,6,3,SimpleHill,0-0,0,14,8-19,7-14;15-24;15-26;1-13;8-14;10-15,10-15,0.9,43,-2,1619.52648236,1
GEMS170,2018_Oct_19_1033,George,MP,1.2,2,GEMS157,10,6,3,SimpleHill,0-0,0,15,10-15,8-23;5-18;14-10;1-11;18-17;2-12,1-11,0.24,21,-22,1623.93520724,1
GEMS170,2018_Oct_19_1033,George,MP,1.2,2,GEMS157,10,6,3,SimpleHill,0-0,0,16,1-11,9-9;5-19;2-19;7-7;4-3;7-6,5-19,5.02,40,19,1633.0347521,1
GEMS170,2018_Oct_19_1033,George,MP,1.2,2,GEMS157,10,6,3,SimpleHill,0-0,0,17,5-19,10-16;9-14;3-17;13-16;5-24;1-10,3-17,1.84,34,-6,1638.94789826,1
GEMS170,2018_Oct_19_1033,George,MP,1.2,2,GEMS157,10,6,3,SimpleHill,0-0,0,18,3-17,4-23;7-19;8-9;7-25;11-21;8-12,4-23,4.44,43,9,1647.45509313,1
GEMS170,2018_Oct_19_1033,George,MP,1.2,2,GEMS157,10,6,3,SimpleHill,0-0,0,19,4-23,11-19;8-20;7-25;12-18;7-19;6-32,7-19,0.47,43,0,1652.0010547,1
GEMS170,2018_Oct_19_1033,George,MP,1.2,2,GEMS157,10,6,3,SimpleHill,0-0,0,20,7-19,1-21;12-19;4-13;4-28;9-18;6-28,6-28,1.27,51,8,1657.34024274,1
GEMS170,2018_Oct_19_1033,George,MP,1.2,2,GEMS157,10,6,3,SimpleHill,0-0,0,21,6-28,15-26;4-21;1-20;4-35;9-27;8-28,9-27,0.48,55,4,1661.87133538,1
GEMS170,2018_Oct_19_1033,George,MP,1.2,2,GEMS157,10,6,3,SimpleHill,0-0,0,22,9-27,12-20;8-19;9-22;3-34;1-25;5-32,9-22,1.75,50,-5,1667.70927682,1
GEMS170,2018_Oct_19_1033,George,MP,1.2,2,GEMS157,10,6,3,SimpleHill,0-0,0,23,9-22,10-31;7-17;12-26;8-31;3-16;10-27,10-27,0.67,57,7,1672.45063585,1
GEMS170,2018_Oct_19_1033,George,MP,1.2,2,GEMS157,10,6,3,SimpleHill,0-0,0,24,10-27,2-31;11-25;2-26;12-33;5-30;13-34,13-34,0.49,67,10,1677.02831728,1
GEMS170,2018_Oct_19_1033,George,MP,1.2,2,GEMS157,10,6,3,SimpleHill,0-0,0,25,13-34,6-28;20-35;16-43;6-34;19-42;17-26,17-26,1.0,66,-1,1682.10837973,1
GEMS170,2018_Oct_19_1033,George,MP,1.2,2,GEMS157,10,6,3,SimpleHill,0-0,0,26,17-26,13-35;24-23;7-26;9-26;8-24;22-32,22-32,1.75,77,11,1687.91909187,1
GEMS170,2018_Oct_19_1033,George,MP,1.2,2,GEMS157,10,6,3,SimpleHill,0-0,0,27,22-32,31-31;25-32;20-33;17-30;25-23;22-36,17-30,4.19,70,-7,1696.19633597,1
GEMS170,2018_Oct_19_1033,George,MP,1.2,2,GEMS157,10,6,3,SimpleHill,0-0,0,28,17-30,20-28;19-33;13-26;25-33;17-26;15-24,19-33,0.4,75,5,1700.65842728,1
GEMS170,2018_Oct_19_1033,George,MP,1.2,2,GEMS157,10,6,3,SimpleHill,0-0,0,29,19-33,13-31;26-39;20-32;15-30;21-41;24-33,21-41,0.59,81,6,1705.30475923,1
GEMS170,2018_Oct_19_1033,George,MP,1.2,2,GEMS157,10,6,3,SimpleHill,0-0,0,30,21-41,25-42;22-37;23-35;30-38;27-37;21-49,21-49,0.41,83,2,1709.76969904,1
