subj_id,date,computer,experimenter,instructions,sight_radius,n_gabors,start_pos_list_ix,start_pos_list,landscape_ix,landscape_name,starting_pos,starting_score,trial,feedback,pos,stims,selected,rt,score,delta,exp_time
GEMS131,2018_Apr_02_1154,George,AM,orientation,8,6,0,0-0;0-0;0-0;0-0,0,OrientationBias,0-0,0,0,training,0-0,4-3;3-7;7-1;3-0;3-5;4-1,4-1,163.16,15,15,230.636148592
GEMS131,2018_Apr_02_1154,George,AM,orientation,8,6,0,0-0;0-0;0-0;0-0,0,OrientationBias,0-0,0,1,training,4-1,5-1;10-6;2-7;10-0;1-7;4-6,10-0,6.73,36,21,249.786240747
GEMS131,2018_Apr_02_1154,George,AM,orientation,8,6,0,0-0;0-0;0-0;0-0,0,OrientationBias,0-0,0,2,training,10-0,4-4;6-6;7-5;10-2;7-4;8-6,8-6,6.24,29,-7,262.558613473
GEMS131,2018_Apr_02_1154,George,AM,orientation,8,6,0,0-0;0-0;0-0;0-0,0,OrientationBias,0-0,0,3,training,8-6,5-5;9-7;4-11;14-9;6-8;12-8,14-9,11.97,48,19,284.853589233
GEMS131,2018_Apr_02_1154,George,AM,orientation,8,6,0,0-0;0-0;0-0;0-0,0,OrientationBias,0-0,0,4,training,14-9,13-10;18-14;19-7;6-9;10-8;21-10,21-10,13.27,66,18,302.418657697
GEMS131,2018_Apr_02_1154,George,AM,orientation,8,6,0,0-0;0-0;0-0;0-0,0,OrientationBias,0-0,0,5,training,21-10,14-12;16-16;25-8;21-16;21-9;18-9,25-8,11.41,75,9,317.677066695
GEMS131,2018_Apr_02_1154,George,AM,orientation,8,6,0,0-0;0-0;0-0;0-0,0,OrientationBias,0-0,0,6,training,25-8,26-7;27-1;23-12;23-14;26-10;19-8,27-1,13.77,78,3,335.116322684
GEMS131,2018_Apr_02_1154,George,AM,orientation,8,6,0,0-0;0-0;0-0;0-0,0,OrientationBias,0-0,0,7,training,27-1,26-0;27-7;27-3;22-1;25-3;22-7,27-7,12.22,78,0,351.039075009
GEMS131,2018_Apr_02_1154,George,AM,orientation,8,6,0,0-0;0-0;0-0;0-0,0,OrientationBias,0-0,0,8,training,27-7,31-5;30-4;34-10;26-10;32-11;27-0,34-10,10.64,89,11,364.798345376
GEMS131,2018_Apr_02_1154,George,AM,orientation,8,6,0,0-0;0-0;0-0;0-0,0,OrientationBias,0-0,0,9,training,34-10,38-7;32-7;32-3;28-15;30-12;30-7,38-7,17.04,94,5,384.57854085
GEMS131,2018_Apr_02_1154,George,AM,orientation,8,6,0,0-0;0-0;0-0;0-0,0,OrientationBias,0-0,0,10,training,38-7,34-11;44-3;41-1;31-9;34-7;36-3,34-7,7.62,89,-5,395.78511402
GEMS131,2018_Apr_02_1154,George,AM,orientation,8,6,0,0-0;0-0;0-0;0-0,0,OrientationBias,0-0,0,11,training,34-7,34-5;41-4;34-2;34-15;34-8;33-10,34-5,11.2,89,0,413.167691177
GEMS131,2018_Apr_02_1154,George,AM,orientation,8,6,0,0-0;0-0;0-0;0-0,0,OrientationBias,0-0,0,12,training,34-5,30-9;41-6;29-1;26-5;33-2;34-4,41-6,5.77,96,7,424.676126262
GEMS131,2018_Apr_02_1154,George,AM,orientation,8,6,0,0-0;0-0;0-0;0-0,0,OrientationBias,0-0,0,13,training,41-6,46-8;41-8;45-1;37-4;41-6;42-11,41-8,7.55,96,0,435.216741238
GEMS131,2018_Apr_02_1154,George,AM,orientation,8,6,0,0-0;0-0;0-0;0-0,0,OrientationBias,0-0,0,14,training,41-8,43-6;39-1;41-11;37-10;48-11;40-15,40-15,11.24,96,0,455.088282555
GEMS131,2018_Apr_02_1154,George,AM,orientation,8,6,0,0-0;0-0;0-0;0-0,0,OrientationBias,0-0,0,15,training,40-15,40-14;46-10;44-18;47-17;42-10;39-16,42-10,3.81,97,1,462.804924564
GEMS131,2018_Apr_02_1154,George,AM,orientation,8,6,0,0-0;0-0;0-0;0-0,0,OrientationBias,0-0,0,16,training,42-10,42-14;47-13;48-15;43-12;45-9;47-11,42-14,6.04,97,0,472.714272042
GEMS131,2018_Apr_02_1154,George,AM,orientation,8,6,0,0-0;0-0;0-0;0-0,0,OrientationBias,0-0,0,17,training,42-14,43-14;40-10;35-11;46-13;45-14;45-7,45-14,8.96,99,2,487.825389377
GEMS131,2018_Apr_02_1154,George,AM,orientation,8,6,0,0-0;0-0;0-0;0-0,0,OrientationBias,0-0,0,18,training,45-14,39-9;49-11;49-12;39-19;49-13;45-8,49-13,6.43,99,0,498.273354771
GEMS131,2018_Apr_02_1154,George,AM,orientation,8,6,0,0-0;0-0;0-0;0-0,0,OrientationBias,0-0,0,19,training,49-13,47-17;55-12;54-13;50-10;49-15;43-16,55-12,13.0,99,0,514.896893627
GEMS131,2018_Apr_02_1154,George,AM,orientation,8,6,0,0-0;0-0;0-0;0-0,0,OrientationBias,0-0,0,20,training,55-12,56-5;50-6;54-16;54-10;49-8;56-18,50-6,4.61,100,1,524.917530651
GEMS131,2018_Apr_02_1154,George,AM,orientation,8,6,0,0-0;0-0;0-0;0-0,0,OrientationBias,0-0,0,21,training,50-6,45-6;53-2;47-2;44-5;48-12;51-9,48-12,18.56,99,-1,546.355914707
GEMS131,2018_Apr_02_1154,George,AM,orientation,8,6,0,0-0;0-0;0-0;0-0,0,OrientationBias,0-0,0,22,training,48-12,45-13;45-11;45-7;53-15;45-16;56-12,56-12,9.57,98,-1,562.116899811
GEMS131,2018_Apr_02_1154,George,AM,orientation,8,6,0,0-0;0-0;0-0;0-0,0,OrientationBias,0-0,0,23,training,56-12,50-16;61-14;53-9;56-11;62-11;52-18,61-14,19.43,95,-3,586.975879727
GEMS131,2018_Apr_02_1154,George,AM,orientation,8,6,0,0-0;0-0;0-0;0-0,0,OrientationBias,0-0,0,24,training,61-14,63-8;57-14;54-13;69-14;61-21;68-12,57-14,5.9,98,3,597.507510017
GEMS131,2018_Apr_02_1154,George,AM,orientation,8,6,0,0-0;0-0;0-0;0-0,0,OrientationBias,0-0,0,25,training,57-14,58-21;59-8;62-16;58-7;53-13;56-14,59-8,13.14,96,-2,614.120700913
GEMS131,2018_Apr_02_1154,George,AM,orientation,8,6,0,0-0;0-0;0-0;0-0,0,OrientationBias,0-0,0,26,training,59-8,62-14;59-12;59-11;57-15;52-6;53-4,52-6,8.89,99,3,627.706652873
GEMS131,2018_Apr_02_1154,George,AM,orientation,8,6,0,0-0;0-0;0-0;0-0,0,OrientationBias,0-0,0,27,training,52-6,58-1;49-3;48-7;56-7;54-9;58-5,49-3,6.21,99,0,636.942990192
GEMS131,2018_Apr_02_1154,George,AM,orientation,8,6,0,0-0;0-0;0-0;0-0,0,OrientationBias,0-0,0,28,training,49-3,46-10;44-8;42-4;45-6;43-1;49-11,49-11,12.07,99,0,651.908667921
GEMS131,2018_Apr_02_1154,George,AM,orientation,8,6,0,0-0;0-0;0-0;0-0,0,OrientationBias,0-0,0,29,training,49-11,42-8;49-14;49-10;46-14;43-12;49-19,49-19,8.95,99,0,664.213039044
GEMS131,2018_Apr_02_1154,George,AM,orientation,8,6,0,0-0;0-0;0-0;0-0,1,SimpleHill,0-0,0,0,selected,0-0,2-6;1-5;3-3;1-2;4-5;5-0,2-6,7.06,15,15,695.074854982
GEMS131,2018_Apr_02_1154,George,AM,orientation,8,6,0,0-0;0-0;0-0;0-0,1,SimpleHill,0-0,0,1,selected,2-6,4-1;2-9;5-10;6-2;6-0;2-12,4-1,14.92,9,-6,713.548802949
GEMS131,2018_Apr_02_1154,George,AM,orientation,8,6,0,0-0;0-0;0-0;0-0,1,SimpleHill,0-0,0,2,selected,4-1,10-4;4-9;5-6;6-3;8-6;11-0,11-0,4.63,19,10,721.765272108
GEMS131,2018_Apr_02_1154,George,AM,orientation,8,6,0,0-0;0-0;0-0;0-0,1,SimpleHill,0-0,0,3,selected,11-0,16-4;12-2;16-3;13-2;14-1;4-2,16-4,6.94,34,15,732.293100336
GEMS131,2018_Apr_02_1154,George,AM,orientation,8,6,0,0-0;0-0;0-0;0-0,1,SimpleHill,0-0,0,4,selected,16-4,16-0;11-10;10-2;20-5;18-4;13-10,16-0,3.71,26,-8,739.577656434
GEMS131,2018_Apr_02_1154,George,AM,orientation,8,6,0,0-0;0-0;0-0;0-0,1,SimpleHill,0-0,0,5,selected,16-0,16-4;18-3;23-2;23-1;11-5;11-6,16-4,9.66,34,8,752.827825923
GEMS131,2018_Apr_02_1154,George,AM,orientation,8,6,0,0-0;0-0;0-0;0-0,1,SimpleHill,0-0,0,6,selected,16-4,9-3;18-0;17-5;17-3;24-4;19-11,18-0,10.23,29,-5,766.622452141
GEMS131,2018_Apr_02_1154,George,AM,orientation,8,6,0,0-0;0-0;0-0;0-0,1,SimpleHill,0-0,0,7,selected,18-0,24-3;14-5;18-1;16-1;22-4;14-0,24-3,2.76,42,13,772.958182436
GEMS131,2018_Apr_02_1154,George,AM,orientation,8,6,0,0-0;0-0;0-0;0-0,1,SimpleHill,0-0,0,8,selected,24-3,25-2;28-8;31-4;21-10;22-6;27-7,27-7,5.64,52,10,782.163552697
GEMS131,2018_Apr_02_1154,George,AM,orientation,8,6,0,0-0;0-0;0-0;0-0,1,SimpleHill,0-0,0,9,selected,27-7,29-3;29-10;32-2;23-11;25-9;30-12,29-10,15.71,59,7,801.434382576
GEMS131,2018_Apr_02_1154,George,AM,orientation,8,6,0,0-0;0-0;0-0;0-0,1,SimpleHill,0-0,0,10,selected,29-10,24-4;36-13;34-14;26-6;35-14;28-12,35-14,9.41,69,10,814.411604132
GEMS131,2018_Apr_02_1154,George,AM,orientation,8,6,0,0-0;0-0;0-0;0-0,1,SimpleHill,0-0,0,11,selected,35-14,42-16;37-13;42-11;39-18;36-13;31-16,42-11,9.99,68,-1,827.969429217
GEMS131,2018_Apr_02_1154,George,AM,orientation,8,6,0,0-0;0-0;0-0;0-0,1,SimpleHill,0-0,0,12,selected,42-11,41-4;42-14;46-17;39-16;44-15;41-6,41-6,3.3,59,-9,834.838992041
GEMS131,2018_Apr_02_1154,George,AM,orientation,8,6,0,0-0;0-0;0-0;0-0,1,SimpleHill,0-0,0,13,selected,41-6,42-10;41-14;38-8;39-3;37-11;47-6,47-6,6.62,61,2,845.024331854
GEMS131,2018_Apr_02_1154,George,AM,orientation,8,6,0,0-0;0-0;0-0;0-0,1,SimpleHill,0-0,0,14,selected,47-6,42-2;51-5;43-2;52-4;46-2;54-7,43-2,5.94,52,-9,854.528721607
GEMS131,2018_Apr_02_1154,George,AM,orientation,8,6,0,0-0;0-0;0-0;0-0,1,SimpleHill,0-0,0,15,selected,43-2,51-2;50-2;44-1;41-8;49-0;41-4,41-4,4.18,56,4,862.268617718
GEMS131,2018_Apr_02_1154,George,AM,orientation,8,6,0,0-0;0-0;0-0;0-0,1,SimpleHill,0-0,0,16,selected,41-4,37-9;46-9;45-5;37-7;36-4;38-8,37-9,6.11,63,7,871.927822914
GEMS131,2018_Apr_02_1154,George,AM,orientation,8,6,0,0-0;0-0;0-0;0-0,1,SimpleHill,0-0,0,17,selected,37-9,32-5;40-7;38-14;37-15;31-7;42-9,42-9,11.78,65,2,887.268408057
GEMS131,2018_Apr_02_1154,George,AM,orientation,8,6,0,0-0;0-0;0-0;0-0,1,SimpleHill,0-0,0,18,selected,42-9,49-11;38-12;44-2;40-12;37-4;46-5,46-5,10.8,59,-6,901.624859879
GEMS131,2018_Apr_02_1154,George,AM,orientation,8,6,0,0-0;0-0;0-0;0-0,1,SimpleHill,0-0,0,19,selected,46-5,51-5;53-4;40-9;43-11;39-5;40-4,40-9,2.7,64,5,907.891594491
GEMS131,2018_Apr_02_1154,George,AM,orientation,8,6,0,0-0;0-0;0-0;0-0,1,SimpleHill,0-0,0,20,selected,40-9,39-6;47-11;45-5;47-7;39-3;42-10,39-3,3.09,53,-11,914.55604857
GEMS131,2018_Apr_02_1154,George,AM,orientation,8,6,0,0-0;0-0;0-0;0-0,1,SimpleHill,0-0,0,21,selected,39-3,38-2;44-4;47-3;39-9;35-2;32-3,38-2,2.21,51,-2,920.344189707
GEMS131,2018_Apr_02_1154,George,AM,orientation,8,6,0,0-0;0-0;0-0;0-0,1,SimpleHill,0-0,0,22,selected,38-2,33-0;32-2;45-0;34-7;38-6;40-7,45-0,5.18,49,-2,929.097376711
GEMS131,2018_Apr_02_1154,George,AM,orientation,8,6,0,0-0;0-0;0-0;0-0,1,SimpleHill,0-0,0,23,selected,45-0,50-0;44-6;45-8;49-1;40-4;41-2,50-0,12.54,50,1,945.192542222
GEMS131,2018_Apr_02_1154,George,AM,orientation,8,6,0,0-0;0-0;0-0;0-0,1,SimpleHill,0-0,0,24,selected,50-0,42-0;57-3;47-7;55-1;48-2;55-6,48-2,7.87,53,3,956.631179151
GEMS131,2018_Apr_02_1154,George,AM,orientation,8,6,0,0-0;0-0;0-0;0-0,1,SimpleHill,0-0,0,25,selected,48-2,52-2;47-6;52-5;49-8;46-5;47-8,49-8,4.28,64,11,964.467365899
GEMS131,2018_Apr_02_1154,George,AM,orientation,8,6,0,0-0;0-0;0-0;0-0,1,SimpleHill,0-0,0,26,selected,49-8,52-1;48-14;54-8;43-8;53-8;46-12,46-12,7.88,70,6,975.910827587
GEMS131,2018_Apr_02_1154,George,AM,orientation,8,6,0,0-0;0-0;0-0;0-0,1,SimpleHill,0-0,0,27,selected,46-12,45-11;44-15;41-9;53-11;49-11;46-10,45-11,5.16,69,-1,984.642929118
GEMS131,2018_Apr_02_1154,George,AM,orientation,8,6,0,0-0;0-0;0-0;0-0,1,SimpleHill,0-0,0,28,selected,45-11,42-11;43-17;41-6;42-15;42-17;44-4,41-6,3.68,59,-10,991.877033149
GEMS131,2018_Apr_02_1154,George,AM,orientation,8,6,0,0-0;0-0;0-0;0-0,1,SimpleHill,0-0,0,29,selected,41-6,37-12;37-4;45-3;45-9;40-7;46-1,46-1,7.14,51,-8,1002.58622212
GEMS131,2018_Apr_02_1154,George,AM,orientation,8,6,0,0-0;0-0;0-0;0-0,1,SimpleHill,0-0,0,30,selected,46-1,39-3;53-0;40-6;43-7;46-4;43-8,46-4,2.55,57,6,1008.71849983
GEMS131,2018_Apr_02_1154,George,AM,orientation,8,6,0,0-0;0-0;0-0;0-0,1,SimpleHill,0-0,0,31,selected,46-4,41-4;40-1;40-8;48-9;42-0;48-1,41-4,9.5,56,-1,1021.78316658
GEMS131,2018_Apr_02_1154,George,AM,orientation,8,6,0,0-0;0-0;0-0;0-0,1,SimpleHill,0-0,0,32,selected,41-4,40-1;40-0;43-3;39-0;41-1;48-4,48-4,3.22,57,1,1028.58404485
GEMS131,2018_Apr_02_1154,George,AM,orientation,8,6,0,0-0;0-0;0-0;0-0,1,SimpleHill,0-0,0,33,selected,48-4,48-8;55-4;48-11;47-7;46-10;51-2,51-2,6.4,53,-4,1038.56281917
GEMS131,2018_Apr_02_1154,George,AM,orientation,8,6,0,0-0;0-0;0-0;0-0,1,SimpleHill,0-0,0,34,selected,51-2,51-7;47-3;57-5;46-3;51-6;48-2,48-2,6.19,53,0,1048.32519764
GEMS131,2018_Apr_02_1154,George,AM,orientation,8,6,0,0-0;0-0;0-0;0-0,1,SimpleHill,0-0,0,35,selected,48-2,47-9;50-5;45-6;48-4;52-1;50-2,50-5,2.52,59,6,1054.399826
GEMS131,2018_Apr_02_1154,George,AM,orientation,8,6,0,0-0;0-0;0-0;0-0,1,SimpleHill,0-0,0,36,selected,50-5,46-6;51-4;52-1;52-7;46-3;43-3,46-6,7.6,60,1,1065.56734913
GEMS131,2018_Apr_02_1154,George,AM,orientation,8,6,0,0-0;0-0;0-0;0-0,1,SimpleHill,0-0,0,37,selected,46-6,48-13;50-9;46-0;41-11;52-5;44-8,46-0,7.88,49,-11,1077.02840536
GEMS131,2018_Apr_02_1154,George,AM,orientation,8,6,0,0-0;0-0;0-0;0-0,1,SimpleHill,0-0,0,38,selected,46-0,48-0;50-0;44-7;47-4;52-4;46-4,52-4,4.1,57,8,1084.69581805
GEMS131,2018_Apr_02_1154,George,AM,orientation,8,6,0,0-0;0-0;0-0;0-0,1,SimpleHill,0-0,0,39,selected,52-4,48-10;51-3;52-3;56-9;57-4;51-6,48-10,4.54,67,10,1092.80887803
GEMS131,2018_Apr_02_1154,George,AM,orientation,8,6,0,0-0;0-0;0-0;0-0,2,SimpleHill,0-0,0,0,selected,0-0,2-4;7-3;4-6;6-1;3-4;1-1,7-3,5.64,18,18,1115.64257317
GEMS131,2018_Apr_02_1154,George,AM,orientation,8,6,0,0-0;0-0;0-0;0-0,2,SimpleHill,0-0,0,1,selected,7-3,2-9;3-7;0-3;4-7;5-3;3-9,0-3,6.94,5,-13,1126.12892122
GEMS131,2018_Apr_02_1154,George,AM,orientation,8,6,0,0-0;0-0;0-0;0-0,2,SimpleHill,0-0,0,2,selected,0-3,1-6;6-7;7-3;4-6;0-2;5-8,5-8,4.1,24,19,1133.79417649
GEMS131,2018_Apr_02_1154,George,AM,orientation,8,6,0,0-0;0-0;0-0;0-0,2,SimpleHill,0-0,0,3,selected,5-8,1-10;12-8;9-9;1-12;12-6;6-8,12-8,2.65,35,11,1140.01153903
GEMS131,2018_Apr_02_1154,George,AM,orientation,8,6,0,0-0;0-0;0-0;0-0,2,SimpleHill,0-0,0,4,selected,12-8,15-2;8-3;13-11;18-4;8-5;13-7,8-5,2.73,24,-11,1146.30983703
GEMS131,2018_Apr_02_1154,George,AM,orientation,8,6,0,0-0;0-0;0-0;0-0,2,SimpleHill,0-0,0,5,selected,8-5,0-5;8-6;9-4;12-1;14-3;4-4,8-6,5.92,26,2,1155.81335069
GEMS131,2018_Apr_02_1154,George,AM,orientation,8,6,0,0-0;0-0;0-0;0-0,2,SimpleHill,0-0,0,6,selected,8-6,14-11;6-9;12-1;2-2;5-8;5-10,14-11,5.13,43,17,1164.52234536
GEMS131,2018_Apr_02_1154,George,AM,orientation,8,6,0,0-0;0-0;0-0;0-0,2,SimpleHill,0-0,0,7,selected,14-11,11-15;21-10;14-17;15-7;14-19;15-14,21-10,5.11,51,8,1173.21481012
GEMS131,2018_Apr_02_1154,George,AM,orientation,8,6,0,0-0;0-0;0-0;0-0,2,SimpleHill,0-0,0,8,selected,21-10,17-13;21-10;25-12;17-6;18-5;24-7,21-10,6.78,51,0,1183.55910193
GEMS131,2018_Apr_02_1154,George,AM,orientation,8,6,0,0-0;0-0;0-0;0-0,2,SimpleHill,0-0,0,9,selected,21-10,24-13;16-8;20-13;17-13;18-15;25-5,25-5,3.19,47,-4,1190.32749015
GEMS131,2018_Apr_02_1154,George,AM,orientation,8,6,0,0-0;0-0;0-0;0-0,2,SimpleHill,0-0,0,10,selected,25-5,26-4;31-2;21-3;21-8;21-6;29-0,31-2,7.36,46,-1,1201.25676788
GEMS131,2018_Apr_02_1154,George,AM,orientation,8,6,0,0-0;0-0;0-0;0-0,2,SimpleHill,0-0,0,11,selected,31-2,24-3;31-3;37-7;33-9;37-4;28-2,37-4,3.61,54,8,1208.43765937
GEMS131,2018_Apr_02_1154,George,AM,orientation,8,6,0,0-0;0-0;0-0;0-0,2,SimpleHill,0-0,0,12,selected,37-4,30-2;37-10;34-5;36-0;42-7;37-3,42-7,7.18,61,7,1219.17225442
GEMS131,2018_Apr_02_1154,George,AM,orientation,8,6,0,0-0;0-0;0-0;0-0,2,SimpleHill,0-0,0,13,selected,42-7,38-8;48-8;45-2;37-12;48-7;47-12,38-8,5.22,61,0,1227.96872885
GEMS131,2018_Apr_02_1154,George,AM,orientation,8,6,0,0-0;0-0;0-0;0-0,2,SimpleHill,0-0,0,14,selected,38-8,45-7;45-6;32-9;36-14;38-5;40-10,38-5,9.45,56,-5,1240.99363431
GEMS131,2018_Apr_02_1154,George,AM,orientation,8,6,0,0-0;0-0;0-0;0-0,2,SimpleHill,0-0,0,15,selected,38-5,33-9;38-13;44-7;42-1;34-7;43-6,43-6,6.62,60,4,1251.16868378
GEMS131,2018_Apr_02_1154,George,AM,orientation,8,6,0,0-0;0-0;0-0;0-0,2,SimpleHill,0-0,0,16,selected,43-6,39-0;40-1;50-8;45-7;40-9;44-3,40-9,7.25,64,4,1261.9851733
GEMS131,2018_Apr_02_1154,George,AM,orientation,8,6,0,0-0;0-0;0-0;0-0,2,SimpleHill,0-0,0,17,selected,40-9,40-10;46-7;33-6;36-7;44-14;35-8,46-7,7.01,62,-2,1272.55630368
GEMS131,2018_Apr_02_1154,George,AM,orientation,8,6,0,0-0;0-0;0-0;0-0,2,SimpleHill,0-0,0,18,selected,46-7,47-4;42-5;49-8;49-11;44-13;52-9,52-9,3.43,66,4,1279.55865477
GEMS131,2018_Apr_02_1154,George,AM,orientation,8,6,0,0-0;0-0;0-0;0-0,2,SimpleHill,0-0,0,19,selected,52-9,56-7;55-14;53-9;52-9;52-17;47-6,47-6,9.06,61,-5,1292.18892645
GEMS131,2018_Apr_02_1154,George,AM,orientation,8,6,0,0-0;0-0;0-0;0-0,2,SimpleHill,0-0,0,20,selected,47-6,48-3;41-9;52-8;43-2;51-5;44-5,41-9,8.65,64,3,1304.40368664
GEMS131,2018_Apr_02_1154,George,AM,orientation,8,6,0,0-0;0-0;0-0;0-0,2,SimpleHill,0-0,0,21,selected,41-9,39-15;42-4;47-12;46-11;34-12;39-16,39-16,7.99,74,10,1315.96660856
GEMS131,2018_Apr_02_1154,George,AM,orientation,8,6,0,0-0;0-0;0-0;0-0,2,SimpleHill,0-0,0,22,selected,39-16,46-15;34-10;44-18;37-15;35-12;36-18,46-15,8.02,75,1,1327.54594164
GEMS131,2018_Apr_02_1154,George,AM,orientation,8,6,0,0-0;0-0;0-0;0-0,2,SimpleHill,0-0,0,23,selected,46-15,47-16;49-21;46-14;51-18;52-17;48-22,52-17,5.15,78,3,1336.27674936
GEMS131,2018_Apr_02_1154,George,AM,orientation,8,6,0,0-0;0-0;0-0;0-0,2,SimpleHill,0-0,0,24,selected,52-17,48-19;57-22;44-17;49-15;54-11;45-19,57-22,14.83,83,5,1354.65941582
GEMS131,2018_Apr_02_1154,George,AM,orientation,8,6,0,0-0;0-0;0-0;0-0,2,SimpleHill,0-0,0,25,selected,57-22,61-24;61-20;61-16;64-20;52-27;55-15,52-27,4.5,89,6,1362.74249302
GEMS131,2018_Apr_02_1154,George,AM,orientation,8,6,0,0-0;0-0;0-0;0-0,2,SimpleHill,0-0,0,26,selected,52-27,54-27;58-24;51-31;53-27;50-33;52-20,50-33,5.12,94,5,1371.43498403
GEMS131,2018_Apr_02_1154,George,AM,orientation,8,6,0,0-0;0-0;0-0;0-0,2,SimpleHill,0-0,0,27,selected,50-33,53-28;46-37;47-34;46-31;48-39;52-30,47-34,9.08,94,0,1384.07404099
GEMS131,2018_Apr_02_1154,George,AM,orientation,8,6,0,0-0;0-0;0-0;0-0,2,SimpleHill,0-0,0,28,selected,47-34,41-29;43-30;45-35;42-36;44-40;52-39,43-30,14.63,91,-3,1402.26388483
GEMS131,2018_Apr_02_1154,George,AM,orientation,8,6,0,0-0;0-0;0-0;0-0,2,SimpleHill,0-0,0,29,selected,43-30,45-35;50-29;46-32;50-33;43-26;44-28,50-29,7.28,91,0,1413.12566939
GEMS131,2018_Apr_02_1154,George,AM,orientation,8,6,0,0-0;0-0;0-0;0-0,2,SimpleHill,0-0,0,30,selected,50-29,50-27;49-26;56-33;46-24;53-32;52-31,46-24,4.42,86,-5,1421.09912986
GEMS131,2018_Apr_02_1154,George,AM,orientation,8,6,0,0-0;0-0;0-0;0-0,2,SimpleHill,0-0,0,31,selected,46-24,41-18;46-31;39-23;49-20;46-24;48-23,48-23,6.1,85,-1,1430.75814908
GEMS131,2018_Apr_02_1154,George,AM,orientation,8,6,0,0-0;0-0;0-0;0-0,2,SimpleHill,0-0,0,32,selected,48-23,50-19;53-24;47-16;42-25;50-29;49-25,42-25,6.3,86,1,1440.62246943
GEMS131,2018_Apr_02_1154,George,AM,orientation,8,6,0,0-0;0-0;0-0;0-0,2,SimpleHill,0-0,0,33,selected,42-25,43-22;40-26;42-33;42-32;44-24;41-31,40-26,5.18,86,0,1449.37674251
GEMS131,2018_Apr_02_1154,George,AM,orientation,8,6,0,0-0;0-0;0-0;0-0,2,SimpleHill,0-0,0,34,selected,40-26,33-27;37-30;46-24;37-22;47-27;35-22,47-27,7.84,89,3,1460.77740234
GEMS131,2018_Apr_02_1154,George,AM,orientation,8,6,0,0-0;0-0;0-0;0-0,2,SimpleHill,0-0,0,35,selected,47-27,46-20;46-22;48-33;50-20;51-21;43-25,50-20,9.14,82,-7,1473.47835404
GEMS131,2018_Apr_02_1154,George,AM,orientation,8,6,0,0-0;0-0;0-0;0-0,2,SimpleHill,0-0,0,36,selected,50-20,50-14;51-13;47-25;52-26;45-20;54-24,51-13,5.33,72,-10,1482.37855839
GEMS131,2018_Apr_02_1154,George,AM,orientation,8,6,0,0-0;0-0;0-0;0-0,2,SimpleHill,0-0,0,37,selected,51-13,58-10;46-8;49-11;52-19;45-11;54-10,45-11,4.26,69,-3,1490.21073182
GEMS131,2018_Apr_02_1154,George,AM,orientation,8,6,0,0-0;0-0;0-0;0-0,2,SimpleHill,0-0,0,38,selected,45-11,49-10;48-7;45-7;40-9;47-8;51-13,45-7,5.55,62,-7,1499.33529913
GEMS131,2018_Apr_02_1154,George,AM,orientation,8,6,0,0-0;0-0;0-0;0-0,2,SimpleHill,0-0,0,39,selected,45-7,42-0;45-8;49-13;50-3;52-7;45-3,45-8,3.04,64,2,1505.95035585
GEMS131,2018_Apr_02_1154,George,AM,orientation,8,6,0,0-0;0-0;0-0;0-0,3,SimpleHill,0-0,0,0,selected,0-0,0-2;6-2;4-3;5-5;1-1;4-6,6-2,7.76,15,15,1525.37066938
GEMS131,2018_Apr_02_1154,George,AM,orientation,8,6,0,0-0;0-0;0-0;0-0,3,SimpleHill,0-0,0,1,selected,6-2,2-2;5-9;4-7;6-1;13-5;11-0,13-5,3.58,32,17,1532.52710578
GEMS131,2018_Apr_02_1154,George,AM,orientation,8,6,0,0-0;0-0;0-0;0-0,3,SimpleHill,0-0,0,2,selected,13-5,9-4;18-3;12-1;15-2;15-5;7-9,18-3,2.41,35,3,1538.50970777
GEMS131,2018_Apr_02_1154,George,AM,orientation,8,6,0,0-0;0-0;0-0;0-0,3,SimpleHill,0-0,0,3,selected,18-3,11-4;19-0;18-2;24-5;12-3;10-3,19-0,4.45,30,-5,1546.53663046
GEMS131,2018_Apr_02_1154,George,AM,orientation,8,6,0,0-0;0-0;0-0;0-0,3,SimpleHill,0-0,0,4,selected,19-0,17-7;12-2;19-6;14-2;23-4;24-4,24-4,6.34,44,14,1556.44921152
GEMS131,2018_Apr_02_1154,George,AM,orientation,8,6,0,0-0;0-0;0-0;0-0,3,SimpleHill,0-0,0,5,selected,24-4,24-9;27-1;25-3;32-4;19-9;21-2,21-2,14.38,37,-7,1574.39378233
GEMS131,2018_Apr_02_1154,George,AM,orientation,8,6,0,0-0;0-0;0-0;0-0,3,SimpleHill,0-0,0,6,selected,21-2,18-1;22-1;19-5;25-3;27-6;18-8,27-6,3.77,50,13,1581.72038421
GEMS131,2018_Apr_02_1154,George,AM,orientation,8,6,0,0-0;0-0;0-0;0-0,3,SimpleHill,0-0,0,7,selected,27-6,25-10;29-2;29-8;21-1;27-12;27-8,29-2,2.59,45,-5,1587.87651364
GEMS131,2018_Apr_02_1154,George,AM,orientation,8,6,0,0-0;0-0;0-0;0-0,3,SimpleHill,0-0,0,8,selected,29-2,29-8;26-2;35-4;28-2;27-8;36-0,36-0,3.25,46,1,1594.70818612
GEMS131,2018_Apr_02_1154,George,AM,orientation,8,6,0,0-0;0-0;0-0;0-0,3,SimpleHill,0-0,0,9,selected,36-0,43-1;40-2;31-2;34-5;29-2;34-0,34-0,3.99,44,-2,1602.28206482
GEMS131,2018_Apr_02_1154,George,AM,orientation,8,6,0,0-0;0-0;0-0;0-0,3,SimpleHill,0-0,0,10,selected,34-0,32-5;28-1;37-1;31-4;29-3;37-0,32-5,4.84,53,9,1610.70003495
GEMS131,2018_Apr_02_1154,George,AM,orientation,8,6,0,0-0;0-0;0-0;0-0,3,SimpleHill,0-0,0,11,selected,32-5,30-2;27-8;34-7;36-2;32-7;32-13,30-2,6.11,45,-8,1620.37540164
GEMS131,2018_Apr_02_1154,George,AM,orientation,8,6,0,0-0;0-0;0-0;0-0,3,SimpleHill,0-0,0,12,selected,30-2,28-2;24-6;31-1;24-2;36-0;27-0,36-0,11.8,46,1,1635.72685169
GEMS131,2018_Apr_02_1154,George,AM,orientation,8,6,0,0-0;0-0;0-0;0-0,3,SimpleHill,0-0,0,13,selected,36-0,36-6;34-0;37-2;31-0;38-3;38-1,36-6,2.11,57,11,1641.40425288
GEMS131,2018_Apr_02_1154,George,AM,orientation,8,6,0,0-0;0-0;0-0;0-0,3,SimpleHill,0-0,0,14,selected,36-6,32-12;31-5;32-1;38-3;29-4;33-8,32-12,4.94,64,7,1649.91797654
GEMS131,2018_Apr_02_1154,George,AM,orientation,8,6,0,0-0;0-0;0-0;0-0,3,SimpleHill,0-0,0,15,selected,32-12,28-6;28-16;31-9;29-9;30-19;35-8,35-8,2.34,60,-4,1655.81344255
GEMS131,2018_Apr_02_1154,George,AM,orientation,8,6,0,0-0;0-0;0-0;0-0,3,SimpleHill,0-0,0,16,selected,35-8,30-13;40-9;36-13;34-1;35-5;32-2,40-9,5.01,64,4,1664.39117261
GEMS131,2018_Apr_02_1154,George,AM,orientation,8,6,0,0-0;0-0;0-0;0-0,3,SimpleHill,0-0,0,17,selected,40-9,37-14;35-3;38-4;38-15;35-9;46-12,38-15,6.24,72,8,1674.2217334
GEMS131,2018_Apr_02_1154,George,AM,orientation,8,6,0,0-0;0-0;0-0;0-0,3,SimpleHill,0-0,0,18,selected,38-15,36-11;37-16;34-16;40-22;41-20;32-20,41-20,10.42,80,8,1688.21063387
GEMS131,2018_Apr_02_1154,George,AM,orientation,8,6,0,0-0;0-0;0-0;0-0,3,SimpleHill,0-0,0,19,selected,41-20,38-21;47-17;46-19;34-23;45-25;39-15,39-15,5.38,73,-7,1697.15288272
GEMS131,2018_Apr_02_1154,George,AM,orientation,8,6,0,0-0;0-0;0-0;0-0,3,SimpleHill,0-0,0,20,selected,39-15,37-20;41-13;31-15;44-17;37-9;43-13,37-20,6.83,78,5,1707.5520871
GEMS131,2018_Apr_02_1154,George,AM,orientation,8,6,0,0-0;0-0;0-0;0-0,3,SimpleHill,0-0,0,21,selected,37-20,39-21;37-27;42-23;31-19;42-16;37-17,39-21,5.77,80,2,1716.86370384
GEMS131,2018_Apr_02_1154,George,AM,orientation,8,6,0,0-0;0-0;0-0;0-0,3,SimpleHill,0-0,0,22,selected,39-21,45-26;37-17;41-27;35-27;38-17;40-18,45-26,10.67,87,7,1731.09488319
GEMS131,2018_Apr_02_1154,George,AM,orientation,8,6,0,0-0;0-0;0-0;0-0,3,SimpleHill,0-0,0,23,selected,45-26,46-19;40-22;39-21;49-23;46-23;46-29,46-19,5.5,80,-7,1740.15692646
GEMS131,2018_Apr_02_1154,George,AM,orientation,8,6,0,0-0;0-0;0-0;0-0,3,SimpleHill,0-0,0,24,selected,46-19,51-19;43-20;45-22;45-12;48-15;46-25,45-22,3.32,83,3,1747.05082722
GEMS131,2018_Apr_02_1154,George,AM,orientation,8,6,0,0-0;0-0;0-0;0-0,3,SimpleHill,0-0,0,25,selected,45-22,39-21;48-28;47-17;40-28;50-24;50-26,50-24,3.39,86,3,1754.01417851
GEMS131,2018_Apr_02_1154,George,AM,orientation,8,6,0,0-0;0-0;0-0;0-0,3,SimpleHill,0-0,0,26,selected,50-24,50-27;55-21;49-28;52-27;52-31;49-20,49-28,4.51,90,4,1762.10247803
GEMS131,2018_Apr_02_1154,George,AM,orientation,8,6,0,0-0;0-0;0-0;0-0,3,SimpleHill,0-0,0,27,selected,49-28,42-31;49-34;47-33;50-22;46-35;50-21,50-21,5.54,83,-7,1771.20615257
GEMS131,2018_Apr_02_1154,George,AM,orientation,8,6,0,0-0;0-0;0-0;0-0,3,SimpleHill,0-0,0,28,selected,50-21,53-27;53-14;43-21;47-27;45-27;51-26,43-21,5.13,82,-1,1779.9316269
GEMS131,2018_Apr_02_1154,George,AM,orientation,8,6,0,0-0;0-0;0-0;0-0,3,SimpleHill,0-0,0,29,selected,43-21,41-27;44-28;50-20;37-19;49-21;49-19,50-20,4.78,82,0,1788.30343485
GEMS131,2018_Apr_02_1154,George,AM,orientation,8,6,0,0-0;0-0;0-0;0-0,3,SimpleHill,0-0,0,30,selected,50-20,56-22;50-27;43-19;48-19;47-14;51-16,47-14,3.6,73,-9,1795.46693089
GEMS131,2018_Apr_02_1154,George,AM,orientation,8,6,0,0-0;0-0;0-0;0-0,3,SimpleHill,0-0,0,31,selected,47-14,48-8;52-10;54-14;42-15;47-21;48-7,48-7,4.33,62,-11,1803.3674963
GEMS131,2018_Apr_02_1154,George,AM,orientation,8,6,0,0-0;0-0;0-0;0-0,3,SimpleHill,0-0,0,32,selected,48-7,52-4;55-6;51-4;48-6;44-2;46-11,46-11,5.85,69,7,1812.78498022
GEMS131,2018_Apr_02_1154,George,AM,orientation,8,6,0,0-0;0-0;0-0;0-0,3,SimpleHill,0-0,0,33,selected,46-11,51-17;43-12;41-10;52-12;49-8;49-14,41-10,3.74,66,-3,1820.10661427
GEMS131,2018_Apr_02_1154,George,AM,orientation,8,6,0,0-0;0-0;0-0;0-0,3,SimpleHill,0-0,0,34,selected,41-10,43-7;39-12;44-8;40-3;42-9;45-13,43-7,4.76,62,-4,1828.45246366
GEMS131,2018_Apr_02_1154,George,AM,orientation,8,6,0,0-0;0-0;0-0;0-0,3,SimpleHill,0-0,0,35,selected,43-7,42-9;40-9;37-12;48-9;47-10;45-2,45-2,2.94,53,-9,1834.958201
GEMS131,2018_Apr_02_1154,George,AM,orientation,8,6,0,0-0;0-0;0-0;0-0,3,SimpleHill,0-0,0,36,selected,45-2,42-7;42-8;48-0;38-0;52-4;40-4,42-7,6.12,61,8,1844.65214235
GEMS131,2018_Apr_02_1154,George,AM,orientation,8,6,0,0-0;0-0;0-0;0-0,3,SimpleHill,0-0,0,37,selected,42-7,43-4;47-2;43-6;39-9;49-5;44-1,49-5,5.17,59,-2,1853.39031508
GEMS131,2018_Apr_02_1154,George,AM,orientation,8,6,0,0-0;0-0;0-0;0-0,3,SimpleHill,0-0,0,38,selected,49-5,52-9;56-6;48-9;53-2;52-11;50-8,48-9,4.46,66,7,1861.41580663
GEMS131,2018_Apr_02_1154,George,AM,orientation,8,6,0,0-0;0-0;0-0;0-0,3,SimpleHill,0-0,0,39,selected,48-9,47-10;47-4;43-9;48-14;55-11;52-7,47-10,3.06,67,1,1868.04568941
GEMS131,2018_Apr_02_1154,George,AM,orientation,8,6,0,0-0;0-0;0-0;0-0,4,SimpleHill,0-0,0,0,selected,0-0,6-4;6-5;1-5;0-3;0-2;5-0,6-4,5.44,18,18,1887.69282614
GEMS131,2018_Apr_02_1154,George,AM,orientation,8,6,0,0-0;0-0;0-0;0-0,4,SimpleHill,0-0,0,1,selected,6-4,6-3;11-7;13-1;2-6;0-4;13-6,11-7,13.32,32,14,1904.59096973
GEMS131,2018_Apr_02_1154,George,AM,orientation,8,6,0,0-0;0-0;0-0;0-0,4,SimpleHill,0-0,0,2,selected,11-7,13-12;8-5;6-11;12-1;16-1;7-2,13-12,4.31,43,11,1912.45687806
GEMS131,2018_Apr_02_1154,George,AM,orientation,8,6,0,0-0;0-0;0-0;0-0,4,SimpleHill,0-0,0,3,selected,13-12,13-4;8-7;17-18;12-13;11-15;15-17,12-13,3.36,43,0,1919.39505085
GEMS131,2018_Apr_02_1154,George,AM,orientation,8,6,0,0-0;0-0;0-0;0-0,4,SimpleHill,0-0,0,4,selected,12-13,8-9;19-11;19-16;12-7;9-10;11-18,19-11,3.89,50,7,1926.85480206
GEMS131,2018_Apr_02_1154,George,AM,orientation,8,6,0,0-0;0-0;0-0;0-0,4,SimpleHill,0-0,0,5,selected,19-11,23-13;15-10;23-6;16-17;23-8;22-13,23-8,5.31,50,0,1935.71726171
GEMS131,2018_Apr_02_1154,George,AM,orientation,8,6,0,0-0;0-0;0-0;0-0,4,SimpleHill,0-0,0,6,selected,23-8,20-9;28-6;22-13;16-8;23-7;16-11,28-6,1.38,51,1,1940.66646746
GEMS131,2018_Apr_02_1154,George,AM,orientation,8,6,0,0-0;0-0;0-0;0-0,4,SimpleHill,0-0,0,7,selected,28-6,32-10;22-11;22-1;29-9;31-2;32-1,32-10,5.29,61,10,1949.52696366
GEMS131,2018_Apr_02_1154,George,AM,orientation,8,6,0,0-0;0-0;0-0;0-0,4,SimpleHill,0-0,0,8,selected,32-10,27-11;26-5;36-15;33-3;38-13;36-13,27-11,6.34,59,-2,1959.43208303
GEMS131,2018_Apr_02_1154,George,AM,orientation,8,6,0,0-0;0-0;0-0;0-0,4,SimpleHill,0-0,0,9,selected,27-11,29-18;33-12;31-5;26-8;31-6;23-16,33-12,5.78,65,6,1968.78191789
GEMS131,2018_Apr_02_1154,George,AM,orientation,8,6,0,0-0;0-0;0-0;0-0,4,SimpleHill,0-0,0,10,selected,33-12,36-12;32-7;41-12;36-8;37-10;28-17,36-12,5.66,67,2,1978.01129672
GEMS131,2018_Apr_02_1154,George,AM,orientation,8,6,0,0-0;0-0;0-0;0-0,4,SimpleHill,0-0,0,11,selected,36-12,36-6;33-12;38-11;42-9;34-8;36-14,33-12,4.23,65,-2,1985.82544251
GEMS131,2018_Apr_02_1154,George,AM,orientation,8,6,0,0-0;0-0;0-0;0-0,4,SimpleHill,0-0,0,12,selected,33-12,28-16;30-13;26-9;29-7;31-8;37-7,37-7,3.26,59,-6,1992.64492394
GEMS131,2018_Apr_02_1154,George,AM,orientation,8,6,0,0-0;0-0;0-0;0-0,4,SimpleHill,0-0,0,13,selected,37-7,39-8;43-4;34-4;45-7;32-11;31-11,34-4,3.33,52,-7,1999.55253267
GEMS131,2018_Apr_02_1154,George,AM,orientation,8,6,0,0-0;0-0;0-0;0-0,4,SimpleHill,0-0,0,14,selected,34-4,37-7;32-4;36-7;37-9;27-4;35-9,35-9,4.65,61,9,2007.75976555
GEMS131,2018_Apr_02_1154,George,AM,orientation,8,6,0,0-0;0-0;0-0;0-0,4,SimpleHill,0-0,0,15,selected,35-9,39-10;38-12;37-7;28-12;38-4;36-6,39-10,6.06,65,4,2017.38037332
GEMS131,2018_Apr_02_1154,George,AM,orientation,8,6,0,0-0;0-0;0-0;0-0,4,SimpleHill,0-0,0,16,selected,39-10,42-9;36-15;45-15;39-7;40-15;43-14,43-14,3.46,73,8,2024.40040505
GEMS131,2018_Apr_02_1154,George,AM,orientation,8,6,0,0-0;0-0;0-0;0-0,4,SimpleHill,0-0,0,17,selected,43-14,41-20;37-19;42-10;46-10;44-8;40-19,41-20,3.87,80,7,2031.84405175
GEMS131,2018_Apr_02_1154,George,AM,orientation,8,6,0,0-0;0-0;0-0;0-0,4,SimpleHill,0-0,0,18,selected,41-20,39-17;49-20;43-18;42-26;46-25;36-23,46-25,1.96,87,7,2037.36701649
GEMS131,2018_Apr_02_1154,George,AM,orientation,8,6,0,0-0;0-0;0-0;0-0,4,SimpleHill,0-0,0,19,selected,46-25,47-29;46-31;43-26;45-30;52-22;48-20,47-29,8.13,91,4,2049.05493689
GEMS131,2018_Apr_02_1154,George,AM,orientation,8,6,0,0-0;0-0;0-0;0-0,4,SimpleHill,0-0,0,20,selected,47-29,51-31;50-22;46-36;51-34;52-25;45-35,51-31,7.49,92,1,2060.11383044
GEMS131,2018_Apr_02_1154,George,AM,orientation,8,6,0,0-0;0-0;0-0;0-0,4,SimpleHill,0-0,0,21,selected,51-31,56-32;50-25;54-26;51-36;46-28;48-31,50-25,5.68,87,-5,2069.36468557
GEMS131,2018_Apr_02_1154,George,AM,orientation,8,6,0,0-0;0-0;0-0;0-0,4,SimpleHill,0-0,0,22,selected,50-25,46-28;49-29;55-27;51-27;57-23;58-25,46-28,4.4,90,3,2077.33154828
GEMS131,2018_Apr_02_1154,George,AM,orientation,8,6,0,0-0;0-0;0-0;0-0,4,SimpleHill,0-0,0,23,selected,46-28,41-29;53-26;40-26;41-33;43-30;46-20,46-20,7.45,81,-9,2088.34160176
GEMS131,2018_Apr_02_1154,George,AM,orientation,8,6,0,0-0;0-0;0-0;0-0,4,SimpleHill,0-0,0,24,selected,46-20,48-19;44-23;42-20;49-15;50-18;49-16,48-19,5.39,80,-1,2097.29976659
GEMS131,2018_Apr_02_1154,George,AM,orientation,8,6,0,0-0;0-0;0-0;0-0,4,SimpleHill,0-0,0,25,selected,48-19,52-14;44-25;44-13;53-23;48-13;51-18,44-25,9.2,86,6,2110.07427785
GEMS131,2018_Apr_02_1154,George,AM,orientation,8,6,0,0-0;0-0;0-0;0-0,4,SimpleHill,0-0,0,26,selected,44-25,43-21;48-25;38-30;43-29;44-18;42-27,48-25,3.73,87,1,2117.37534466
GEMS131,2018_Apr_02_1154,George,AM,orientation,8,6,0,0-0;0-0;0-0;0-0,4,SimpleHill,0-0,0,27,selected,48-25,53-30;48-24;45-19;47-19;46-22;47-28,47-28,5.25,90,3,2126.21573006
GEMS131,2018_Apr_02_1154,George,AM,orientation,8,6,0,0-0;0-0;0-0;0-0,4,SimpleHill,0-0,0,28,selected,47-28,50-22;52-28;43-34;48-29;54-25;51-31,52-28,2.58,90,0,2132.37788236
GEMS131,2018_Apr_02_1154,George,AM,orientation,8,6,0,0-0;0-0;0-0;0-0,4,SimpleHill,0-0,0,29,selected,52-28,54-25;58-25;48-32;47-24;49-23;51-27,51-27,5.66,89,-1,2141.61208658
GEMS131,2018_Apr_02_1154,George,AM,orientation,8,6,0,0-0;0-0;0-0;0-0,4,SimpleHill,0-0,0,30,selected,51-27,51-27;49-28;48-30;52-21;50-22;45-28,51-27,4.46,89,0,2149.63883449
GEMS131,2018_Apr_02_1154,George,AM,orientation,8,6,0,0-0;0-0;0-0;0-0,4,SimpleHill,0-0,0,31,selected,51-27,48-32;48-27;49-29;53-26;52-31;47-26,52-31,2.06,92,3,2155.28268356
GEMS131,2018_Apr_02_1154,George,AM,orientation,8,6,0,0-0;0-0;0-0;0-0,4,SimpleHill,0-0,0,32,selected,52-31,51-35;52-24;45-33;56-32;53-34;52-37,52-24,2.66,86,-6,2161.50711566
GEMS131,2018_Apr_02_1154,George,AM,orientation,8,6,0,0-0;0-0;0-0;0-0,4,SimpleHill,0-0,0,33,selected,52-24,51-23;53-20;56-29;56-28;51-22;48-29,51-23,2.35,85,-1,2167.411841
GEMS131,2018_Apr_02_1154,George,AM,orientation,8,6,0,0-0;0-0;0-0;0-0,4,SimpleHill,0-0,0,34,selected,51-23,46-28;53-20;49-16;52-16;54-19;43-23,54-19,2.79,80,-5,2173.77473053
GEMS131,2018_Apr_02_1154,George,AM,orientation,8,6,0,0-0;0-0;0-0;0-0,4,SimpleHill,0-0,0,35,selected,54-19,48-24;55-26;54-14;57-20;51-23;61-19,48-24,5.57,86,6,2182.89957985
GEMS131,2018_Apr_02_1154,George,AM,orientation,8,6,0,0-0;0-0;0-0;0-0,4,SimpleHill,0-0,0,36,selected,48-24,42-20;43-29;49-30;51-29;54-29;44-27,42-20,4.24,80,-6,2190.70243789
GEMS131,2018_Apr_02_1154,George,AM,orientation,8,6,0,0-0;0-0;0-0;0-0,4,SimpleHill,0-0,0,37,selected,42-20,37-26;41-15;47-16;36-20;36-18;48-15,48-15,4.33,75,-5,2198.59498402
GEMS131,2018_Apr_02_1154,George,AM,orientation,8,6,0,0-0;0-0;0-0;0-0,4,SimpleHill,0-0,0,38,selected,48-15,42-16;42-12;45-22;49-16;49-8;48-18,42-12,1.46,69,-6,2203.62953163
GEMS131,2018_Apr_02_1154,George,AM,orientation,8,6,0,0-0;0-0;0-0;0-0,4,SimpleHill,0-0,0,39,selected,42-12,39-19;39-6;46-10;35-14;42-14;41-19,46-10,4.01,67,-2,2211.20517404
