subj_id,date,computer,experimenter,instructions,sight_radius,n_gabors,start_pos_list_ix,start_pos_list,landscape_ix,landscape_name,starting_pos,starting_score,trial,feedback,pos,stims,selected,rt,score,delta,exp_time
GEMS133,2018_Apr_05_1048,Kramer,AM,orientation,8,6,0,0-0;0-0;0-0;0-0,0,OrientationBias,0-0,0,0,training,0-0,0-7;6-2;1-2;1-1;3-4;5-2,0-7,9.91,0,0,210.914445569
GEMS133,2018_Apr_05_1048,Kramer,AM,orientation,8,6,0,0-0;0-0;0-0;0-0,0,OrientationBias,0-0,0,1,training,0-7,5-1;0-13;0-14;0-15;3-9;5-9,5-9,2.51,19,19,228.206131508
GEMS133,2018_Apr_05_1048,Kramer,AM,orientation,8,6,0,0-0;0-0;0-0;0-0,0,OrientationBias,0-0,0,2,training,5-9,5-5;1-5;4-11;1-8;0-9;5-11,5-5,4.25,19,0,238.871154924
GEMS133,2018_Apr_05_1048,Kramer,AM,orientation,8,6,0,0-0;0-0;0-0;0-0,0,OrientationBias,0-0,0,3,training,5-5,1-11;1-6;3-4;9-10;3-3;9-4,9-4,4.34,32,13,248.035881774
GEMS133,2018_Apr_05_1048,Kramer,AM,orientation,8,6,0,0-0;0-0;0-0;0-0,0,OrientationBias,0-0,0,4,training,9-4,5-6;13-2;11-10;12-7;9-0;13-9,12-7,1.91,42,10,253.824209779
GEMS133,2018_Apr_05_1048,Kramer,AM,orientation,8,6,0,0-0;0-0;0-0;0-0,0,OrientationBias,0-0,0,5,training,12-7,11-9;15-6;18-7;7-5;6-5;10-7,7-5,3.37,26,-16,265.653264804
GEMS133,2018_Apr_05_1048,Kramer,AM,orientation,8,6,0,0-0;0-0;0-0;0-0,0,OrientationBias,0-0,0,6,training,7-5,1-4;10-5;4-1;6-9;6-5;8-11,4-1,1.27,15,-11,271.576171068
GEMS133,2018_Apr_05_1048,Kramer,AM,orientation,8,6,0,0-0;0-0;0-0;0-0,0,OrientationBias,0-0,0,7,training,4-1,7-0;2-1;0-3;2-8;2-4;6-3,2-1,1.41,7,-8,285.012381834
GEMS133,2018_Apr_05_1048,Kramer,AM,orientation,8,6,0,0-0;0-0;0-0;0-0,0,OrientationBias,0-0,0,8,training,2-1,8-4;0-8;5-8;7-3;6-6;4-7,8-4,5.52,29,22,301.210121466
GEMS133,2018_Apr_05_1048,Kramer,AM,orientation,8,6,0,0-0;0-0;0-0;0-0,0,OrientationBias,0-0,0,9,training,8-4,11-3;8-12;9-10;11-11;2-5;3-9,11-11,6.01,39,10,314.091455664
GEMS133,2018_Apr_05_1048,Kramer,AM,orientation,8,6,0,0-0;0-0;0-0;0-0,0,OrientationBias,0-0,0,10,training,11-11,11-4;10-6;6-9;8-11;14-9;5-8,5-8,3.27,19,-20,322.752176072
GEMS133,2018_Apr_05_1048,Kramer,AM,orientation,8,6,0,0-0;0-0;0-0;0-0,0,OrientationBias,0-0,0,11,training,5-8,8-6;3-13;6-8;6-4;12-5;8-7,12-5,3.32,42,23,333.602042257
GEMS133,2018_Apr_05_1048,Kramer,AM,orientation,8,6,0,0-0;0-0;0-0;0-0,0,OrientationBias,0-0,0,12,training,12-5,18-1;10-11;8-6;8-0;6-8;9-5,6-8,3.81,22,-20,341.232688015
GEMS133,2018_Apr_05_1048,Kramer,AM,orientation,8,6,0,0-0;0-0;0-0;0-0,0,OrientationBias,0-0,0,13,training,6-8,2-5;0-10;0-3;9-14;1-2;4-3,9-14,4.52,32,10,350.086048015
GEMS133,2018_Apr_05_1048,Kramer,AM,orientation,8,6,0,0-0;0-0;0-0;0-0,0,OrientationBias,0-0,0,14,training,9-14,15-16;8-12;6-14;11-12;4-10;14-8,14-8,3.92,48,16,357.777361942
GEMS133,2018_Apr_05_1048,Kramer,AM,orientation,8,6,0,0-0;0-0;0-0;0-0,0,OrientationBias,0-0,0,15,training,14-8,8-6;19-2;16-2;19-3;9-6;15-5,15-5,4.36,51,3,366.588197919
GEMS133,2018_Apr_05_1048,Kramer,AM,orientation,8,6,0,0-0;0-0;0-0;0-0,0,OrientationBias,0-0,0,16,training,15-5,10-0;13-10;22-5;19-7;20-3;10-9,19-7,3.99,61,10,375.1996285
GEMS133,2018_Apr_05_1048,Kramer,AM,orientation,8,6,0,0-0;0-0;0-0;0-0,0,OrientationBias,0-0,0,17,training,19-7,17-4;26-7;19-8;22-13;16-1;24-1,22-13,1.75,68,7,381.315861276
GEMS133,2018_Apr_05_1048,Kramer,AM,orientation,8,6,0,0-0;0-0;0-0;0-0,0,OrientationBias,0-0,0,18,training,22-13,27-12;27-13;23-11;22-18;29-16;27-9,27-9,3.27,78,10,388.265370461
GEMS133,2018_Apr_05_1048,Kramer,AM,orientation,8,6,0,0-0;0-0;0-0;0-0,0,OrientationBias,0-0,0,19,training,27-9,30-3;24-12;28-8;34-6;22-13;27-5,30-3,2.68,84,6,395.136181285
GEMS133,2018_Apr_05_1048,Kramer,AM,orientation,8,6,0,0-0;0-0;0-0;0-0,0,OrientationBias,0-0,0,20,training,30-3,27-7;25-3;27-0;33-2;37-4;27-10,37-4,5.95,93,9,405.222933184
GEMS133,2018_Apr_05_1048,Kramer,AM,orientation,8,6,0,0-0;0-0;0-0;0-0,0,OrientationBias,0-0,0,21,training,37-4,42-10;39-4;31-6;38-11;40-10;35-2,42-10,2.63,97,4,412.108214768
GEMS133,2018_Apr_05_1048,Kramer,AM,orientation,8,6,0,0-0;0-0;0-0;0-0,0,OrientationBias,0-0,0,22,training,42-10,41-8;46-7;46-4;37-11;36-12;36-13,46-4,1.49,99,2,417.092501408
GEMS133,2018_Apr_05_1048,Kramer,AM,orientation,8,6,0,0-0;0-0;0-0;0-0,0,OrientationBias,0-0,0,23,training,46-4,45-3;49-11;50-9;49-8;53-5;47-11,47-11,5.04,99,0,425.387549923
GEMS133,2018_Apr_05_1048,Kramer,AM,orientation,8,6,0,0-0;0-0;0-0;0-0,0,OrientationBias,0-0,0,24,training,47-11,45-5;52-6;43-12;52-13;48-5;42-10,52-13,2.94,99,0,443.814141576
GEMS133,2018_Apr_05_1048,Kramer,AM,orientation,8,6,0,0-0;0-0;0-0;0-0,0,OrientationBias,0-0,0,25,training,52-13,50-16;52-9;53-9;53-17;58-10;56-19,50-16,3.34,100,1,450.389600438
GEMS133,2018_Apr_05_1048,Kramer,AM,orientation,8,6,0,0-0;0-0;0-0;0-0,0,OrientationBias,0-0,0,26,training,50-16,54-15;56-16;52-16;56-17;50-21;50-16,56-16,4.34,98,-2,473.738030206
GEMS133,2018_Apr_05_1048,Kramer,AM,orientation,8,6,0,0-0;0-0;0-0;0-0,0,OrientationBias,0-0,0,27,training,56-16,61-16;59-13;54-20;52-12;55-16;50-12,54-20,3.9,99,1,492.725145186
GEMS133,2018_Apr_05_1048,Kramer,AM,orientation,8,6,0,0-0;0-0;0-0;0-0,0,OrientationBias,0-0,0,28,training,54-20,52-25;48-22;56-16;51-26;57-13;48-24,52-25,1.82,99,0,503.658208959
GEMS133,2018_Apr_05_1048,Kramer,AM,orientation,8,6,0,0-0;0-0;0-0;0-0,0,OrientationBias,0-0,0,29,training,52-25,51-29;57-30;55-20;55-25;51-21;55-22,57-30,1.56,98,-1,509.537532974
GEMS133,2018_Apr_05_1048,Kramer,AM,orientation,8,6,0,0-0;0-0;0-0;0-0,1,SimpleHill,0-0,0,0,selected,0-0,6-3;4-0;3-2;0-8;4-5;0-2,6-3,4.71,17,17,553.448914613
GEMS133,2018_Apr_05_1048,Kramer,AM,orientation,8,6,0,0-0;0-0;0-0;0-0,1,SimpleHill,0-0,0,1,selected,6-3,3-10;2-6;8-1;5-9;1-3;2-7,5-9,3.43,25,8,560.443748634
GEMS133,2018_Apr_05_1048,Kramer,AM,orientation,8,6,0,0-0;0-0;0-0;0-0,1,SimpleHill,0-0,0,2,selected,5-9,12-6;2-7;1-12;0-10;1-5;1-13,12-6,2.35,32,7,566.368391722
GEMS133,2018_Apr_05_1048,Kramer,AM,orientation,8,6,0,0-0;0-0;0-0;0-0,1,SimpleHill,0-0,0,3,selected,12-6,10-8;13-3;18-5;7-2;8-0;13-10,13-10,2.84,40,8,572.767567739
GEMS133,2018_Apr_05_1048,Kramer,AM,orientation,8,6,0,0-0;0-0;0-0;0-0,1,SimpleHill,0-0,0,4,selected,13-10,8-10;6-7;8-14;15-15;9-15;10-4,8-10,2.79,32,-8,579.168200179
GEMS133,2018_Apr_05_1048,Kramer,AM,orientation,8,6,0,0-0;0-0;0-0;0-0,1,SimpleHill,0-0,0,5,selected,8-10,6-6;6-12;3-15;12-8;14-5;1-9,14-5,2.25,33,1,585.000902342
GEMS133,2018_Apr_05_1048,Kramer,AM,orientation,8,6,0,0-0;0-0;0-0;0-0,1,SimpleHill,0-0,0,6,selected,14-5,21-6;13-2;7-4;19-2;10-4;8-8,21-6,5.23,44,11,593.798898432
GEMS133,2018_Apr_05_1048,Kramer,AM,orientation,8,6,0,0-0;0-0;0-0;0-0,1,SimpleHill,0-0,0,7,selected,21-6,21-9;18-4;19-1;26-8;15-3;17-11,17-11,1.94,47,3,599.30722709
GEMS133,2018_Apr_05_1048,Kramer,AM,orientation,8,6,0,0-0;0-0;0-0;0-0,1,SimpleHill,0-0,0,8,selected,17-11,23-13;19-10;16-17;20-10;15-8;15-12,23-13,2.51,58,11,605.409292233
GEMS133,2018_Apr_05_1048,Kramer,AM,orientation,8,6,0,0-0;0-0;0-0;0-0,1,SimpleHill,0-0,0,9,selected,23-13,17-16;28-17;24-18;29-16;23-21;19-17,28-17,1.99,68,10,610.960270709
GEMS133,2018_Apr_05_1048,Kramer,AM,orientation,8,6,0,0-0;0-0;0-0;0-0,1,SimpleHill,0-0,0,10,selected,28-17,29-22;31-19;24-17;34-17;32-15;24-21,29-22,2.66,75,7,617.201527611
GEMS133,2018_Apr_05_1048,Kramer,AM,orientation,8,6,0,0-0;0-0;0-0;0-0,1,SimpleHill,0-0,0,11,selected,29-22,29-17;31-25;28-15;22-25;31-19;32-27,32-27,2.15,82,7,622.923444661
GEMS133,2018_Apr_05_1048,Kramer,AM,orientation,8,6,0,0-0;0-0;0-0;0-0,1,SimpleHill,0-0,0,12,selected,32-27,32-20;26-32;29-33;31-32;35-31;32-21,32-21,6.65,76,-6,633.149281087
GEMS133,2018_Apr_05_1048,Kramer,AM,orientation,8,6,0,0-0;0-0;0-0;0-0,1,SimpleHill,0-0,0,13,selected,32-21,36-20;37-19;32-26;37-16;28-18;33-21,32-26,4.22,82,6,640.955461953
GEMS133,2018_Apr_05_1048,Kramer,AM,orientation,8,6,0,0-0;0-0;0-0;0-0,1,SimpleHill,0-0,0,14,selected,32-26,34-28;33-25;32-23;37-21;28-24;27-30,33-25,3.88,81,-1,648.406315689
GEMS133,2018_Apr_05_1048,Kramer,AM,orientation,8,6,0,0-0;0-0;0-0;0-0,1,SimpleHill,0-0,0,15,selected,33-25,33-22;26-22;29-25;38-31;37-25;33-18,37-25,3.73,84,3,655.692931997
GEMS133,2018_Apr_05_1048,Kramer,AM,orientation,8,6,0,0-0;0-0;0-0;0-0,1,SimpleHill,0-0,0,16,selected,37-25,40-31;37-19;39-21;42-27;34-31;30-22,40-31,1.23,90,6,660.485991294
GEMS133,2018_Apr_05_1048,Kramer,AM,orientation,8,6,0,0-0;0-0;0-0;0-0,1,SimpleHill,0-0,0,17,selected,40-31,45-34;33-33;42-34;43-26;45-28;40-27,42-34,2.17,93,3,666.214336129
GEMS133,2018_Apr_05_1048,Kramer,AM,orientation,8,6,0,0-0;0-0;0-0;0-0,1,SimpleHill,0-0,0,18,selected,42-34,45-28;49-31;40-40;37-37;46-37;46-29,46-37,6.23,96,3,676.03273174
GEMS133,2018_Apr_05_1048,Kramer,AM,orientation,8,6,0,0-0;0-0;0-0;0-0,1,SimpleHill,0-0,0,19,selected,46-37,41-33;51-40;46-37;53-39;46-31;51-31,46-37,2.33,96,0,681.946662599
GEMS133,2018_Apr_05_1048,Kramer,AM,orientation,8,6,0,0-0;0-0;0-0;0-0,1,SimpleHill,0-0,0,20,selected,46-37,54-37;53-39;50-38;46-32;51-35;43-37,50-38,1.35,97,1,686.883637907
GEMS133,2018_Apr_05_1048,Kramer,AM,orientation,8,6,0,0-0;0-0;0-0;0-0,1,SimpleHill,0-0,0,21,selected,50-38,55-36;56-34;52-42;53-43;47-44;50-41,50-41,3.69,98,1,694.142825454
GEMS133,2018_Apr_05_1048,Kramer,AM,orientation,8,6,0,0-0;0-0;0-0;0-0,1,SimpleHill,0-0,0,22,selected,50-41,47-41;52-44;52-39;51-45;56-38;49-40,52-39,2.74,97,-1,700.448098696
GEMS133,2018_Apr_05_1048,Kramer,AM,orientation,8,6,0,0-0;0-0;0-0;0-0,1,SimpleHill,0-0,0,23,selected,52-39,48-40;48-36;58-39;47-39;47-45;47-34,58-39,1.65,96,-1,705.656654908
GEMS133,2018_Apr_05_1048,Kramer,AM,orientation,8,6,0,0-0;0-0;0-0;0-0,1,SimpleHill,0-0,0,24,selected,58-39,62-41;53-44;52-44;56-43;55-45;63-37,62-41,1.04,95,-1,710.263629796
GEMS133,2018_Apr_05_1048,Kramer,AM,orientation,8,6,0,0-0;0-0;0-0;0-0,1,SimpleHill,0-0,0,25,selected,62-41,67-37;61-40;58-40;67-38;57-36;64-44,64-44,0.89,95,0,714.740519888
GEMS133,2018_Apr_05_1048,Kramer,AM,orientation,8,6,0,0-0;0-0;0-0;0-0,1,SimpleHill,0-0,0,26,selected,64-44,66-44;66-40;62-47;57-44;61-45;60-43,57-44,1.66,98,3,719.98301363
GEMS133,2018_Apr_05_1048,Kramer,AM,orientation,8,6,0,0-0;0-0;0-0;0-0,1,SimpleHill,0-0,0,27,selected,57-44,54-40;57-50;60-51;54-47;61-40;58-46,60-51,3.07,97,-1,726.603006697
GEMS133,2018_Apr_05_1048,Kramer,AM,orientation,8,6,0,0-0;0-0;0-0;0-0,1,SimpleHill,0-0,0,28,selected,60-51,55-48;59-45;53-53;55-53;59-58;53-54,59-45,1.21,97,0,731.395516074
GEMS133,2018_Apr_05_1048,Kramer,AM,orientation,8,6,0,0-0;0-0;0-0;0-0,1,SimpleHill,0-0,0,29,selected,59-45,61-48;54-48;59-48;57-48;53-43;55-48,61-48,0.68,97,0,735.642725104
GEMS133,2018_Apr_05_1048,Kramer,AM,orientation,8,6,0,0-0;0-0;0-0;0-0,1,SimpleHill,0-0,0,30,selected,61-48,63-46;62-49;62-52;60-48;57-45;67-46,67-46,2.33,93,-4,741.534793298
GEMS133,2018_Apr_05_1048,Kramer,AM,orientation,8,6,0,0-0;0-0;0-0;0-0,1,SimpleHill,0-0,0,31,selected,67-46,60-43;64-46;65-48;66-48;68-48;65-49,66-48,1.84,94,1,746.935317547
GEMS133,2018_Apr_05_1048,Kramer,AM,orientation,8,6,0,0-0;0-0;0-0;0-0,1,SimpleHill,0-0,0,32,selected,66-48,60-46;61-47;67-41;67-51;65-41;67-48,65-41,4.32,93,-1,754.840783549
GEMS133,2018_Apr_05_1048,Kramer,AM,orientation,8,6,0,0-0;0-0;0-0;0-0,1,SimpleHill,0-0,0,33,selected,65-41,64-48;70-37;66-39;66-41;63-38;65-35,70-37,3.66,88,-5,762.07335441
GEMS133,2018_Apr_05_1048,Kramer,AM,orientation,8,6,0,0-0;0-0;0-0;0-0,1,SimpleHill,0-0,0,34,selected,70-37,64-35;70-32;69-33;69-43;64-32;65-32,64-35,1.37,91,3,767.007450802
GEMS133,2018_Apr_05_1048,Kramer,AM,orientation,8,6,0,0-0;0-0;0-0;0-0,1,SimpleHill,0-0,0,35,selected,64-35,65-35;68-31;64-42;64-32;65-40;60-34,65-40,1.57,93,2,772.151346967
GEMS133,2018_Apr_05_1048,Kramer,AM,orientation,8,6,0,0-0;0-0;0-0;0-0,1,SimpleHill,0-0,0,36,selected,65-40,64-34;65-48;65-38;67-43;61-37;65-47,65-47,0.88,95,2,776.596698946
GEMS133,2018_Apr_05_1048,Kramer,AM,orientation,8,6,0,0-0;0-0;0-0;0-0,1,SimpleHill,0-0,0,37,selected,65-47,66-53;70-45;60-50;68-54;66-41;70-51,60-50,2.95,98,3,783.102009767
GEMS133,2018_Apr_05_1048,Kramer,AM,orientation,8,6,0,0-0;0-0;0-0;0-0,1,SimpleHill,0-0,0,38,selected,60-50,57-47;60-44;63-52;61-51;56-50;60-56,56-50,1.79,99,1,788.461597014
GEMS133,2018_Apr_05_1048,Kramer,AM,orientation,8,6,0,0-0;0-0;0-0;0-0,1,SimpleHill,0-0,0,39,selected,56-50,50-51;50-48;59-49;57-51;49-47;53-56,57-51,0.96,99,0,793.00396275
GEMS133,2018_Apr_05_1048,Kramer,AM,orientation,8,6,0,0-0;0-0;0-0;0-0,2,SimpleHill,0-0,0,0,selected,0-0,4-3;6-2;5-2;1-5;2-1;2-5,4-3,3.99,13,13,808.235412646
GEMS133,2018_Apr_05_1048,Kramer,AM,orientation,8,6,0,0-0;0-0;0-0;0-0,2,SimpleHill,0-0,0,1,selected,4-3,2-8;4-3;8-0;7-3;8-7;9-6,8-7,2.64,27,14,814.445627259
GEMS133,2018_Apr_05_1048,Kramer,AM,orientation,8,6,0,0-0;0-0;0-0;0-0,2,SimpleHill,0-0,0,2,selected,8-7,6-4;11-4;9-13;8-13;9-9;11-11,8-13,1.49,37,10,819.509862863
GEMS133,2018_Apr_05_1048,Kramer,AM,orientation,8,6,0,0-0;0-0;0-0;0-0,2,SimpleHill,0-0,0,3,selected,8-13,5-16;13-10;3-15;10-8;1-10;4-8,3-15,0.45,31,-6,823.521712702
GEMS133,2018_Apr_05_1048,Kramer,AM,orientation,8,6,0,0-0;0-0;0-0;0-0,2,SimpleHill,0-0,0,4,selected,3-15,8-14;1-14;6-20;3-15;8-16;5-12,8-14,1.53,38,7,828.627266858
GEMS133,2018_Apr_05_1048,Kramer,AM,orientation,8,6,0,0-0;0-0;0-0;0-0,2,SimpleHill,0-0,0,5,selected,8-14,4-18;8-18;16-14;11-18;15-13;15-17,16-14,1.61,50,12,833.812622736
GEMS133,2018_Apr_05_1048,Kramer,AM,orientation,8,6,0,0-0;0-0;0-0;0-0,2,SimpleHill,0-0,0,6,selected,16-14,18-11;12-18;23-16;17-13;22-16;12-15,23-16,3.84,62,12,841.23111732
GEMS133,2018_Apr_05_1048,Kramer,AM,orientation,8,6,0,0-0;0-0;0-0;0-0,2,SimpleHill,0-0,0,7,selected,23-16,20-22;26-10;26-19;17-20;21-9;23-17,17-20,1.31,60,-2,846.104211366
GEMS133,2018_Apr_05_1048,Kramer,AM,orientation,8,6,0,0-0;0-0;0-0;0-0,2,SimpleHill,0-0,0,8,selected,17-20,17-28;17-27;21-26;19-20;13-19;11-20,11-20,1.92,51,-9,851.599063792
GEMS133,2018_Apr_05_1048,Kramer,AM,orientation,8,6,0,0-0;0-0;0-0;0-0,2,SimpleHill,0-0,0,9,selected,11-20,11-18;10-24;5-23;10-14;9-23;17-21,17-21,1.79,61,10,856.948550827
GEMS133,2018_Apr_05_1048,Kramer,AM,orientation,8,6,0,0-0;0-0;0-0;0-0,2,SimpleHill,0-0,0,10,selected,17-21,15-27;21-18;15-19;16-27;19-19;18-22,18-22,2.42,63,2,862.936209005
GEMS133,2018_Apr_05_1048,Kramer,AM,orientation,8,6,0,0-0;0-0;0-0;0-0,2,SimpleHill,0-0,0,11,selected,18-22,13-16;26-22;13-18;24-23;15-17;13-25,24-23,1.81,71,8,868.31384341
GEMS133,2018_Apr_05_1048,Kramer,AM,orientation,8,6,0,0-0;0-0;0-0;0-0,2,SimpleHill,0-0,0,12,selected,24-23,22-16;17-20;32-23;26-19;24-30;26-23,24-30,2.72,78,7,874.60759939
GEMS133,2018_Apr_05_1048,Kramer,AM,orientation,8,6,0,0-0;0-0;0-0;0-0,2,SimpleHill,0-0,0,13,selected,24-30,19-29;23-31;21-31;24-27;19-34;27-32,27-32,1.98,82,4,880.147056122
GEMS133,2018_Apr_05_1048,Kramer,AM,orientation,8,6,0,0-0;0-0;0-0;0-0,2,SimpleHill,0-0,0,14,selected,27-32,19-32;30-26;32-26;34-34;25-37;28-34,32-26,1.45,82,0,885.167336888
GEMS133,2018_Apr_05_1048,Kramer,AM,orientation,8,6,0,0-0;0-0;0-0;0-0,2,SimpleHill,0-0,0,15,selected,32-26,32-19;37-21;32-27;33-19;38-28;26-22,37-21,1.24,79,-3,889.988239467
GEMS133,2018_Apr_05_1048,Kramer,AM,orientation,8,6,0,0-0;0-0;0-0;0-0,2,SimpleHill,0-0,0,16,selected,37-21,41-20;40-14;38-20;42-22;39-24;37-18,39-24,4.02,84,5,897.581801822
GEMS133,2018_Apr_05_1048,Kramer,AM,orientation,8,6,0,0-0;0-0;0-0;0-0,2,SimpleHill,0-0,0,17,selected,39-24,45-21;41-22;45-26;38-27;45-22;46-21,45-21,2.07,82,-2,903.235235635
GEMS133,2018_Apr_05_1048,Kramer,AM,orientation,8,6,0,0-0;0-0;0-0;0-0,2,SimpleHill,0-0,0,18,selected,45-21,41-15;49-22;40-21;46-17;46-27;47-20,46-27,2.09,89,7,908.899223871
GEMS133,2018_Apr_05_1048,Kramer,AM,orientation,8,6,0,0-0;0-0;0-0;0-0,2,SimpleHill,0-0,0,19,selected,46-27,49-20;41-32;42-23;43-30;40-26;50-26,40-26,3.95,86,-3,916.434361589
GEMS133,2018_Apr_05_1048,Kramer,AM,orientation,8,6,0,0-0;0-0;0-0;0-0,2,SimpleHill,0-0,0,20,selected,40-26,47-25;42-21;42-31;41-21;43-26;44-20,44-20,2.77,81,-5,922.790470066
GEMS133,2018_Apr_05_1048,Kramer,AM,orientation,8,6,0,0-0;0-0;0-0;0-0,2,SimpleHill,0-0,0,21,selected,44-20,39-18;39-26;48-23;49-18;52-20;47-25,48-23,3.44,85,4,929.796062089
GEMS133,2018_Apr_05_1048,Kramer,AM,orientation,8,6,0,0-0;0-0;0-0;0-0,2,SimpleHill,0-0,0,22,selected,48-23,53-27;47-28;53-29;41-22;45-20;42-27,53-29,1.04,91,6,934.391175935
GEMS133,2018_Apr_05_1048,Kramer,AM,orientation,8,6,0,0-0;0-0;0-0;0-0,2,SimpleHill,0-0,0,23,selected,53-29,55-22;53-30;49-34;58-30;53-36;58-32,58-32,3.22,92,1,941.195319409
GEMS133,2018_Apr_05_1048,Kramer,AM,orientation,8,6,0,0-0;0-0;0-0;0-0,2,SimpleHill,0-0,0,24,selected,58-32,55-31;55-36;54-36;65-30;52-35;62-36,62-36,2.43,93,1,947.203468655
GEMS133,2018_Apr_05_1048,Kramer,AM,orientation,8,6,0,0-0;0-0;0-0;0-0,2,SimpleHill,0-0,0,25,selected,62-36,57-36;64-30;57-35;68-36;67-40;56-32,64-30,1.73,88,-5,952.515738168
GEMS133,2018_Apr_05_1048,Kramer,AM,orientation,8,6,0,0-0;0-0;0-0;0-0,2,SimpleHill,0-0,0,26,selected,64-30,63-28;58-28;66-24;63-36;63-34;59-25,63-36,2.15,92,4,958.238968558
GEMS133,2018_Apr_05_1048,Kramer,AM,orientation,8,6,0,0-0;0-0;0-0;0-0,2,SimpleHill,0-0,0,27,selected,63-36,64-35;64-33;64-32;64-34;57-39;61-42,64-35,1.79,91,-1,963.604369972
GEMS133,2018_Apr_05_1048,Kramer,AM,orientation,8,6,0,0-0;0-0;0-0;0-0,2,SimpleHill,0-0,0,28,selected,64-35,69-33;64-28;67-40;67-41;63-37;70-30,63-37,3.7,93,2,970.876953087
GEMS133,2018_Apr_05_1048,Kramer,AM,orientation,8,6,0,0-0;0-0;0-0;0-0,2,SimpleHill,0-0,0,29,selected,63-37,65-32;68-32;61-43;59-38;62-42;65-38,59-38,5.66,95,2,980.108355289
GEMS133,2018_Apr_05_1048,Kramer,AM,orientation,8,6,0,0-0;0-0;0-0;0-0,2,SimpleHill,0-0,0,30,selected,59-38,59-37;58-39;61-31;66-37;60-39;64-41,59-37,5.55,95,0,989.21709725
GEMS133,2018_Apr_05_1048,Kramer,AM,orientation,8,6,0,0-0;0-0;0-0;0-0,2,SimpleHill,0-0,0,31,selected,59-37,56-33;52-34;62-43;60-32;59-34;53-33,62-43,1.18,96,1,993.969308532
GEMS133,2018_Apr_05_1048,Kramer,AM,orientation,8,6,0,0-0;0-0;0-0;0-0,2,SimpleHill,0-0,0,32,selected,62-43,55-42;65-47;62-36;60-49;57-45;63-36,65-47,1.63,95,-1,999.17351148
GEMS133,2018_Apr_05_1048,Kramer,AM,orientation,8,6,0,0-0;0-0;0-0;0-0,2,SimpleHill,0-0,0,33,selected,65-47,67-54;70-44;68-42;64-49;62-42;63-45,62-42,2.68,95,0,1005.43374509
GEMS133,2018_Apr_05_1048,Kramer,AM,orientation,8,6,0,0-0;0-0;0-0;0-0,2,SimpleHill,0-0,0,34,selected,62-42,57-38;62-42;59-42;62-39;69-41;57-46,59-42,1.91,97,2,1010.90151862
GEMS133,2018_Apr_05_1048,Kramer,AM,orientation,8,6,0,0-0;0-0;0-0;0-0,2,SimpleHill,0-0,0,35,selected,59-42,56-37;66-42;53-44;64-42;61-47;62-36,56-37,1.7,95,-2,1016.18044373
GEMS133,2018_Apr_05_1048,Kramer,AM,orientation,8,6,0,0-0;0-0;0-0;0-0,2,SimpleHill,0-0,0,36,selected,56-37,55-38;52-37;51-32;60-34;58-35;62-42,51-32,1.37,93,-2,1021.12534902
GEMS133,2018_Apr_05_1048,Kramer,AM,orientation,8,6,0,0-0;0-0;0-0;0-0,2,SimpleHill,0-0,0,37,selected,51-32,55-34;58-34;51-30;52-28;56-28;50-38,55-34,3.26,94,1,1027.96083983
GEMS133,2018_Apr_05_1048,Kramer,AM,orientation,8,6,0,0-0;0-0;0-0;0-0,2,SimpleHill,0-0,0,38,selected,55-34,57-29;53-29;52-27;50-33;52-34;54-28,52-34,3.44,94,0,1034.97130559
GEMS133,2018_Apr_05_1048,Kramer,AM,orientation,8,6,0,0-0;0-0;0-0;0-0,2,SimpleHill,0-0,0,39,selected,52-34,50-37;55-41;59-33;46-35;49-35;51-27,59-33,1.99,92,-2,1040.53253408
GEMS133,2018_Apr_05_1048,Kramer,AM,orientation,8,6,0,0-0;0-0;0-0;0-0,3,SimpleHill,0-0,0,0,selected,0-0,2-0;8-0;0-1;1-7;6-1;4-4,8-0,2.45,14,14,1053.72388754
GEMS133,2018_Apr_05_1048,Kramer,AM,orientation,8,6,0,0-0;0-0;0-0;0-0,3,SimpleHill,0-0,0,1,selected,8-0,3-4;4-2;3-0;13-4;14-0;5-1,14-0,2.17,24,10,1059.46653029
GEMS133,2018_Apr_05_1048,Kramer,AM,orientation,8,6,0,0-0;0-0;0-0;0-0,3,SimpleHill,0-0,0,2,selected,14-0,18-5;9-0;13-1;9-1;19-0;19-6,19-0,1.4,30,6,1064.44271345
GEMS133,2018_Apr_05_1048,Kramer,AM,orientation,8,6,0,0-0;0-0;0-0;0-0,3,SimpleHill,0-0,0,3,selected,19-0,26-3;19-2;16-6;16-1;23-3;17-5,23-3,1.54,41,11,1069.55853715
GEMS133,2018_Apr_05_1048,Kramer,AM,orientation,8,6,0,0-0;0-0;0-0;0-0,3,SimpleHill,0-0,0,4,selected,23-3,21-7;31-3;23-4;22-0;25-5;27-1,21-7,1.5,46,5,1074.63375962
GEMS133,2018_Apr_05_1048,Kramer,AM,orientation,8,6,0,0-0;0-0;0-0;0-0,3,SimpleHill,0-0,0,5,selected,21-7,16-12;20-2;23-1;16-10;14-10;19-6,16-10,1.36,44,-2,1079.56820716
GEMS133,2018_Apr_05_1048,Kramer,AM,orientation,8,6,0,0-0;0-0;0-0;0-0,3,SimpleHill,0-0,0,6,selected,16-10,11-6;11-11;17-11;10-12;18-8;10-6,18-8,2.18,44,0,1085.31196318
GEMS133,2018_Apr_05_1048,Kramer,AM,orientation,8,6,0,0-0;0-0;0-0;0-0,3,SimpleHill,0-0,0,7,selected,18-8,17-13;17-15;18-13;11-10;19-4;22-8,17-15,1.67,53,9,1090.55546714
GEMS133,2018_Apr_05_1048,Kramer,AM,orientation,8,6,0,0-0;0-0;0-0;0-0,3,SimpleHill,0-0,0,8,selected,17-15,12-14;23-15;17-16;12-18;22-19;21-12,23-15,2.01,60,7,1096.14598925
GEMS133,2018_Apr_05_1048,Kramer,AM,orientation,8,6,0,0-0;0-0;0-0;0-0,3,SimpleHill,0-0,0,9,selected,23-15,27-15;28-20;24-8;17-11;27-11;26-13,27-11,1.45,59,-1,1101.15941587
GEMS133,2018_Apr_05_1048,Kramer,AM,orientation,8,6,0,0-0;0-0;0-0;0-0,3,SimpleHill,0-0,0,10,selected,27-11,30-12;28-13;32-10;21-15;26-13;24-4,21-15,2.52,58,-1,1107.24154787
GEMS133,2018_Apr_05_1048,Kramer,AM,orientation,8,6,0,0-0;0-0;0-0;0-0,3,SimpleHill,0-0,0,11,selected,21-15,19-16;19-22;21-16;20-18;14-13;18-18,19-22,1.16,65,7,1111.97569599
GEMS133,2018_Apr_05_1048,Kramer,AM,orientation,8,6,0,0-0;0-0;0-0;0-0,3,SimpleHill,0-0,0,12,selected,19-22,16-16;14-18;17-29;23-24;16-29;11-22,23-24,2.67,71,6,1118.21363609
GEMS133,2018_Apr_05_1048,Kramer,AM,orientation,8,6,0,0-0;0-0;0-0;0-0,3,SimpleHill,0-0,0,13,selected,23-24,22-23;24-18;21-29;28-22;26-23;21-19,21-29,1.39,74,3,1123.16405754
GEMS133,2018_Apr_05_1048,Kramer,AM,orientation,8,6,0,0-0;0-0;0-0;0-0,3,SimpleHill,0-0,0,14,selected,21-29,25-33;18-34;26-27;20-29;28-27;21-26,21-26,1.56,71,-3,1128.27690949
GEMS133,2018_Apr_05_1048,Kramer,AM,orientation,8,6,0,0-0;0-0;0-0;0-0,3,SimpleHill,0-0,0,15,selected,21-26,20-25;16-21;21-32;26-30;24-21;18-24,26-30,0.96,80,9,1132.8003779
GEMS133,2018_Apr_05_1048,Kramer,AM,orientation,8,6,0,0-0;0-0;0-0;0-0,3,SimpleHill,0-0,0,16,selected,26-30,32-25;23-31;28-29;31-24;32-33;27-37,27-37,2.9,86,6,1139.27859734
GEMS133,2018_Apr_05_1048,Kramer,AM,orientation,8,6,0,0-0;0-0;0-0;0-0,3,SimpleHill,0-0,0,17,selected,27-37,20-36;24-32;29-40;22-35;31-38;33-34,33-34,2.12,89,3,1144.97856242
GEMS133,2018_Apr_05_1048,Kramer,AM,orientation,8,6,0,0-0;0-0;0-0;0-0,3,SimpleHill,0-0,0,18,selected,33-34,36-35;39-37;30-40;30-33;35-33;36-27,35-33,1.89,89,0,1150.42997984
GEMS133,2018_Apr_05_1048,Kramer,AM,orientation,8,6,0,0-0;0-0;0-0;0-0,3,SimpleHill,0-0,0,19,selected,35-33,29-34;31-32;37-27;32-38;28-30;29-31,32-38,1.15,90,1,1155.15078808
GEMS133,2018_Apr_05_1048,Kramer,AM,orientation,8,6,0,0-0;0-0;0-0;0-0,3,SimpleHill,0-0,0,20,selected,32-38,30-31;27-44;28-33;33-37;30-37;37-40,30-31,1.92,84,-6,1160.6653832
GEMS133,2018_Apr_05_1048,Kramer,AM,orientation,8,6,0,0-0;0-0;0-0;0-0,3,SimpleHill,0-0,0,21,selected,30-31,29-29;27-26;26-33;33-36;25-27;35-35,27-26,0.96,77,-7,1165.20380411
GEMS133,2018_Apr_05_1048,Kramer,AM,orientation,8,6,0,0-0;0-0;0-0;0-0,3,SimpleHill,0-0,0,22,selected,27-26,24-33;22-26;28-31;33-29;22-20;23-27,23-27,0.67,74,-3,1169.44800075
GEMS133,2018_Apr_05_1048,Kramer,AM,orientation,8,6,0,0-0;0-0;0-0;0-0,3,SimpleHill,0-0,0,23,selected,23-27,19-23;26-30;18-29;17-31;25-20;20-22,19-23,0.69,66,-8,1173.71598509
GEMS133,2018_Apr_05_1048,Kramer,AM,orientation,8,6,0,0-0;0-0;0-0;0-0,3,SimpleHill,0-0,0,24,selected,19-23,21-18;25-24;13-28;15-17;19-15;16-18,19-15,2.28,56,-10,1179.58279027
GEMS133,2018_Apr_05_1048,Kramer,AM,orientation,8,6,0,0-0;0-0;0-0;0-0,3,SimpleHill,0-0,0,25,selected,19-15,14-12;15-17;20-13;27-15;16-8;15-15,14-12,1.37,45,-11,1184.52359677
GEMS133,2018_Apr_05_1048,Kramer,AM,orientation,8,6,0,0-0;0-0;0-0;0-0,3,SimpleHill,0-0,0,26,selected,14-12,13-13;14-13;9-10;14-17;13-9;16-10,13-9,1.59,39,-6,1189.6935501
GEMS133,2018_Apr_05_1048,Kramer,AM,orientation,8,6,0,0-0;0-0;0-0;0-0,3,SimpleHill,0-0,0,27,selected,13-9,12-7;20-8;7-10;7-11;8-10;16-13,16-13,2.21,49,10,1195.47790799
GEMS133,2018_Apr_05_1048,Kramer,AM,orientation,8,6,0,0-0;0-0;0-0;0-0,3,SimpleHill,0-0,0,28,selected,16-13,15-14;12-10;19-16;8-13;10-15;17-14,17-14,1.88,52,3,1200.93672564
GEMS133,2018_Apr_05_1048,Kramer,AM,orientation,8,6,0,0-0;0-0;0-0;0-0,3,SimpleHill,0-0,0,29,selected,17-14,25-14;19-10;18-10;17-9;15-12;17-8,25-14,1.04,61,9,1205.54300208
GEMS133,2018_Apr_05_1048,Kramer,AM,orientation,8,6,0,0-0;0-0;0-0;0-0,3,SimpleHill,0-0,0,30,selected,25-14,23-15;18-16;30-15;27-13;24-16;22-18,24-16,0.71,63,2,1209.83010077
GEMS133,2018_Apr_05_1048,Kramer,AM,orientation,8,6,0,0-0;0-0;0-0;0-0,3,SimpleHill,0-0,0,31,selected,24-16,27-10;18-13;26-11;20-20;25-14;27-14,26-11,1.0,58,-5,1214.39073965
GEMS133,2018_Apr_05_1048,Kramer,AM,orientation,8,6,0,0-0;0-0;0-0;0-0,3,SimpleHill,0-0,0,32,selected,26-11,32-14;21-8;21-14;26-8;26-18;30-10,21-8,0.68,47,-11,1218.64477818
GEMS133,2018_Apr_05_1048,Kramer,AM,orientation,8,6,0,0-0;0-0;0-0;0-0,3,SimpleHill,0-0,0,33,selected,21-8,24-6;17-4;20-12;14-5;22-14;26-3,22-14,0.77,58,11,1222.98878106
GEMS133,2018_Apr_05_1048,Kramer,AM,orientation,8,6,0,0-0;0-0;0-0;0-0,3,SimpleHill,0-0,0,34,selected,22-14,27-8;24-11;17-12;19-18;29-14;17-9,27-8,1.08,54,-4,1227.65075271
GEMS133,2018_Apr_05_1048,Kramer,AM,orientation,8,6,0,0-0;0-0;0-0;0-0,3,SimpleHill,0-0,0,35,selected,27-8,22-11;21-6;30-10;30-9;29-4;23-3,30-10,1.29,60,6,1232.50477371
GEMS133,2018_Apr_05_1048,Kramer,AM,orientation,8,6,0,0-0;0-0;0-0;0-0,3,SimpleHill,0-0,0,36,selected,30-10,28-11;36-6;36-11;35-7;31-10;26-8,26-8,0.67,53,-7,1236.74387254
GEMS133,2018_Apr_05_1048,Kramer,AM,orientation,8,6,0,0-0;0-0;0-0;0-0,3,SimpleHill,0-0,0,37,selected,26-8,24-4;24-13;25-8;27-3;31-13;33-9,24-4,0.36,44,-9,1240.66615526
GEMS133,2018_Apr_05_1048,Kramer,AM,orientation,8,6,0,0-0;0-0;0-0;0-0,3,SimpleHill,0-0,0,38,selected,24-4,31-5;28-5;19-5;25-6;24-1;19-9,19-9,4.53,47,3,1248.75243247
GEMS133,2018_Apr_05_1048,Kramer,AM,orientation,8,6,0,0-0;0-0;0-0;0-0,3,SimpleHill,0-0,0,39,selected,19-9,16-4;15-4;16-16;21-8;17-7;24-11,16-16,1.82,53,6,1254.1602878
GEMS133,2018_Apr_05_1048,Kramer,AM,orientation,8,6,0,0-0;0-0;0-0;0-0,4,SimpleHill,0-0,0,0,selected,0-0,3-4;2-2;2-1;0-5;3-7;4-5,3-7,1.5,18,18,1268.31135757
GEMS133,2018_Apr_05_1048,Kramer,AM,orientation,8,6,0,0-0;0-0;0-0;0-0,4,SimpleHill,0-0,0,1,selected,3-7,7-5;0-14;3-6;7-9;9-5;1-5,7-5,0.5,22,4,1272.38488259
GEMS133,2018_Apr_05_1048,Kramer,AM,orientation,8,6,0,0-0;0-0;0-0;0-0,4,SimpleHill,0-0,0,2,selected,7-5,9-5;5-9;8-1;2-6;6-9;11-6,2-6,0.29,15,-7,1276.23689692
GEMS133,2018_Apr_05_1048,Kramer,AM,orientation,8,6,0,0-0;0-0;0-0;0-0,4,SimpleHill,0-0,0,3,selected,2-6,1-1;0-12;6-7;6-1;7-4;5-0,7-4,1.5,20,5,1281.32587154
GEMS133,2018_Apr_05_1048,Kramer,AM,orientation,8,6,0,0-0;0-0;0-0;0-0,4,SimpleHill,0-0,0,4,selected,7-4,9-7;7-8;5-8;12-10;5-11;4-0,5-8,2.79,24,4,1287.69276683
GEMS133,2018_Apr_05_1048,Kramer,AM,orientation,8,6,0,0-0;0-0;0-0;0-0,4,SimpleHill,0-0,0,5,selected,5-8,10-12;5-7;3-4;3-7;8-11;5-13,10-12,1.26,39,15,1292.53368802
GEMS133,2018_Apr_05_1048,Kramer,AM,orientation,8,6,0,0-0;0-0;0-0;0-0,4,SimpleHill,0-0,0,6,selected,10-12,12-15;15-8;12-5;16-14;10-11;15-13,16-14,0.98,50,11,1297.08169123
GEMS133,2018_Apr_05_1048,Kramer,AM,orientation,8,6,0,0-0;0-0;0-0;0-0,4,SimpleHill,0-0,0,7,selected,16-14,13-10;11-9;23-14;22-16;17-21;18-16,23-14,1.03,59,9,1301.6899769
GEMS133,2018_Apr_05_1048,Kramer,AM,orientation,8,6,0,0-0;0-0;0-0;0-0,4,SimpleHill,0-0,0,8,selected,23-14,23-13;27-14;19-13;20-12;23-10;26-13,26-13,0.71,61,2,1305.98199701
GEMS133,2018_Apr_05_1048,Kramer,AM,orientation,8,6,0,0-0;0-0;0-0;0-0,4,SimpleHill,0-0,0,9,selected,26-13,28-12;30-18;23-10;22-19;28-20;30-11,22-19,2.4,65,4,1311.97613515
GEMS133,2018_Apr_05_1048,Kramer,AM,orientation,8,6,0,0-0;0-0;0-0;0-0,4,SimpleHill,0-0,0,10,selected,22-19,27-20;19-26;20-20;26-22;17-23;20-22,20-22,1.48,66,1,1317.0230182
GEMS133,2018_Apr_05_1048,Kramer,AM,orientation,8,6,0,0-0;0-0;0-0;0-0,4,SimpleHill,0-0,0,11,selected,20-22,20-21;25-23;20-16;13-21;16-19;23-27,20-16,0.8,58,-8,1321.3886472
GEMS133,2018_Apr_05_1048,Kramer,AM,orientation,8,6,0,0-0;0-0;0-0;0-0,4,SimpleHill,0-0,0,12,selected,20-16,16-13;24-16;14-18;17-13;23-17;17-12,17-13,0.95,50,-8,1325.91786032
GEMS133,2018_Apr_05_1048,Kramer,AM,orientation,8,6,0,0-0;0-0;0-0;0-0,4,SimpleHill,0-0,0,13,selected,17-13,15-14;22-9;13-13;17-5;14-7;18-12,22-9,2.37,50,0,1331.86503795
GEMS133,2018_Apr_05_1048,Kramer,AM,orientation,8,6,0,0-0;0-0;0-0;0-0,4,SimpleHill,0-0,0,14,selected,22-9,21-10;19-5;23-5;26-10;14-9;23-4,23-5,0.66,44,-6,1336.09374369
GEMS133,2018_Apr_05_1048,Kramer,AM,orientation,8,6,0,0-0;0-0;0-0;0-0,4,SimpleHill,0-0,0,15,selected,23-5,19-5;19-0;18-9;28-10;19-2;16-4,19-2,1.22,34,-10,1340.88334918
GEMS133,2018_Apr_05_1048,Kramer,AM,orientation,8,6,0,0-0;0-0;0-0;0-0,4,SimpleHill,0-0,0,16,selected,19-2,16-1;14-3;18-4;20-1;14-8;25-4,25-4,1.41,45,11,1345.86227779
GEMS133,2018_Apr_05_1048,Kramer,AM,orientation,8,6,0,0-0;0-0;0-0;0-0,4,SimpleHill,0-0,0,17,selected,25-4,21-9;27-5;20-10;22-1;26-3;26-11,21-9,0.84,49,4,1350.26554331
GEMS133,2018_Apr_05_1048,Kramer,AM,orientation,8,6,0,0-0;0-0;0-0;0-0,4,SimpleHill,0-0,0,18,selected,21-9,26-5;19-7;24-14;29-9;28-10;25-3,24-14,2.0,60,11,1355.83508045
GEMS133,2018_Apr_05_1048,Kramer,AM,orientation,8,6,0,0-0;0-0;0-0;0-0,4,SimpleHill,0-0,0,19,selected,24-14,26-20;26-10;31-11;25-8;18-12;27-13,26-20,2.63,70,10,1362.02566601
GEMS133,2018_Apr_05_1048,Kramer,AM,orientation,8,6,0,0-0;0-0;0-0;0-0,4,SimpleHill,0-0,0,20,selected,26-20,25-19;27-27;21-25;30-22;23-20;22-22,30-22,2.36,76,6,1367.95724295
GEMS133,2018_Apr_05_1048,Kramer,AM,orientation,8,6,0,0-0;0-0;0-0;0-0,4,SimpleHill,0-0,0,21,selected,30-22,26-26;26-17;26-20;29-26;36-19;29-16,36-19,1.49,76,0,1373.01676647
GEMS133,2018_Apr_05_1048,Kramer,AM,orientation,8,6,0,0-0;0-0;0-0;0-0,4,SimpleHill,0-0,0,22,selected,36-19,32-25;38-20;36-17;42-20;35-25;31-15,42-20,1.71,80,4,1378.30338469
GEMS133,2018_Apr_05_1048,Kramer,AM,orientation,8,6,0,0-0;0-0;0-0;0-0,4,SimpleHill,0-0,0,23,selected,42-20,38-25;36-18;36-24;45-16;45-24;42-19,38-25,1.87,84,4,1383.76337676
GEMS133,2018_Apr_05_1048,Kramer,AM,orientation,8,6,0,0-0;0-0;0-0;0-0,4,SimpleHill,0-0,0,24,selected,38-25,32-26;34-20;41-32;36-28;41-23;44-21,41-32,1.3,91,7,1388.64557009
GEMS133,2018_Apr_05_1048,Kramer,AM,orientation,8,6,0,0-0;0-0;0-0;0-0,4,SimpleHill,0-0,0,25,selected,41-32,40-35;45-30;43-29;39-26;37-38;44-32,45-30,2.68,91,0,1394.8862489
GEMS133,2018_Apr_05_1048,Kramer,AM,orientation,8,6,0,0-0;0-0;0-0;0-0,4,SimpleHill,0-0,0,26,selected,45-30,52-30;42-23;46-28;42-27;51-34;51-27,52-30,2.62,91,0,1401.06407812
GEMS133,2018_Apr_05_1048,Kramer,AM,orientation,8,6,0,0-0;0-0;0-0;0-0,4,SimpleHill,0-0,0,27,selected,52-30,50-24;48-24;47-31;51-28;52-22;58-25,47-31,1.01,92,1,1405.64341939
GEMS133,2018_Apr_05_1048,Kramer,AM,orientation,8,6,0,0-0;0-0;0-0;0-0,4,SimpleHill,0-0,0,28,selected,47-31,47-33;52-29;45-31;46-24;45-27;45-24,45-27,1.3,88,-4,1410.52813345
GEMS133,2018_Apr_05_1048,Kramer,AM,orientation,8,6,0,0-0;0-0;0-0;0-0,4,SimpleHill,0-0,0,29,selected,45-27,48-20;49-32;43-31;42-24;41-21;51-31,49-32,1.03,93,5,1415.11327416
GEMS133,2018_Apr_05_1048,Kramer,AM,orientation,8,6,0,0-0;0-0;0-0;0-0,4,SimpleHill,0-0,0,30,selected,49-32,46-32;50-26;43-29;47-30;49-25;53-28,43-29,0.72,90,-3,1419.40783165
GEMS133,2018_Apr_05_1048,Kramer,AM,orientation,8,6,0,0-0;0-0;0-0;0-0,4,SimpleHill,0-0,0,31,selected,43-29,37-33;42-22;46-30;36-32;41-36;38-35,37-33,0.59,90,0,1423.57859129
GEMS133,2018_Apr_05_1048,Kramer,AM,orientation,8,6,0,0-0;0-0;0-0;0-0,4,SimpleHill,0-0,0,32,selected,37-33,38-26;38-38;34-31;36-27;43-30;37-40,38-38,0.65,94,4,1427.77599194
GEMS133,2018_Apr_05_1048,Kramer,AM,orientation,8,6,0,0-0;0-0;0-0;0-0,4,SimpleHill,0-0,0,33,selected,38-38,39-37;37-31;37-45;37-44;44-37;39-41,44-37,0.85,95,1,1432.20334254
GEMS133,2018_Apr_05_1048,Kramer,AM,orientation,8,6,0,0-0;0-0;0-0;0-0,4,SimpleHill,0-0,0,34,selected,44-37,46-38;46-35;46-37;48-43;38-36;44-34,44-34,0.77,94,-1,1436.5305399
GEMS133,2018_Apr_05_1048,Kramer,AM,orientation,8,6,0,0-0;0-0;0-0;0-0,4,SimpleHill,0-0,0,35,selected,44-34,48-31;40-31;49-40;36-34;47-27;38-34,48-31,0.64,92,-2,1440.72348999
GEMS133,2018_Apr_05_1048,Kramer,AM,orientation,8,6,0,0-0;0-0;0-0;0-0,4,SimpleHill,0-0,0,36,selected,48-31,50-30;50-29;43-34;45-28;46-31;52-25,50-29,1.14,91,-1,1445.44211904
GEMS133,2018_Apr_05_1048,Kramer,AM,orientation,8,6,0,0-0;0-0;0-0;0-0,4,SimpleHill,0-0,0,37,selected,50-29,49-35;54-25;48-23;52-35;57-28;42-29,57-28,0.41,89,-2,1449.41944206
GEMS133,2018_Apr_05_1048,Kramer,AM,orientation,8,6,0,0-0;0-0;0-0;0-0,4,SimpleHill,0-0,0,38,selected,57-28,61-33;59-24;62-34;51-30;57-22;63-32,51-30,0.86,91,2,1453.84135491
GEMS133,2018_Apr_05_1048,Kramer,AM,orientation,8,6,0,0-0;0-0;0-0;0-0,4,SimpleHill,0-0,0,39,selected,51-30,54-29;51-33;45-27;50-30;47-33;54-27,54-29,1.02,90,-1,1458.42528856
