subj_id,date,computer,experimenter,version,generation,inherit_from,sight_radius,n_gabors,block_ix,landscape_name,starting_pos,starting_score,trial,pos,stims,selected,rt,score,delta,exp_time,landscape_ix
GEMS164,2018_Oct_16_1141,Kramer,MP,1.2,1,,10,6,1,SimpleHill,0-0,0,0,0-0,0-7;3-9;2-9;4-3;6-7;0-0,2-9,12.53,20,20,516.327462077,1
GEMS164,2018_Oct_16_1141,Kramer,MP,1.2,1,,10,6,1,SimpleHill,0-0,0,1,2-9,11-8;4-17;8-17;6-0;9-15;6-15,6-0,6.61,11,-9,527.024171519,1
GEMS164,2018_Oct_16_1141,Kramer,MP,1.2,1,,10,6,1,SimpleHill,0-0,0,2,6-0,4-7;2-0;15-2;3-1;0-1;1-7,1-7,3.03,15,4,534.132951996,1
GEMS164,2018_Oct_16_1141,Kramer,MP,1.2,1,,10,6,1,SimpleHill,0-0,0,3,1-7,5-16;7-14;7-13;2-12;8-6;6-5,5-16,6.69,36,21,544.892564875,1
GEMS164,2018_Oct_16_1141,Kramer,MP,1.2,1,,10,6,1,SimpleHill,0-0,0,4,5-16,10-24;1-24;1-20;10-13;1-23;11-8,1-24,12.64,38,2,561.607764501,1
GEMS164,2018_Oct_16_1141,Kramer,MP,1.2,1,,10,6,1,SimpleHill,0-0,0,5,1-24,1-32;2-23;8-27;7-19;4-28;8-29,8-29,5.39,55,17,571.077317875,1
GEMS164,2018_Oct_16_1141,Kramer,MP,1.2,1,,10,6,1,SimpleHill,0-0,0,6,8-29,6-37;8-19;4-30;15-29;12-25;12-27,15-29,18.23,66,11,593.376595745,1
GEMS164,2018_Oct_16_1141,Kramer,MP,1.2,1,,10,6,1,SimpleHill,0-0,0,7,15-29,16-37;22-31;19-29;17-33;14-21;17-23,14-21,7.39,57,-9,604.846270114,1
GEMS164,2018_Oct_16_1141,Kramer,MP,1.2,1,,10,6,1,SimpleHill,0-0,0,8,14-21,19-17;9-18;13-25;17-19;15-12;6-15,13-25,5.63,60,3,614.551212673,1
GEMS164,2018_Oct_16_1141,Kramer,MP,1.2,1,,10,6,1,SimpleHill,0-0,0,9,13-25,16-24;6-30;21-26;8-22;19-19;17-31,17-31,7.01,71,11,625.620788774,1
GEMS164,2018_Oct_16_1141,Kramer,MP,1.2,1,,10,6,1,SimpleHill,0-0,0,10,17-31,12-36;21-35;24-30;25-28;13-25;12-30,12-36,5.7,67,-4,635.380300504,1
GEMS164,2018_Oct_16_1141,Kramer,MP,1.2,1,,10,6,1,SimpleHill,0-0,0,11,12-36,12-44;8-32;4-38;7-37;14-34;14-38,4-38,2.22,54,-13,641.664675153,1
GEMS164,2018_Oct_16_1141,Kramer,MP,1.2,1,,10,6,1,SimpleHill,0-0,0,12,4-38,3-38;2-45;1-30;2-44;2-41;8-45,8-45,10.34,64,10,656.088796097,1
GEMS164,2018_Oct_16_1141,Kramer,MP,1.2,1,,10,6,1,SimpleHill,0-0,0,13,8-45,15-49;7-40;2-49;14-43;15-45;6-36,15-49,5.52,75,11,665.676038462,1
GEMS164,2018_Oct_16_1141,Kramer,MP,1.2,1,,10,6,1,SimpleHill,0-0,0,14,15-49,9-57;9-55;20-44;17-45;10-53;21-45,9-57,4.44,65,-10,674.239658589,1
GEMS164,2018_Oct_16_1141,Kramer,MP,1.2,1,,10,6,1,SimpleHill,0-0,0,15,9-57,9-59;18-59;9-60;16-58;12-60;16-54,16-58,12.98,75,10,691.296551636,1
GEMS164,2018_Oct_16_1141,Kramer,MP,1.2,1,,10,6,1,SimpleHill,0-0,0,16,16-58,11-59;15-63;10-50;19-57;19-49;20-60,19-57,7.1,79,4,702.464476376,1
GEMS164,2018_Oct_16_1141,Kramer,MP,1.2,1,,10,6,1,SimpleHill,0-0,0,17,19-57,20-63;13-56;28-54;13-64;17-49;21-65,21-65,8.37,78,-1,714.889943632,1
GEMS164,2018_Oct_16_1141,Kramer,MP,1.2,1,,10,6,1,SimpleHill,0-0,0,18,21-65,23-70;28-66;14-69;17-62;26-66;29-60,14-69,5.61,66,-12,724.576356635,1
GEMS164,2018_Oct_16_1141,Kramer,MP,1.2,1,,10,6,1,SimpleHill,0-0,0,19,14-69,20-63;8-66;12-64;11-66;18-70;14-68,20-63,7.26,78,12,735.887394729,1
GEMS164,2018_Oct_16_1141,Kramer,MP,1.2,1,,10,6,1,SimpleHill,0-0,0,20,20-63,19-62;26-68;22-62;22-55;16-61;15-55,19-62,11.53,77,-1,751.488303794,1
GEMS164,2018_Oct_16_1141,Kramer,MP,1.2,1,,10,6,1,SimpleHill,0-0,0,21,19-62,13-65;13-63;21-63;19-68;14-56;28-59,14-56,1.65,73,-4,757.186820162,1
GEMS164,2018_Oct_16_1141,Kramer,MP,1.2,1,,10,6,1,SimpleHill,0-0,0,22,14-56,12-63;19-61;10-55;14-57;20-56;18-49,19-61,3.85,78,5,765.101639517,1
GEMS164,2018_Oct_16_1141,Kramer,MP,1.2,1,,10,6,1,SimpleHill,0-0,0,23,19-61,14-57;22-66;20-66;23-68;16-70;14-66,20-66,4.05,76,-2,773.227325397,1
GEMS164,2018_Oct_16_1141,Kramer,MP,1.2,1,,10,6,1,SimpleHill,0-0,0,24,20-66,18-67;19-57;17-70;15-69;29-63;21-68,21-68,4.62,76,0,781.921261871,1
GEMS164,2018_Oct_16_1141,Kramer,MP,1.2,1,,10,6,1,SimpleHill,0-0,0,25,21-68,15-69;19-64;15-67;30-64;21-59;21-60,15-69,7.61,68,-8,793.585586843,1
GEMS164,2018_Oct_16_1141,Kramer,MP,1.2,1,,10,6,1,SimpleHill,0-0,0,26,15-69,16-60;7-65;22-66;14-61;19-68;12-61,14-61,8.8,71,3,806.468703206,1
GEMS164,2018_Oct_16_1141,Kramer,MP,1.2,1,,10,6,1,SimpleHill,0-0,0,27,14-61,20-68;15-56;12-56;13-65;21-57;6-56,12-56,3.07,70,-1,813.625743176,1
GEMS164,2018_Oct_16_1141,Kramer,MP,1.2,1,,10,6,1,SimpleHill,0-0,0,28,12-56,11-50;16-63;12-64;5-54;5-50;7-50,16-63,4.3,73,3,821.993533477,1
GEMS164,2018_Oct_16_1141,Kramer,MP,1.2,1,,10,6,1,SimpleHill,0-0,0,29,16-63,15-55;15-59;15-63;21-61;21-64;12-58,15-63,3.19,72,-1,829.235121587,1
GEMS164,2018_Oct_16_1141,Kramer,MP,1.2,1,,10,6,1,SimpleHill,0-0,0,30,15-63,15-57;9-67;10-66;15-66;17-58;20-68,10-66,6.97,62,-10,840.280751515,1
GEMS164,2018_Oct_16_1141,Kramer,MP,1.2,1,,10,6,1,SimpleHill,0-0,0,31,10-66,12-67;3-63;2-66;8-70;13-66;16-65,13-66,21.41,67,5,865.766869392,1
GEMS164,2018_Oct_16_1141,Kramer,MP,1.2,1,,10,6,1,SimpleHill,0-0,0,32,13-66,15-57;19-62;8-66;10-68;19-60;4-69,8-66,7.35,59,-8,877.172278648,1
GEMS164,2018_Oct_16_1141,Kramer,MP,1.2,1,,10,6,1,SimpleHill,0-0,0,33,8-66,4-67;9-59;2-64;5-65;8-56;13-67,8-56,7.48,64,5,888.714193893,1
GEMS164,2018_Oct_16_1141,Kramer,MP,1.2,1,,10,6,1,SimpleHill,0-0,0,34,8-56,15-60;10-49;5-58;10-60;14-49;6-48,10-60,15.73,66,2,908.519520564,1
GEMS164,2018_Oct_16_1141,Kramer,MP,1.2,1,,10,6,1,SimpleHill,0-0,0,35,10-60,9-61;6-66;13-63;8-59;4-68;19-56,19-56,13.5,80,14,926.07891322,1
GEMS164,2018_Oct_16_1141,Kramer,MP,1.2,1,,10,6,1,SimpleHill,0-0,0,36,19-56,19-62;25-51;26-59;18-59;19-56;23-57,23-57,6.2,84,4,936.361398679,1
GEMS164,2018_Oct_16_1141,Kramer,MP,1.2,1,,10,6,1,SimpleHill,0-0,0,37,23-57,24-56;27-63;17-50;18-55;24-61;25-51,17-50,1.29,78,-6,941.71280917,1
GEMS164,2018_Oct_16_1141,Kramer,MP,1.2,1,,10,6,1,SimpleHill,0-0,0,38,17-50,10-48;17-44;26-51;12-46;8-49;18-56,18-56,3.53,78,0,949.318031491,1
GEMS164,2018_Oct_16_1141,Kramer,MP,1.2,1,,10,6,1,SimpleHill,0-0,0,39,18-56,17-49;15-55;22-59;17-65;12-60;18-59,17-65,5.91,73,-5,959.304587576,1
GEMS164,2018_Oct_16_1141,Kramer,MP,1.2,1,,10,6,2,SimpleHill,0-0,0,0,0-0,5-5;2-8;5-6;3-2;5-4;2-4,5-5,13.89,19,19,989.456977552,1
GEMS164,2018_Oct_16_1141,Kramer,MP,1.2,1,,10,6,2,SimpleHill,0-0,0,1,5-5,14-8;2-13;3-4;0-8;6-2;11-2,11-2,5.85,23,4,999.377635407,1
GEMS164,2018_Oct_16_1141,Kramer,MP,1.2,1,,10,6,2,SimpleHill,0-0,0,2,11-2,5-0;20-3;13-8;16-3;20-4;3-8,20-4,7.62,39,16,1011.07317331,1
GEMS164,2018_Oct_16_1141,Kramer,MP,1.2,1,,10,6,2,SimpleHill,0-0,0,3,20-4,12-10;28-6;27-10;18-6;19-4;20-3,19-4,8.25,38,-1,1023.41219075,1
GEMS164,2018_Oct_16_1141,Kramer,MP,1.2,1,,10,6,2,SimpleHill,0-0,0,4,19-4,24-1;11-3;17-9;26-8;24-5;15-2,26-8,6.56,53,15,1034.04687925,1
GEMS164,2018_Oct_16_1141,Kramer,MP,1.2,1,,10,6,2,SimpleHill,0-0,0,5,26-8,20-9;17-12;31-16;26-1;31-1;27-16,27-16,5.2,66,13,1043.33441482,1
GEMS164,2018_Oct_16_1141,Kramer,MP,1.2,1,,10,6,2,SimpleHill,0-0,0,6,27-16,19-13;22-22;28-14;22-19;35-14;28-18,28-18,4.67,69,3,1052.08026881,1
GEMS164,2018_Oct_16_1141,Kramer,MP,1.2,1,,10,6,2,SimpleHill,0-0,0,7,28-18,26-17;25-17;34-14;29-13;32-11;34-11,25-17,4.24,65,-4,1060.37240476,1
GEMS164,2018_Oct_16_1141,Kramer,MP,1.2,1,,10,6,2,SimpleHill,0-0,0,8,25-17,29-11;25-27;27-24;34-18;19-9;26-17,19-9,3.69,47,-18,1068.13011213,1
GEMS164,2018_Oct_16_1141,Kramer,MP,1.2,1,,10,6,2,SimpleHill,0-0,0,9,19-9,17-15;19-13;23-9;24-9;26-14;20-6,19-13,3.9,53,6,1076.09618577,1
GEMS164,2018_Oct_16_1141,Kramer,MP,1.2,1,,10,6,2,SimpleHill,0-0,0,10,19-13,24-11;15-10;22-10;21-21;18-4;23-14,21-21,6.12,66,13,1086.27118489,1
GEMS164,2018_Oct_16_1141,Kramer,MP,1.2,1,,10,6,2,SimpleHill,0-0,0,11,21-21,25-17;22-28;24-19;19-14;27-25;20-16,22-28,3.77,74,8,1094.09388302,1
GEMS164,2018_Oct_16_1141,Kramer,MP,1.2,1,,10,6,2,SimpleHill,0-0,0,12,22-28,16-30;16-33;23-27;26-25;24-24;19-22,16-30,5.38,68,-6,1103.55947012,1
GEMS164,2018_Oct_16_1141,Kramer,MP,1.2,1,,10,6,2,SimpleHill,0-0,0,13,16-30,11-25;23-26;25-31;10-36;19-32;13-26,13-26,8.87,61,-7,1116.50510677,1
GEMS164,2018_Oct_16_1141,Kramer,MP,1.2,1,,10,6,2,SimpleHill,0-0,0,14,13-26,4-22;10-35;19-34;13-36;12-31;17-26,19-34,6.41,75,14,1126.98174092,1
GEMS164,2018_Oct_16_1141,Kramer,MP,1.2,1,,10,6,2,SimpleHill,0-0,0,15,19-34,14-36;17-34;25-29;23-43;21-28;20-42,20-42,4.96,80,5,1135.99483562,1
GEMS164,2018_Oct_16_1141,Kramer,MP,1.2,1,,10,6,2,SimpleHill,0-0,0,16,20-42,14-47;12-48;26-41;21-48;21-39;21-43,14-47,9.65,73,-7,1149.69727441,1
GEMS164,2018_Oct_16_1141,Kramer,MP,1.2,1,,10,6,2,SimpleHill,0-0,0,17,14-47,6-45;17-46;22-48;11-52;9-44;13-50,11-52,2.55,69,-4,1156.28452797,1
GEMS164,2018_Oct_16_1141,Kramer,MP,1.2,1,,10,6,2,SimpleHill,0-0,0,18,11-52,9-61;6-54;13-51;10-50;20-56;4-59,20-56,2.05,81,12,1162.41340806,1
GEMS164,2018_Oct_16_1141,Kramer,MP,1.2,1,,10,6,2,SimpleHill,0-0,0,19,20-56,27-59;20-51;27-58;23-55;28-50;15-57,23-55,4.08,84,3,1170.57202609,1
GEMS164,2018_Oct_16_1141,Kramer,MP,1.2,1,,10,6,2,SimpleHill,0-0,0,20,23-55,28-55;29-57;31-59;16-57;28-50;22-55,22-55,5.9,83,-1,1180.54170847,1
GEMS164,2018_Oct_16_1141,Kramer,MP,1.2,1,,10,6,2,SimpleHill,0-0,0,21,22-55,28-62;20-61;29-62;27-52;19-54;24-59,20-61,11.13,79,-4,1195.7645484,1
GEMS164,2018_Oct_16_1141,Kramer,MP,1.2,1,,10,6,2,SimpleHill,0-0,0,22,20-61,23-67;19-60;16-60;18-67;22-69;18-58,22-69,6.68,77,-2,1206.51982145,1
GEMS164,2018_Oct_16_1141,Kramer,MP,1.2,1,,10,6,2,SimpleHill,0-0,0,23,22-69,23-60;12-69;18-66;25-60;14-70;28-67,25-60,5.11,85,8,1215.71353386,1
GEMS164,2018_Oct_16_1141,Kramer,MP,1.2,1,,10,6,2,SimpleHill,0-0,0,24,25-60,25-52;30-63;32-61;26-59;32-53;29-65,32-53,7.48,93,8,1227.27959182,1
GEMS164,2018_Oct_16_1141,Kramer,MP,1.2,1,,10,6,2,SimpleHill,0-0,0,25,32-53,28-45;30-58;35-45;24-51;25-48;37-55,24-51,5.26,86,-7,1236.60391474,1
GEMS164,2018_Oct_16_1141,Kramer,MP,1.2,1,,10,6,2,SimpleHill,0-0,0,26,24-51,15-49;18-46;20-50;28-58;23-45;33-49,28-58,2.28,89,3,1242.96201422,1
GEMS164,2018_Oct_16_1141,Kramer,MP,1.2,1,,10,6,2,SimpleHill,0-0,0,27,28-58,31-62;25-61;26-49;32-62;37-59;32-65,32-62,2.81,90,1,1249.83901264,1
GEMS164,2018_Oct_16_1141,Kramer,MP,1.2,1,,10,6,2,SimpleHill,0-0,0,28,32-62,37-54;35-55;38-67;24-65;28-64;36-62,28-64,2.01,86,-4,1255.90697707,1
GEMS164,2018_Oct_16_1141,Kramer,MP,1.2,1,,10,6,2,SimpleHill,0-0,0,29,28-64,21-62;21-61;34-69;22-69;22-67;32-59,21-62,2.15,80,-6,1262.14326924,1
GEMS164,2018_Oct_16_1141,Kramer,MP,1.2,1,,10,6,2,SimpleHill,0-0,0,30,21-62,30-66;23-58;19-69;15-68;21-66;22-65,15-68,2.0,69,-11,1268.22233194,1
GEMS164,2018_Oct_16_1141,Kramer,MP,1.2,1,,10,6,2,SimpleHill,0-0,0,31,15-68,19-60;22-70;24-68;6-68;23-67;19-63,23-67,1.82,79,10,1274.11119558,1
GEMS164,2018_Oct_16_1141,Kramer,MP,1.2,1,,10,6,2,SimpleHill,0-0,0,32,23-67,17-70;30-66;25-61;14-65;17-59;15-67,25-61,5.47,85,6,1283.6715117,1
GEMS164,2018_Oct_16_1141,Kramer,MP,1.2,1,,10,6,2,SimpleHill,0-0,0,33,25-61,29-63;20-53;17-55;21-58;21-60;24-57,21-58,9.0,81,-4,1296.74489371,1
GEMS164,2018_Oct_16_1141,Kramer,MP,1.2,1,,10,6,2,SimpleHill,0-0,0,34,21-58,22-57;14-51;15-50;26-58;21-48;23-63,26-58,1.04,87,6,1301.86899609,1
GEMS164,2018_Oct_16_1141,Kramer,MP,1.2,1,,10,6,2,SimpleHill,0-0,0,35,26-58,35-61;29-49;33-61;20-66;25-66;25-55,33-61,1.2,91,4,1307.14852901,1
GEMS164,2018_Oct_16_1141,Kramer,MP,1.2,1,,10,6,2,SimpleHill,0-0,0,36,33-61,38-65;41-62;36-58;35-59;36-70;26-66,36-70,2.44,88,-3,1313.65697051,1
GEMS164,2018_Oct_16_1141,Kramer,MP,1.2,1,,10,6,2,SimpleHill,0-0,0,37,36-70,32-62;43-69;35-63;28-64;27-70;39-64,35-63,3.21,92,4,1320.94492604,1
GEMS164,2018_Oct_16_1141,Kramer,MP,1.2,1,,10,6,2,SimpleHill,0-0,0,38,35-63,30-67;31-66;28-63;32-59;35-58;32-57,32-59,2.28,91,-1,1327.29357925,1
GEMS164,2018_Oct_16_1141,Kramer,MP,1.2,1,,10,6,2,SimpleHill,0-0,0,39,32-59,26-61;23-62;31-60;36-54;35-62;25-56,35-62,2.64,92,1,1333.99465668,1
GEMS164,2018_Oct_16_1141,Kramer,MP,1.2,1,,10,6,3,SimpleHill,0-0,0,0,0-0,1-5;3-3;10-0;4-1;2-0;7-0,10-0,7.26,18,18,1533.47492294,1
GEMS164,2018_Oct_16_1141,Kramer,MP,1.2,1,,10,6,3,SimpleHill,0-0,0,1,10-0,15-1;4-8;19-2;17-7;5-4;1-4,17-7,3.9,41,23,1541.44258264,1
GEMS164,2018_Oct_16_1141,Kramer,MP,1.2,1,,10,6,3,SimpleHill,0-0,0,2,17-7,20-16;22-13;20-8;11-14;16-9;18-7,11-14,8.98,43,2,1554.49212411,1
GEMS164,2018_Oct_16_1141,Kramer,MP,1.2,1,,10,6,3,SimpleHill,0-0,0,3,11-14,3-12;11-11;11-5;4-14;8-22;11-10,11-5,3.41,29,-14,1561.96527853,1
GEMS164,2018_Oct_16_1141,Kramer,MP,1.2,1,,10,6,3,SimpleHill,0-0,0,4,11-5,15-5;11-8;19-10;2-8;8-4;3-5,11-8,3.38,34,5,1569.4150287,1
GEMS164,2018_Oct_16_1141,Kramer,MP,1.2,1,,10,6,3,SimpleHill,0-0,0,5,11-8,6-2;7-12;5-12;5-1;18-1;12-7,12-7,3.58,34,0,1577.07379269,1
GEMS164,2018_Oct_16_1141,Kramer,MP,1.2,1,,10,6,3,SimpleHill,0-0,0,6,12-7,4-2;12-14;7-7;16-9;20-7;7-2,16-9,0.91,43,9,1582.05035514,1
GEMS164,2018_Oct_16_1141,Kramer,MP,1.2,1,,10,6,3,SimpleHill,0-0,0,7,16-9,11-9;10-15;11-1;8-6;9-12;7-7,9-12,5.78,37,-6,1591.88984024,1
GEMS164,2018_Oct_16_1141,Kramer,MP,1.2,1,,10,6,3,SimpleHill,0-0,0,8,9-12,14-20;14-6;15-6;16-17;9-7;13-7,16-17,0.81,55,18,1596.77614441,1
GEMS164,2018_Oct_16_1141,Kramer,MP,1.2,1,,10,6,3,SimpleHill,0-0,0,9,16-17,17-20;18-14;18-17;7-20;19-16;20-20,18-17,1.04,57,2,1601.89147368,1
GEMS164,2018_Oct_16_1141,Kramer,MP,1.2,1,,10,6,3,SimpleHill,0-0,0,10,18-17,15-22;14-17;10-16;27-13;19-23;18-27,27-13,0.91,62,5,1606.88561853,1
GEMS164,2018_Oct_16_1141,Kramer,MP,1.2,1,,10,6,3,SimpleHill,0-0,0,11,27-13,26-12;26-6;30-6;26-11;27-13;34-14,27-13,0.95,62,0,1611.9012522,1
GEMS164,2018_Oct_16_1141,Kramer,MP,1.2,1,,10,6,3,SimpleHill,0-0,0,12,27-13,35-13;33-5;33-10;32-16;24-18;27-6,32-16,1.76,70,8,1617.7218294,1
GEMS164,2018_Oct_16_1141,Kramer,MP,1.2,1,,10,6,3,SimpleHill,0-0,0,13,32-16,31-8;33-21;29-16;33-19;28-18;28-10,33-19,0.85,75,5,1622.63863365,1
GEMS164,2018_Oct_16_1141,Kramer,MP,1.2,1,,10,6,3,SimpleHill,0-0,0,14,33-19,29-11;29-18;35-23;32-19;38-21;37-23,32-19,0.95,74,-1,1627.67156132,1
GEMS164,2018_Oct_16_1141,Kramer,MP,1.2,1,,10,6,3,SimpleHill,0-0,0,15,32-19,34-12;28-16;36-16;32-10;27-24;24-24,27-24,2.63,75,1,1634.37986006,1
GEMS164,2018_Oct_16_1141,Kramer,MP,1.2,1,,10,6,3,SimpleHill,0-0,0,16,27-24,26-21;28-32;34-29;20-19;28-22;19-30,34-29,0.94,86,11,1639.37249183,1
GEMS164,2018_Oct_16_1141,Kramer,MP,1.2,1,,10,6,3,SimpleHill,0-0,0,17,34-29,35-20;40-32;40-37;31-24;39-33;43-28,40-37,0.64,94,8,1644.08807557,1
GEMS164,2018_Oct_16_1141,Kramer,MP,1.2,1,,10,6,3,SimpleHill,0-0,0,18,40-37,46-40;40-44;43-45;34-30;44-40;49-33,43-45,1.64,98,4,1649.80807435,1
GEMS164,2018_Oct_16_1141,Kramer,MP,1.2,1,,10,6,3,SimpleHill,0-0,0,19,43-45,48-50;47-37;51-42;46-37;40-50;46-43,51-42,1.42,98,0,1655.29741877,1
GEMS164,2018_Oct_16_1141,Kramer,MP,1.2,1,,10,6,3,SimpleHill,0-0,0,20,51-42,55-47;48-45;43-39;52-48;50-37;50-43,52-48,1.44,99,1,1660.81631899,1
GEMS164,2018_Oct_16_1141,Kramer,MP,1.2,1,,10,6,3,SimpleHill,0-0,0,21,52-48,56-47;54-54;43-47;61-44;59-46;57-49,56-47,0.75,99,0,1665.62903854,1
GEMS164,2018_Oct_16_1141,Kramer,MP,1.2,1,,10,6,3,SimpleHill,0-0,0,22,56-47,51-52;64-53;62-41;50-54;52-44;55-44,64-53,2.83,95,-4,1672.53133104,1
GEMS164,2018_Oct_16_1141,Kramer,MP,1.2,1,,10,6,3,SimpleHill,0-0,0,23,64-53,56-57;70-56;70-53;60-58;60-46;66-57,56-57,2.85,98,3,1679.44798389,1
GEMS164,2018_Oct_16_1141,Kramer,MP,1.2,1,,10,6,3,SimpleHill,0-0,0,24,56-57,49-58;63-64;59-49;59-48;53-48;55-66,55-66,2.84,94,-4,1686.34830687,1
GEMS164,2018_Oct_16_1141,Kramer,MP,1.2,1,,10,6,3,SimpleHill,0-0,0,25,55-66,45-66;62-69;56-59;61-59;55-60;47-66,56-59,2.99,97,3,1693.39639479,1
GEMS164,2018_Oct_16_1141,Kramer,MP,1.2,1,,10,6,3,SimpleHill,0-0,0,26,56-59,53-59;64-55;61-63;58-68;56-59;50-51,61-63,2.6,94,-3,1700.07973522,1
GEMS164,2018_Oct_16_1141,Kramer,MP,1.2,1,,10,6,3,SimpleHill,0-0,0,27,61-63,65-55;61-53;64-59;56-60;65-63;57-56,56-60,7.56,97,3,1711.70956471,1
GEMS164,2018_Oct_16_1141,Kramer,MP,1.2,1,,10,6,3,SimpleHill,0-0,0,28,56-60,64-60;54-62;52-68;51-52;60-58;57-51,51-52,0.99,99,2,1716.78162185,1
GEMS164,2018_Oct_16_1141,Kramer,MP,1.2,1,,10,6,3,SimpleHill,0-0,0,29,51-52,49-44;43-53;52-58;56-59;57-59;44-58,52-58,0.92,98,-1,1721.76286727,1
GEMS164,2018_Oct_16_1141,Kramer,MP,1.2,1,,10,6,3,SimpleHill,0-0,0,30,52-58,56-66;57-57;53-63;51-64;53-64;50-61,56-66,4.92,94,-4,1730.74830079,1
GEMS164,2018_Oct_16_1141,Kramer,MP,1.2,1,,10,6,3,SimpleHill,0-0,0,31,56-66,48-64;53-59;59-69;57-66;54-61;47-63,59-69,2.08,91,-3,1736.89770493,1
GEMS164,2018_Oct_16_1141,Kramer,MP,1.2,1,,10,6,3,SimpleHill,0-0,0,32,59-69,67-68;62-66;60-63;54-63;50-70;57-64,57-64,2.05,95,4,1743.01960187,1
GEMS164,2018_Oct_16_1141,Kramer,MP,1.2,1,,10,6,3,SimpleHill,0-0,0,33,57-64,54-65;51-59;59-63;52-69;59-59;58-65,59-63,3.4,95,0,1750.48496906,1
GEMS164,2018_Oct_16_1141,Kramer,MP,1.2,1,,10,6,3,SimpleHill,0-0,0,34,59-63,67-62;60-64;56-65;63-63;58-58;55-57,58-58,1.55,97,2,1756.10399732,1
GEMS164,2018_Oct_16_1141,Kramer,MP,1.2,1,,10,6,3,SimpleHill,0-0,0,35,58-58,58-64;66-63;66-57;66-54;67-57;55-65,58-64,1.85,94,-3,1762.04414053,1
GEMS164,2018_Oct_16_1141,Kramer,MP,1.2,1,,10,6,3,SimpleHill,0-0,0,36,58-64,50-70;67-62;66-67;51-62;54-57;62-58,66-67,1.94,89,-5,1768.06972975,1
GEMS164,2018_Oct_16_1141,Kramer,MP,1.2,1,,10,6,3,SimpleHill,0-0,0,37,66-67,58-62;61-70;59-62;58-68;70-70;60-64,58-68,7.87,92,3,1780.01900233,1
GEMS164,2018_Oct_16_1141,Kramer,MP,1.2,1,,10,6,3,SimpleHill,0-0,0,38,58-68,58-63;55-66;61-61;58-68;60-62;60-64,58-63,3.09,95,3,1787.19173583,1
GEMS164,2018_Oct_16_1141,Kramer,MP,1.2,1,,10,6,3,SimpleHill,0-0,0,39,58-63,57-59;50-62;52-55;59-61;60-64;65-60,57-59,2.41,97,2,1793.67358687,1
GEMS164,2018_Oct_16_1141,Kramer,MP,1.2,1,,10,6,4,SimpleHill,0-0,0,0,0-0,6-8;6-6;5-8;4-6;0-4;3-7,4-6,3.14,18,18,1812.68858003,1
GEMS164,2018_Oct_16_1141,Kramer,MP,1.2,1,,10,6,4,SimpleHill,0-0,0,1,4-6,2-15;5-2;5-8;11-8;7-13;5-7,11-8,1.19,34,16,1817.94604445,1
GEMS164,2018_Oct_16_1141,Kramer,MP,1.2,1,,10,6,4,SimpleHill,0-0,0,2,11-8,12-13;2-12;16-15;15-8;20-9;11-5,20-9,4.63,48,14,1826.64885743,1
GEMS164,2018_Oct_16_1141,Kramer,MP,1.2,1,,10,6,4,SimpleHill,0-0,0,3,20-9,21-0;21-11;17-3;11-8;19-5;16-6,19-5,2.77,40,-8,1833.48701606,1
GEMS164,2018_Oct_16_1141,Kramer,MP,1.2,1,,10,6,4,SimpleHill,0-0,0,4,19-5,10-9;20-7;10-7;18-9;12-4;16-5,16-5,5.66,36,-4,1843.19467397,1
GEMS164,2018_Oct_16_1141,Kramer,MP,1.2,1,,10,6,4,SimpleHill,0-0,0,5,16-5,20-14;25-4;17-12;8-10;17-2;22-13,17-2,3.5,32,-4,1850.75802394,1
GEMS164,2018_Oct_16_1141,Kramer,MP,1.2,1,,10,6,4,SimpleHill,0-0,0,6,17-2,14-3;25-2;18-2;18-10;8-6;12-7,18-10,1.91,47,15,1856.74526566,1
GEMS164,2018_Oct_16_1141,Kramer,MP,1.2,1,,10,6,4,SimpleHill,0-0,0,7,18-10,17-7;13-3;27-12;10-16;12-12;12-8,10-16,6.63,44,-3,1867.44686389,1
GEMS164,2018_Oct_16_1141,Kramer,MP,1.2,1,,10,6,4,SimpleHill,0-0,0,8,10-16,13-15;4-20;13-23;5-20;3-10;17-11,17-11,2.89,47,3,1874.38782237,1
GEMS164,2018_Oct_16_1141,Kramer,MP,1.2,1,,10,6,4,SimpleHill,0-0,0,9,17-11,23-6;18-8;21-17;23-15;15-12;15-3,23-15,1.01,60,13,1879.46572378,1
GEMS164,2018_Oct_16_1141,Kramer,MP,1.2,1,,10,6,4,SimpleHill,0-0,0,10,23-15,18-17;25-13;17-8;28-9;27-14;22-8,27-14,4.63,63,3,1888.17116216,1
GEMS164,2018_Oct_16_1141,Kramer,MP,1.2,1,,10,6,4,SimpleHill,0-0,0,11,27-14,32-8;25-9;35-19;26-13;23-11;27-6,35-19,2.67,76,13,1894.92702195,1
GEMS164,2018_Oct_16_1141,Kramer,MP,1.2,1,,10,6,4,SimpleHill,0-0,0,12,35-19,39-13;40-22;28-18;38-12;36-14;29-12,40-22,2.69,82,6,1901.67403852,1
GEMS164,2018_Oct_16_1141,Kramer,MP,1.2,1,,10,6,4,SimpleHill,0-0,0,13,40-22,31-22;46-28;42-31;42-18;47-15;38-24,46-28,3.95,90,8,1909.70606,1
GEMS164,2018_Oct_16_1141,Kramer,MP,1.2,1,,10,6,4,SimpleHill,0-0,0,14,46-28,48-34;48-26;46-34;38-31;44-37;50-27,46-34,2.26,94,4,1916.04611071,1
GEMS164,2018_Oct_16_1141,Kramer,MP,1.2,1,,10,6,4,SimpleHill,0-0,0,15,46-34,53-41;53-38;50-34;51-32;48-39;39-27,50-34,0.99,94,0,1921.11634108,1
GEMS164,2018_Oct_16_1141,Kramer,MP,1.2,1,,10,6,4,SimpleHill,0-0,0,16,50-34,42-38;52-31;56-42;53-39;45-36;44-34,56-42,1.76,98,4,1926.93777228,1
GEMS164,2018_Oct_16_1141,Kramer,MP,1.2,1,,10,6,4,SimpleHill,0-0,0,17,56-42,65-40;60-50;48-36;54-43;50-44;57-38,54-43,2.01,98,0,1933.02974754,1
GEMS164,2018_Oct_16_1141,Kramer,MP,1.2,1,,10,6,4,SimpleHill,0-0,0,18,54-43,52-34;47-41;57-35;53-51;50-34;58-52,57-35,1.31,94,-4,1938.41067927,1
GEMS164,2018_Oct_16_1141,Kramer,MP,1.2,1,,10,6,4,SimpleHill,0-0,0,19,57-35,60-30;56-40;50-31;48-39;52-37;50-28,56-40,2.97,97,3,1945.43482646,1
GEMS164,2018_Oct_16_1141,Kramer,MP,1.2,1,,10,6,4,SimpleHill,0-0,0,20,56-40,53-45;59-43;47-44;55-46;50-39;52-45,55-46,3.21,99,2,1952.71889094,1
GEMS164,2018_Oct_16_1141,Kramer,MP,1.2,1,,10,6,4,SimpleHill,0-0,0,21,55-46,60-54;62-39;58-51;57-49;58-37;46-50,58-51,1.13,98,-1,1957.91116005,1
GEMS164,2018_Oct_16_1141,Kramer,MP,1.2,1,,10,6,4,SimpleHill,0-0,0,22,58-51,58-41;63-55;63-53;51-54;56-49;54-57,63-53,4.89,96,-2,1966.85244471,1
GEMS164,2018_Oct_16_1141,Kramer,MP,1.2,1,,10,6,4,SimpleHill,0-0,0,23,63-53,62-57;67-56;69-49;54-50;61-52;66-48,54-50,6.76,99,3,1977.68390251,1
GEMS164,2018_Oct_16_1141,Kramer,MP,1.2,1,,10,6,4,SimpleHill,0-0,0,24,54-50,58-54;55-55;57-41;46-51;58-57;54-56,58-54,2.09,98,-1,1983.84263193,1
GEMS164,2018_Oct_16_1141,Kramer,MP,1.2,1,,10,6,4,SimpleHill,0-0,0,25,58-54,56-61;51-56;61-55;65-53;65-57;50-49,61-55,4.38,97,-1,1992.29173807,1
GEMS164,2018_Oct_16_1141,Kramer,MP,1.2,1,,10,6,4,SimpleHill,0-0,0,26,61-55,61-55;56-52;61-51;61-54;59-59;66-63,61-54,1.03,97,0,1997.39018562,1
GEMS164,2018_Oct_16_1141,Kramer,MP,1.2,1,,10,6,4,SimpleHill,0-0,0,27,61-54,52-53;59-59;55-54;54-50;67-58;66-53,59-59,0.96,96,-1,2002.40963192,1
GEMS164,2018_Oct_16_1141,Kramer,MP,1.2,1,,10,6,4,SimpleHill,0-0,0,28,59-59,63-66;60-57;61-56;51-65;56-52;55-58,55-58,2.49,98,2,2008.96239513,1
GEMS164,2018_Oct_16_1141,Kramer,MP,1.2,1,,10,6,4,SimpleHill,0-0,0,29,55-58,58-61;52-64;57-61;47-53;51-64;50-55,57-61,0.55,96,-2,2013.57942665,1
GEMS164,2018_Oct_16_1141,Kramer,MP,1.2,1,,10,6,4,SimpleHill,0-0,0,30,57-61,63-65;55-70;61-66;54-67;56-63;49-61,54-67,0.92,93,-3,2018.5809871,1
GEMS164,2018_Oct_16_1141,Kramer,MP,1.2,1,,10,6,4,SimpleHill,0-0,0,31,54-67,55-61;52-58;58-64;54-62;60-62;49-70,58-64,0.91,94,1,2023.57861041,1
GEMS164,2018_Oct_16_1141,Kramer,MP,1.2,1,,10,6,4,SimpleHill,0-0,0,32,58-64,62-70;50-58;63-58;67-60;60-63;65-69,50-58,3.4,98,4,2031.04430986,1
GEMS164,2018_Oct_16_1141,Kramer,MP,1.2,1,,10,6,4,SimpleHill,0-0,0,33,50-58,45-58;42-55;56-61;43-52;52-49;56-57,56-61,1.06,96,-2,2036.16883669,1
GEMS164,2018_Oct_16_1141,Kramer,MP,1.2,1,,10,6,4,SimpleHill,0-0,0,34,56-61,58-70;56-67;60-56;53-64;54-64;63-62,53-64,2.82,95,-1,2043.06489122,1
GEMS164,2018_Oct_16_1141,Kramer,MP,1.2,1,,10,6,4,SimpleHill,0-0,0,35,53-64,53-54;46-59;53-66;54-67;55-63;45-64,54-67,2.77,93,-2,2049.89603276,1
GEMS164,2018_Oct_16_1141,Kramer,MP,1.2,1,,10,6,4,SimpleHill,0-0,0,36,54-67,53-69;61-65;46-64;53-59;59-64;56-63,56-63,2.59,95,2,2056.55584666,1
GEMS164,2018_Oct_16_1141,Kramer,MP,1.2,1,,10,6,4,SimpleHill,0-0,0,37,56-63,56-53;60-57;54-60;60-68;49-59;63-66,60-57,2.38,97,2,2063.00378862,1
GEMS164,2018_Oct_16_1141,Kramer,MP,1.2,1,,10,6,4,SimpleHill,0-0,0,38,60-57,60-51;66-56;56-56;56-52;66-62;55-59,56-56,0.81,98,1,2067.86857517,1
GEMS164,2018_Oct_16_1141,Kramer,MP,1.2,1,,10,6,4,SimpleHill,0-0,0,39,56-56,65-56;54-62;58-63;50-54;48-52;54-60,54-60,2.91,97,-1,2074.84334798,1
