subj_id,date,computer,experimenter,instructions,sight_radius,n_gabors,start_pos_list_ix,start_pos_list,landscape_ix,landscape_name,starting_pos,starting_score,trial,feedback,pos,stims,selected,rt,score,delta,exp_time
GEMS226,2018_Apr_19_0956,Kramer,MP,spatial_frequency,8,6,13,35-5;37-4;28-22;25-23,0,SpatialFrequencyBias,0-0,0,0,training,0-0,7-1;4-3;0-1;4-0;1-4;4-1,0-1,6.48,3,3,229.769937361
GEMS226,2018_Apr_19_0956,Kramer,MP,spatial_frequency,8,6,13,35-5;37-4;28-22;25-23,0,SpatialFrequencyBias,0-0,0,1,training,0-1,2-2;7-0;6-1;0-4;0-2;2-8,6-1,4.63,3,0,251.826299247
GEMS226,2018_Apr_19_0956,Kramer,MP,spatial_frequency,8,6,13,35-5;37-4;28-22;25-23,0,SpatialFrequencyBias,0-0,0,2,training,6-1,0-6;8-1;1-0;3-6;7-2;11-5,3-6,2.7,22,19,260.162951406
GEMS226,2018_Apr_19_0956,Kramer,MP,spatial_frequency,8,6,13,35-5;37-4;28-22;25-23,0,SpatialFrequencyBias,0-0,0,3,training,3-6,5-8;0-8;8-3;2-6;0-7;9-4,5-8,3.39,29,7,268.748722591
GEMS226,2018_Apr_19_0956,Kramer,MP,spatial_frequency,8,6,13,35-5;37-4;28-22;25-23,0,SpatialFrequencyBias,0-0,0,4,training,5-8,6-3;4-14;2-10;1-3;4-10;3-15,4-10,2.93,36,7,276.884466135
GEMS226,2018_Apr_19_0956,Kramer,MP,spatial_frequency,8,6,13,35-5;37-4;28-22;25-23,0,SpatialFrequencyBias,0-0,0,5,training,4-10,4-3;6-16;9-14;0-6;8-7;9-16,9-14,1.82,48,12,283.240238699
GEMS226,2018_Apr_19_0956,Kramer,MP,spatial_frequency,8,6,13,35-5;37-4;28-22;25-23,0,SpatialFrequencyBias,0-0,0,6,training,9-14,4-13;9-8;12-17;14-11;2-16;5-20,2-16,2.62,53,5,289.549094346
GEMS226,2018_Apr_19_0956,Kramer,MP,spatial_frequency,8,6,13,35-5;37-4;28-22;25-23,0,SpatialFrequencyBias,0-0,0,7,training,2-16,4-13;4-17;3-21;6-14;0-12;8-19,3-21,3.08,66,13,295.691828391
GEMS226,2018_Apr_19_0956,Kramer,MP,spatial_frequency,8,6,13,35-5;37-4;28-22;25-23,0,SpatialFrequencyBias,0-0,0,8,training,3-21,10-18;5-14;8-22;1-21;10-22;3-19,10-22,1.89,68,2,300.682760811
GEMS226,2018_Apr_19_0956,Kramer,MP,spatial_frequency,8,6,13,35-5;37-4;28-22;25-23,0,SpatialFrequencyBias,0-0,0,9,training,10-22,11-19;3-22;4-27;4-18;9-29;12-21,3-22,2.06,68,0,306.865315322
GEMS226,2018_Apr_19_0956,Kramer,MP,spatial_frequency,8,6,13,35-5;37-4;28-22;25-23,0,SpatialFrequencyBias,0-0,0,10,training,3-22,4-21;10-25;2-18;5-15;7-16;5-27,10-25,3.84,75,7,314.533181268
GEMS226,2018_Apr_19_0956,Kramer,MP,spatial_frequency,8,6,13,35-5;37-4;28-22;25-23,0,SpatialFrequencyBias,0-0,0,11,training,10-25,12-31;12-32;15-31;3-28;7-18;15-29,3-28,2.81,80,5,320.779227406
GEMS226,2018_Apr_19_0956,Kramer,MP,spatial_frequency,8,6,13,35-5;37-4;28-22;25-23,0,SpatialFrequencyBias,0-0,0,12,training,3-28,3-26;7-30;8-23;6-35;3-27;10-26,7-30,3.04,84,4,327.52893076
GEMS226,2018_Apr_19_0956,Kramer,MP,spatial_frequency,8,6,13,35-5;37-4;28-22;25-23,0,SpatialFrequencyBias,0-0,0,13,training,7-30,8-24;3-34;11-28;5-36;12-29;3-28,5-36,2.71,92,8,334.157908669
GEMS226,2018_Apr_19_0956,Kramer,MP,spatial_frequency,8,6,13,35-5;37-4;28-22;25-23,0,SpatialFrequencyBias,0-0,0,14,training,5-36,1-38;5-34;4-38;4-40;2-38;5-38,4-40,2.67,96,4,340.305998821
GEMS226,2018_Apr_19_0956,Kramer,MP,spatial_frequency,8,6,13,35-5;37-4;28-22;25-23,0,SpatialFrequencyBias,0-0,0,15,training,4-40,8-34;5-38;7-46;4-48;10-35;3-41,7-46,2.58,99,3,346.050808922
GEMS226,2018_Apr_19_0956,Kramer,MP,spatial_frequency,8,6,13,35-5;37-4;28-22;25-23,0,SpatialFrequencyBias,0-0,0,16,training,7-46,9-51;10-52;5-51;0-48;10-39;9-46,5-51,1.79,99,0,350.96252197
GEMS226,2018_Apr_19_0956,Kramer,MP,spatial_frequency,8,6,13,35-5;37-4;28-22;25-23,0,SpatialFrequencyBias,0-0,0,17,training,5-51,6-56;1-49;8-57;5-48;4-54;3-55,8-57,1.67,98,-1,357.059346109
GEMS226,2018_Apr_19_0956,Kramer,MP,spatial_frequency,8,6,13,35-5;37-4;28-22;25-23,0,SpatialFrequencyBias,0-0,0,18,training,8-57,0-57;4-56;8-65;8-63;4-60;9-58,8-63,2.41,93,-5,364.06405819
GEMS226,2018_Apr_19_0956,Kramer,MP,spatial_frequency,8,6,13,35-5;37-4;28-22;25-23,0,SpatialFrequencyBias,0-0,0,19,training,8-63,14-60;6-67;11-70;7-61;7-65;11-56,11-56,2.35,98,5,370.295204662
GEMS226,2018_Apr_19_0956,Kramer,MP,spatial_frequency,8,6,13,35-5;37-4;28-22;25-23,0,SpatialFrequencyBias,0-0,0,20,training,11-56,8-56;16-57;13-62;11-57;13-54;18-54,8-56,2.45,98,0,375.607825237
GEMS226,2018_Apr_19_0956,Kramer,MP,spatial_frequency,8,6,13,35-5;37-4;28-22;25-23,0,SpatialFrequencyBias,0-0,0,21,training,8-56,11-52;10-55;1-53;7-55;14-55;10-62,14-55,3.18,99,1,382.060835819
GEMS226,2018_Apr_19_0956,Kramer,MP,spatial_frequency,8,6,13,35-5;37-4;28-22;25-23,0,SpatialFrequencyBias,0-0,0,22,training,14-55,20-57;13-53;16-53;19-57;21-56;21-58,16-53,1.77,99,0,386.751151133
GEMS226,2018_Apr_19_0956,Kramer,MP,spatial_frequency,8,6,13,35-5;37-4;28-22;25-23,0,SpatialFrequencyBias,0-0,0,23,training,16-53,19-53;14-56;18-49;17-52;11-48;18-48,18-49,5.26,99,0,395.016601277
GEMS226,2018_Apr_19_0956,Kramer,MP,spatial_frequency,8,6,13,35-5;37-4;28-22;25-23,0,SpatialFrequencyBias,0-0,0,24,training,18-49,17-49;21-46;13-45;17-46;24-49;17-44,17-49,2.94,99,0,400.790675834
GEMS226,2018_Apr_19_0956,Kramer,MP,spatial_frequency,8,6,13,35-5;37-4;28-22;25-23,0,SpatialFrequencyBias,0-0,0,25,training,17-49,19-48;19-55;20-53;18-54;18-45;24-47,19-55,2.47,99,0,406.094029091
GEMS226,2018_Apr_19_0956,Kramer,MP,spatial_frequency,8,6,13,35-5;37-4;28-22;25-23,0,SpatialFrequencyBias,0-0,0,26,training,19-55,20-49;18-52;19-52;22-51;23-58;18-55,18-55,3.96,99,0,412.784714751
GEMS226,2018_Apr_19_0956,Kramer,MP,spatial_frequency,8,6,13,35-5;37-4;28-22;25-23,0,SpatialFrequencyBias,0-0,0,27,training,18-55,16-57;11-58;20-49;20-55;19-58;15-62,20-49,2.61,99,0,418.144229837
GEMS226,2018_Apr_19_0956,Kramer,MP,spatial_frequency,8,6,13,35-5;37-4;28-22;25-23,0,SpatialFrequencyBias,0-0,0,28,training,20-49,19-46;15-46;17-56;20-41;24-44;23-50,23-50,2.72,100,1,424.213887085
GEMS226,2018_Apr_19_0956,Kramer,MP,spatial_frequency,8,6,13,35-5;37-4;28-22;25-23,0,SpatialFrequencyBias,0-0,0,29,training,23-50,17-48;30-48;24-46;21-45;20-57;23-47,23-47,2.4,99,-1,430.174028207
GEMS226,2018_Apr_19_0956,Kramer,MP,spatial_frequency,8,6,13,35-5;37-4;28-22;25-23,1,SimpleHill,35-5,55,0,selected,35-5,30-3;34-10;36-10;29-10;38-8;41-8,36-10,4.51,64,9,461.712974981
GEMS226,2018_Apr_19_0956,Kramer,MP,spatial_frequency,8,6,13,35-5;37-4;28-22;25-23,1,SimpleHill,35-5,55,1,selected,36-10,40-6;33-17;40-4;38-7;35-10;35-9,33-17,1.71,72,8,466.981165758
GEMS226,2018_Apr_19_0956,Kramer,MP,spatial_frequency,8,6,13,35-5;37-4;28-22;25-23,1,SimpleHill,35-5,55,2,selected,33-17,36-21;29-13;28-17;30-16;32-23;40-19,32-23,3.65,78,6,474.190833703
GEMS226,2018_Apr_19_0956,Kramer,MP,spatial_frequency,8,6,13,35-5;37-4;28-22;25-23,1,SimpleHill,35-5,55,3,selected,32-23,31-16;32-28;28-25;29-21;27-17;35-30,35-30,3.12,87,9,480.84921659
GEMS226,2018_Apr_19_0956,Kramer,MP,spatial_frequency,8,6,13,35-5;37-4;28-22;25-23,1,SimpleHill,35-5,55,4,selected,35-30,41-26;31-33;38-30;38-29;36-34;38-24,36-34,4.09,90,3,488.528042183
GEMS226,2018_Apr_19_0956,Kramer,MP,spatial_frequency,8,6,13,35-5;37-4;28-22;25-23,1,SimpleHill,35-5,55,5,selected,36-34,32-38;31-30;41-36;38-28;39-28;35-36,41-36,7.26,94,4,499.353066182
GEMS226,2018_Apr_19_0956,Kramer,MP,spatial_frequency,8,6,13,35-5;37-4;28-22;25-23,1,SimpleHill,35-5,55,6,selected,41-36,42-42;38-33;44-43;41-36;38-38;46-36,38-33,1.91,91,-3,504.848514947
GEMS226,2018_Apr_19_0956,Kramer,MP,spatial_frequency,8,6,13,35-5;37-4;28-22;25-23,1,SimpleHill,35-5,55,7,selected,38-33,44-32;31-31;38-32;45-36;36-32;40-39,40-39,2.47,95,4,510.870071576
GEMS226,2018_Apr_19_0956,Kramer,MP,spatial_frequency,8,6,13,35-5;37-4;28-22;25-23,1,SimpleHill,35-5,55,8,selected,40-39,36-38;43-39;37-42;39-44;37-40;34-34,37-42,6.54,95,0,520.990677306
GEMS226,2018_Apr_19_0956,Kramer,MP,spatial_frequency,8,6,13,35-5;37-4;28-22;25-23,1,SimpleHill,35-5,55,9,selected,37-42,41-44;35-46;44-42;30-43;32-41;43-37,32-41,2.41,91,-4,526.954083052
GEMS226,2018_Apr_19_0956,Kramer,MP,spatial_frequency,8,6,13,35-5;37-4;28-22;25-23,1,SimpleHill,35-5,55,10,selected,32-41,34-44;34-37;34-40;28-41;28-45;34-35,28-45,4.11,89,-2,534.621041536
GEMS226,2018_Apr_19_0956,Kramer,MP,spatial_frequency,8,6,13,35-5;37-4;28-22;25-23,1,SimpleHill,35-5,55,11,selected,28-45,28-49;33-39;34-41;30-44;32-51;34-46,33-39,1.89,91,2,540.093047367
GEMS226,2018_Apr_19_0956,Kramer,MP,spatial_frequency,8,6,13,35-5;37-4;28-22;25-23,1,SimpleHill,35-5,55,12,selected,33-39,35-35;39-39;29-42;31-38;26-37;32-37,39-39,6.06,95,4,549.719247194
GEMS226,2018_Apr_19_0956,Kramer,MP,spatial_frequency,8,6,13,35-5;37-4;28-22;25-23,1,SimpleHill,35-5,55,13,selected,39-39,38-32;44-39;37-41;32-42;45-35;35-36,44-39,3.55,96,1,556.831177777
GEMS226,2018_Apr_19_0956,Kramer,MP,spatial_frequency,8,6,13,35-5;37-4;28-22;25-23,1,SimpleHill,35-5,55,14,selected,44-39,45-37;48-37;49-39;47-42;46-36;47-43,47-43,3.5,98,2,563.902602256
GEMS226,2018_Apr_19_0956,Kramer,MP,spatial_frequency,8,6,13,35-5;37-4;28-22;25-23,1,SimpleHill,35-5,55,15,selected,47-43,40-41;48-38;45-47;43-48;45-37;52-49,45-37,4.68,96,-2,572.167520087
GEMS226,2018_Apr_19_0956,Kramer,MP,spatial_frequency,8,6,13,35-5;37-4;28-22;25-23,1,SimpleHill,35-5,55,16,selected,45-37,52-39;45-45;50-31;49-41;40-35;44-31,52-39,5.19,97,1,580.946764137
GEMS226,2018_Apr_19_0956,Kramer,MP,spatial_frequency,8,6,13,35-5;37-4;28-22;25-23,1,SimpleHill,35-5,55,17,selected,52-39,48-35;50-44;55-41;51-45;49-32;57-34,51-45,5.7,99,2,590.229946125
GEMS226,2018_Apr_19_0956,Kramer,MP,spatial_frequency,8,6,13,35-5;37-4;28-22;25-23,1,SimpleHill,35-5,55,18,selected,51-45,49-50;54-47;48-43;50-39;46-48;50-49,54-47,3.77,99,0,597.580871209
GEMS226,2018_Apr_19_0956,Kramer,MP,spatial_frequency,8,6,13,35-5;37-4;28-22;25-23,1,SimpleHill,35-5,55,19,selected,54-47,55-40;46-47;52-53;55-43;49-51;49-44,49-51,4.33,99,0,605.489267459
GEMS226,2018_Apr_19_0956,Kramer,MP,spatial_frequency,8,6,13,35-5;37-4;28-22;25-23,1,SimpleHill,35-5,55,20,selected,49-51,49-46;55-47;46-53;52-52;51-50;55-50,46-53,3.01,99,0,612.063277485
GEMS226,2018_Apr_19_0956,Kramer,MP,spatial_frequency,8,6,13,35-5;37-4;28-22;25-23,1,SimpleHill,35-5,55,21,selected,46-53,53-51;50-59;47-54;39-54;43-46;47-49,39-54,4.08,97,-2,619.712066559
GEMS226,2018_Apr_19_0956,Kramer,MP,spatial_frequency,8,6,13,35-5;37-4;28-22;25-23,1,SimpleHill,35-5,55,22,selected,39-54,34-54;39-53;35-49;38-51;38-48;41-50,39-53,3.94,97,0,627.217139545
GEMS226,2018_Apr_19_0956,Kramer,MP,spatial_frequency,8,6,13,35-5;37-4;28-22;25-23,1,SimpleHill,35-5,55,23,selected,39-53,34-51;44-54;39-56;40-48;33-57;41-48,33-57,3.12,93,-4,633.905058006
GEMS226,2018_Apr_19_0956,Kramer,MP,spatial_frequency,8,6,13,35-5;37-4;28-22;25-23,1,SimpleHill,35-5,55,24,selected,33-57,37-55;39-54;39-52;29-52;33-65;29-56,39-54,2.23,97,4,639.690448792
GEMS226,2018_Apr_19_0956,Kramer,MP,spatial_frequency,8,6,13,35-5;37-4;28-22;25-23,1,SimpleHill,35-5,55,25,selected,39-54,36-52;43-52;33-52;44-48;38-59;39-49,36-52,3.91,96,-1,647.161341341
GEMS226,2018_Apr_19_0956,Kramer,MP,spatial_frequency,8,6,13,35-5;37-4;28-22;25-23,1,SimpleHill,35-5,55,26,selected,36-52,41-53;31-46;43-55;38-59;37-55;37-52,43-55,0.87,98,2,651.592627886
GEMS226,2018_Apr_19_0956,Kramer,MP,spatial_frequency,8,6,13,35-5;37-4;28-22;25-23,1,SimpleHill,35-5,55,27,selected,43-55,45-61;48-53;38-58;48-49;45-51;39-55,45-61,1.51,97,-1,656.679313735
GEMS226,2018_Apr_19_0956,Kramer,MP,spatial_frequency,8,6,13,35-5;37-4;28-22;25-23,1,SimpleHill,35-5,55,28,selected,45-61,46-63;39-57;41-64;41-66;45-54;41-65,41-65,1.56,93,-4,661.802376815
GEMS226,2018_Apr_19_0956,Kramer,MP,spatial_frequency,8,6,13,35-5;37-4;28-22;25-23,1,SimpleHill,35-5,55,29,selected,41-65,45-70;46-67;41-70;41-69;36-65;38-67,41-70,2.5,90,-3,667.86897686
GEMS226,2018_Apr_19_0956,Kramer,MP,spatial_frequency,8,6,13,35-5;37-4;28-22;25-23,1,SimpleHill,35-5,55,30,selected,41-70,38-68;49-70;39-65;46-69;45-68;36-66,49-70,3.26,91,1,674.702359754
GEMS226,2018_Apr_19_0956,Kramer,MP,spatial_frequency,8,6,13,35-5;37-4;28-22;25-23,1,SimpleHill,35-5,55,31,selected,49-70,54-69;48-65;51-65;55-69;51-64;52-66,51-65,3.14,95,4,681.403798282
GEMS226,2018_Apr_19_0956,Kramer,MP,spatial_frequency,8,6,13,35-5;37-4;28-22;25-23,1,SimpleHill,35-5,55,32,selected,51-65,46-62;46-66;48-62;48-66;45-63;55-64,45-63,1.28,96,1,686.264866936
GEMS226,2018_Apr_19_0956,Kramer,MP,spatial_frequency,8,6,13,35-5;37-4;28-22;25-23,1,SimpleHill,35-5,55,33,selected,45-63,46-70;46-69;51-59;44-69;49-66;38-66,51-59,1.55,98,2,691.39195582
GEMS226,2018_Apr_19_0956,Kramer,MP,spatial_frequency,8,6,13,35-5;37-4;28-22;25-23,1,SimpleHill,35-5,55,34,selected,51-59,57-56;45-59;53-52;51-65;54-63;52-58,53-52,0.73,99,1,695.687658546
GEMS226,2018_Apr_19_0956,Kramer,MP,spatial_frequency,8,6,13,35-5;37-4;28-22;25-23,1,SimpleHill,35-5,55,35,selected,53-52,55-59;47-53;49-55;59-50;54-56;58-46,59-50,1.5,98,-1,700.749488572
GEMS226,2018_Apr_19_0956,Kramer,MP,spatial_frequency,8,6,13,35-5;37-4;28-22;25-23,1,SimpleHill,35-5,55,36,selected,59-50,64-52;57-43;54-45;55-53;63-56;53-54,57-43,1.16,98,0,705.48667567
GEMS226,2018_Apr_19_0956,Kramer,MP,spatial_frequency,8,6,13,35-5;37-4;28-22;25-23,1,SimpleHill,35-5,55,37,selected,57-43,58-41;54-50;65-43;57-50;56-49;56-42,54-50,1.26,99,1,710.312783502
GEMS226,2018_Apr_19_0956,Kramer,MP,spatial_frequency,8,6,13,35-5;37-4;28-22;25-23,1,SimpleHill,35-5,55,38,selected,54-50,49-45;48-51;53-46;49-47;49-44;51-43,53-46,1.53,99,0,715.420378112
GEMS226,2018_Apr_19_0956,Kramer,MP,spatial_frequency,8,6,13,35-5;37-4;28-22;25-23,1,SimpleHill,35-5,55,39,selected,53-46,58-43;51-45;53-40;54-51;49-46;52-53,58-43,1.34,97,-2,720.333111616
GEMS226,2018_Apr_19_0956,Kramer,MP,spatial_frequency,8,6,13,35-5;37-4;28-22;25-23,2,SimpleHill,37-4,54,0,selected,37-4,33-5;32-4;31-5;36-7;34-6;38-11,38-11,3.31,66,12,737.392740686
GEMS226,2018_Apr_19_0956,Kramer,MP,spatial_frequency,8,6,13,35-5;37-4;28-22;25-23,2,SimpleHill,37-4,54,1,selected,38-11,44-6;42-9;43-16;44-9;44-12;38-6,43-16,1.46,75,9,742.4188119
GEMS226,2018_Apr_19_0956,Kramer,MP,spatial_frequency,8,6,13,35-5;37-4;28-22;25-23,2,SimpleHill,37-4,54,2,selected,43-16,48-18;44-14;41-22;45-21;50-14;47-10,45-21,2.28,82,7,748.278209992
GEMS226,2018_Apr_19_0956,Kramer,MP,spatial_frequency,8,6,13,35-5;37-4;28-22;25-23,2,SimpleHill,37-4,54,3,selected,45-21,50-15;51-21;44-23;51-17;47-28;46-20,47-28,2.0,90,8,753.850966535
GEMS226,2018_Apr_19_0956,Kramer,MP,spatial_frequency,8,6,13,35-5;37-4;28-22;25-23,2,SimpleHill,37-4,54,4,selected,47-28,46-32;44-25;45-29;53-29;46-25;50-33,53-29,2.7,91,1,760.140691854
GEMS226,2018_Apr_19_0956,Kramer,MP,spatial_frequency,8,6,13,35-5;37-4;28-22;25-23,2,SimpleHill,37-4,54,5,selected,53-29,59-25;50-29;60-32;48-29;49-30;49-23,50-29,2.48,91,0,766.211287294
GEMS226,2018_Apr_19_0956,Kramer,MP,spatial_frequency,8,6,13,35-5;37-4;28-22;25-23,2,SimpleHill,37-4,54,6,selected,50-29,52-35;43-32;44-30;47-29;51-27;52-33,51-27,3.64,89,-2,773.418691545
GEMS226,2018_Apr_19_0956,Kramer,MP,spatial_frequency,8,6,13,35-5;37-4;28-22;25-23,2,SimpleHill,37-4,54,7,selected,51-27,54-25;54-29;47-25;49-32;53-32;54-24,54-29,2.62,90,1,779.624397386
GEMS226,2018_Apr_19_0956,Kramer,MP,spatial_frequency,8,6,13,35-5;37-4;28-22;25-23,2,SimpleHill,37-4,54,8,selected,54-29,54-27;49-25;52-30;53-32;60-30;60-28,49-25,2.29,87,-3,785.494563389
GEMS226,2018_Apr_19_0956,Kramer,MP,spatial_frequency,8,6,13,35-5;37-4;28-22;25-23,2,SimpleHill,37-4,54,9,selected,49-25,51-19;56-28;45-20;44-20;46-24;53-23,46-24,3.42,86,-1,792.495621935
GEMS226,2018_Apr_19_0956,Kramer,MP,spatial_frequency,8,6,13,35-5;37-4;28-22;25-23,2,SimpleHill,37-4,54,10,selected,46-24,46-20;53-23;46-17;44-27;44-25;45-22,46-17,3.07,77,-9,799.143046775
GEMS226,2018_Apr_19_0956,Kramer,MP,spatial_frequency,8,6,13,35-5;37-4;28-22;25-23,2,SimpleHill,37-4,54,11,selected,46-17,49-17;41-21;47-10;46-10;40-13;44-18,41-21,1.87,81,4,804.599830287
GEMS226,2018_Apr_19_0956,Kramer,MP,spatial_frequency,8,6,13,35-5;37-4;28-22;25-23,2,SimpleHill,37-4,54,12,selected,41-21,44-19;40-22;46-26;33-21;43-20;39-24,46-26,4.35,88,7,812.529407378
GEMS226,2018_Apr_19_0956,Kramer,MP,spatial_frequency,8,6,13,35-5;37-4;28-22;25-23,2,SimpleHill,37-4,54,13,selected,46-26,41-24;48-22;52-23;43-23;45-28;40-23,45-28,1.68,89,1,817.780403425
GEMS226,2018_Apr_19_0956,Kramer,MP,spatial_frequency,8,6,13,35-5;37-4;28-22;25-23,2,SimpleHill,37-4,54,14,selected,45-28,41-26;39-26;41-24;50-28;38-29;48-21,38-29,1.71,88,-1,823.070861116
GEMS226,2018_Apr_19_0956,Kramer,MP,spatial_frequency,8,6,13,35-5;37-4;28-22;25-23,2,SimpleHill,37-4,54,15,selected,38-29,39-23;38-25;45-32;39-34;41-32;39-27,39-27,2.92,87,-1,829.56897081
GEMS226,2018_Apr_19_0956,Kramer,MP,spatial_frequency,8,6,13,35-5;37-4;28-22;25-23,2,SimpleHill,37-4,54,16,selected,39-27,43-21;45-29;41-25;43-33;38-26;39-26,43-33,1.7,93,6,834.851074727
GEMS226,2018_Apr_19_0956,Kramer,MP,spatial_frequency,8,6,13,35-5;37-4;28-22;25-23,2,SimpleHill,37-4,54,17,selected,43-33,38-37;45-29;43-40;39-31;42-33;38-35,42-33,2.28,92,-1,840.711000971
GEMS226,2018_Apr_19_0956,Kramer,MP,spatial_frequency,8,6,13,35-5;37-4;28-22;25-23,2,SimpleHill,37-4,54,18,selected,42-33,39-32;49-32;45-34;45-30;37-38;37-36,49-32,0.56,93,1,844.852106385
GEMS226,2018_Apr_19_0956,Kramer,MP,spatial_frequency,8,6,13,35-5;37-4;28-22;25-23,2,SimpleHill,37-4,54,19,selected,49-32,43-33;43-35;55-28;47-27;52-33;50-34,43-33,0.43,93,0,848.862154728
GEMS226,2018_Apr_19_0956,Kramer,MP,spatial_frequency,8,6,13,35-5;37-4;28-22;25-23,2,SimpleHill,37-4,54,20,selected,43-33,44-37;40-34;45-35;41-34;44-36;48-38,48-38,1.11,97,4,853.547174752
GEMS226,2018_Apr_19_0956,Kramer,MP,spatial_frequency,8,6,13,35-5;37-4;28-22;25-23,2,SimpleHill,37-4,54,21,selected,48-38,43-44;42-41;43-39;50-39;44-40;51-38,44-40,0.5,97,0,857.620545393
GEMS226,2018_Apr_19_0956,Kramer,MP,spatial_frequency,8,6,13,35-5;37-4;28-22;25-23,2,SimpleHill,37-4,54,22,selected,44-40,38-44;39-34;43-46;48-46;47-42;41-40,48-46,0.57,99,2,861.779126897
GEMS226,2018_Apr_19_0956,Kramer,MP,spatial_frequency,8,6,13,35-5;37-4;28-22;25-23,2,SimpleHill,37-4,54,23,selected,48-46,52-42;55-46;49-49;44-51;41-49;55-45,49-49,0.32,99,0,865.674014283
GEMS226,2018_Apr_19_0956,Kramer,MP,spatial_frequency,8,6,13,35-5;37-4;28-22;25-23,2,SimpleHill,37-4,54,24,selected,49-49,52-48;49-41;54-50;53-50;48-47;49-46,49-41,0.29,98,-1,869.534597677
GEMS226,2018_Apr_19_0956,Kramer,MP,spatial_frequency,8,6,13,35-5;37-4;28-22;25-23,2,SimpleHill,37-4,54,25,selected,49-41,52-36;50-37;53-39;46-39;42-39;44-45,44-45,1.25,98,0,874.341644322
GEMS226,2018_Apr_19_0956,Kramer,MP,spatial_frequency,8,6,13,35-5;37-4;28-22;25-23,2,SimpleHill,37-4,54,26,selected,44-45,45-47;48-42;45-42;39-46;44-44;50-50,50-50,1.64,100,2,879.560727148
GEMS226,2018_Apr_19_0956,Kramer,MP,spatial_frequency,8,6,13,35-5;37-4;28-22;25-23,2,SimpleHill,37-4,54,27,selected,50-50,51-52;53-49;47-56;52-44;57-49;46-45,47-56,2.76,99,-1,885.857499303
GEMS226,2018_Apr_19_0956,Kramer,MP,spatial_frequency,8,6,13,35-5;37-4;28-22;25-23,2,SimpleHill,37-4,54,28,selected,47-56,47-52;52-53;44-56;50-57;45-59;42-61,45-59,2.03,97,-2,891.451421003
GEMS226,2018_Apr_19_0956,Kramer,MP,spatial_frequency,8,6,13,35-5;37-4;28-22;25-23,2,SimpleHill,37-4,54,29,selected,45-59,48-53;43-64;41-55;52-61;48-64;39-62,48-53,2.46,99,2,897.497554013
GEMS226,2018_Apr_19_0956,Kramer,MP,spatial_frequency,8,6,13,35-5;37-4;28-22;25-23,2,SimpleHill,37-4,54,30,selected,48-53,50-53;45-55;53-56;42-51;54-50;41-50,42-51,1.92,98,-1,902.974346187
GEMS226,2018_Apr_19_0956,Kramer,MP,spatial_frequency,8,6,13,35-5;37-4;28-22;25-23,2,SimpleHill,37-4,54,31,selected,42-51,48-51;40-52;36-53;44-54;37-49;43-48,48-51,1.39,99,1,907.951594973
GEMS226,2018_Apr_19_0956,Kramer,MP,spatial_frequency,8,6,13,35-5;37-4;28-22;25-23,2,SimpleHill,37-4,54,32,selected,48-51,51-53;51-49;50-51;49-53;54-56;47-56,50-51,1.49,99,0,913.010580337
GEMS226,2018_Apr_19_0956,Kramer,MP,spatial_frequency,8,6,13,35-5;37-4;28-22;25-23,2,SimpleHill,37-4,54,33,selected,50-51,54-45;44-56;50-59;45-50;43-52;49-50,54-45,2.27,99,0,918.849619906
GEMS226,2018_Apr_19_0956,Kramer,MP,spatial_frequency,8,6,13,35-5;37-4;28-22;25-23,2,SimpleHill,37-4,54,34,selected,54-45,50-43;51-44;55-46;51-48;51-41;54-43,51-41,1.78,98,-1,924.202521561
GEMS226,2018_Apr_19_0956,Kramer,MP,spatial_frequency,8,6,13,35-5;37-4;28-22;25-23,2,SimpleHill,37-4,54,35,selected,51-41,53-47;51-44;48-41;51-41;50-40;56-36,48-41,1.54,98,0,929.278752868
GEMS226,2018_Apr_19_0956,Kramer,MP,spatial_frequency,8,6,13,35-5;37-4;28-22;25-23,2,SimpleHill,37-4,54,36,selected,48-41,51-35;53-44;44-42;49-43;46-48;41-39,51-35,1.99,95,-3,934.827143651
GEMS226,2018_Apr_19_0956,Kramer,MP,spatial_frequency,8,6,13,35-5;37-4;28-22;25-23,2,SimpleHill,37-4,54,37,selected,51-35,49-37;52-29;48-35;49-36;50-41;47-33,49-36,1.17,96,1,939.558227225
GEMS226,2018_Apr_19_0956,Kramer,MP,spatial_frequency,8,6,13,35-5;37-4;28-22;25-23,2,SimpleHill,37-4,54,38,selected,49-36,50-29;49-32;44-31;51-31;52-30;52-36,44-31,0.9,92,-4,944.008116265
GEMS226,2018_Apr_19_0956,Kramer,MP,spatial_frequency,8,6,13,35-5;37-4;28-22;25-23,2,SimpleHill,37-4,54,39,selected,44-31,40-28;44-23;42-36;39-35;40-36;39-26,44-23,1.75,84,-8,949.336366316
GEMS226,2018_Apr_19_0956,Kramer,MP,spatial_frequency,8,6,13,35-5;37-4;28-22;25-23,3,SimpleHill,28-22,74,0,selected,28-22,21-25;31-28;24-16;24-26;29-26;26-15,31-28,2.33,83,9,960.993784764
GEMS226,2018_Apr_19_0956,Kramer,MP,spatial_frequency,8,6,13,35-5;37-4;28-22;25-23,3,SimpleHill,28-22,74,1,selected,31-28,27-34;27-24;29-21;29-29;30-33;34-34,29-29,3.45,82,-1,968.003520377
GEMS226,2018_Apr_19_0956,Kramer,MP,spatial_frequency,8,6,13,35-5;37-4;28-22;25-23,3,SimpleHill,28-22,74,2,selected,29-29,27-30;32-22;26-34;27-28;32-29;32-27,32-27,2.26,82,0,973.842698226
GEMS226,2018_Apr_19_0956,Kramer,MP,spatial_frequency,8,6,13,35-5;37-4;28-22;25-23,3,SimpleHill,28-22,74,3,selected,32-27,32-29;31-23;36-21;35-32;32-23;35-21,36-21,3.99,79,-3,981.411948797
GEMS226,2018_Apr_19_0956,Kramer,MP,spatial_frequency,8,6,13,35-5;37-4;28-22;25-23,3,SimpleHill,28-22,74,4,selected,36-21,29-22;32-21;33-15;37-28;37-19;36-19,37-28,1.7,86,7,986.684380479
GEMS226,2018_Apr_19_0956,Kramer,MP,spatial_frequency,8,6,13,35-5;37-4;28-22;25-23,3,SimpleHill,28-22,74,5,selected,37-28,33-33;34-25;30-26;33-29;36-25;33-22,33-22,2.59,78,-8,992.833074005
GEMS226,2018_Apr_19_0956,Kramer,MP,spatial_frequency,8,6,13,35-5;37-4;28-22;25-23,3,SimpleHill,28-22,74,6,selected,33-22,35-25;32-24;39-26;35-21;39-19;33-17,32-24,2.11,80,2,998.502759357
GEMS226,2018_Apr_19_0956,Kramer,MP,spatial_frequency,8,6,13,35-5;37-4;28-22;25-23,3,SimpleHill,28-22,74,7,selected,32-24,33-27;35-29;37-23;34-27;32-31;35-22,33-27,3.56,83,3,1005.64491916
GEMS226,2018_Apr_19_0956,Kramer,MP,spatial_frequency,8,6,13,35-5;37-4;28-22;25-23,3,SimpleHill,28-22,74,8,selected,33-27,34-24;34-23;27-27;29-27;39-31;30-24,27-27,1.47,78,-5,1010.69352328
GEMS226,2018_Apr_19_0956,Kramer,MP,spatial_frequency,8,6,13,35-5;37-4;28-22;25-23,3,SimpleHill,28-22,74,9,selected,27-27,24-33;30-21;29-26;26-32;27-35;22-23,24-33,1.8,80,2,1016.06572331
GEMS226,2018_Apr_19_0956,Kramer,MP,spatial_frequency,8,6,13,35-5;37-4;28-22;25-23,3,SimpleHill,28-22,74,10,selected,24-33,19-30;26-33;29-39;18-32;18-38;26-34,29-39,1.68,88,8,1021.33449057
GEMS226,2018_Apr_19_0956,Kramer,MP,spatial_frequency,8,6,13,35-5;37-4;28-22;25-23,3,SimpleHill,28-22,74,11,selected,29-39,32-35;23-43;31-33;30-35;24-38;29-43,29-43,2.36,90,2,1027.27332986
GEMS226,2018_Apr_19_0956,Kramer,MP,spatial_frequency,8,6,13,35-5;37-4;28-22;25-23,3,SimpleHill,28-22,74,12,selected,29-43,23-39;27-46;30-42;26-38;24-47;25-43,24-47,2.16,86,-4,1032.99580039
GEMS226,2018_Apr_19_0956,Kramer,MP,spatial_frequency,8,6,13,35-5;37-4;28-22;25-23,3,SimpleHill,28-22,74,13,selected,24-47,28-43;19-41;20-43;28-50;27-50;30-51,30-51,3.6,91,5,1040.16032825
GEMS226,2018_Apr_19_0956,Kramer,MP,spatial_frequency,8,6,13,35-5;37-4;28-22;25-23,3,SimpleHill,28-22,74,14,selected,30-51,33-53;34-45;26-46;27-54;36-50;36-46,27-54,3.1,89,-2,1046.83654829
GEMS226,2018_Apr_19_0956,Kramer,MP,spatial_frequency,8,6,13,35-5;37-4;28-22;25-23,3,SimpleHill,28-22,74,15,selected,27-54,26-49;30-59;23-49;33-56;28-56;30-48,30-59,1.99,90,1,1052.40361103
GEMS226,2018_Apr_19_0956,Kramer,MP,spatial_frequency,8,6,13,35-5;37-4;28-22;25-23,3,SimpleHill,28-22,74,16,selected,30-59,29-55;33-53;31-59;35-54;27-56;33-62,33-62,4.03,91,1,1060.00394098
GEMS226,2018_Apr_19_0956,Kramer,MP,spatial_frequency,8,6,13,35-5;37-4;28-22;25-23,3,SimpleHill,28-22,74,17,selected,33-62,36-69;25-62;39-62;29-64;34-60;30-60,25-62,2.61,84,-7,1066.19591901
GEMS226,2018_Apr_19_0956,Kramer,MP,spatial_frequency,8,6,13,35-5;37-4;28-22;25-23,3,SimpleHill,28-22,74,18,selected,25-62,26-66;21-59;31-61;28-57;18-65;20-66,21-59,2.09,81,-3,1071.86802747
GEMS226,2018_Apr_19_0956,Kramer,MP,spatial_frequency,8,6,13,35-5;37-4;28-22;25-23,3,SimpleHill,28-22,74,19,selected,21-59,15-61;15-54;21-55;22-52;16-64;23-61,23-61,4.21,83,2,1079.65507345
GEMS226,2018_Apr_19_0956,Kramer,MP,spatial_frequency,8,6,13,35-5;37-4;28-22;25-23,3,SimpleHill,28-22,74,20,selected,23-61,24-57;25-66;29-57;24-66;26-63;19-57,25-66,1.42,82,-1,1084.63755479
GEMS226,2018_Apr_19_0956,Kramer,MP,spatial_frequency,8,6,13,35-5;37-4;28-22;25-23,3,SimpleHill,28-22,74,21,selected,25-66,29-64;23-62;26-60;23-59;25-60;20-66,20-66,2.03,76,-6,1090.2502848
GEMS226,2018_Apr_19_0956,Kramer,MP,spatial_frequency,8,6,13,35-5;37-4;28-22;25-23,3,SimpleHill,28-22,74,22,selected,20-66,19-62;23-66;17-69;13-69;22-68;16-60,13-69,1.92,65,-11,1095.72568393
GEMS226,2018_Apr_19_0956,Kramer,MP,spatial_frequency,8,6,13,35-5;37-4;28-22;25-23,3,SimpleHill,28-22,74,23,selected,13-69,11-63;14-70;10-63;20-70;12-65;12-69,11-63,1.22,66,1,1100.50291268
GEMS226,2018_Apr_19_0956,Kramer,MP,spatial_frequency,8,6,13,35-5;37-4;28-22;25-23,3,SimpleHill,28-22,74,24,selected,11-63,18-66;12-58;6-68;14-63;8-62;9-61,12-58,1.28,69,3,1105.35518327
GEMS226,2018_Apr_19_0956,Kramer,MP,spatial_frequency,8,6,13,35-5;37-4;28-22;25-23,3,SimpleHill,28-22,74,25,selected,12-58,15-63;6-60;11-60;13-63;9-52;7-56,15-63,2.78,72,3,1111.69798857
GEMS226,2018_Apr_19_0956,Kramer,MP,spatial_frequency,8,6,13,35-5;37-4;28-22;25-23,3,SimpleHill,28-22,74,26,selected,15-63,17-67;17-69;12-61;12-67;14-68;14-66,12-61,2.56,68,-4,1117.83435277
GEMS226,2018_Apr_19_0956,Kramer,MP,spatial_frequency,8,6,13,35-5;37-4;28-22;25-23,3,SimpleHill,28-22,74,27,selected,12-61,13-68;16-63;6-59;9-62;18-62;14-63,13-68,1.43,66,-2,1122.83792885
GEMS226,2018_Apr_19_0956,Kramer,MP,spatial_frequency,8,6,13,35-5;37-4;28-22;25-23,3,SimpleHill,28-22,74,28,selected,13-68,15-65;16-64;12-62;10-69;20-70;8-68,8-68,2.31,58,-8,1128.67944241
GEMS226,2018_Apr_19_0956,Kramer,MP,spatial_frequency,8,6,13,35-5;37-4;28-22;25-23,3,SimpleHill,28-22,74,29,selected,8-68,10-63;3-63;8-68;7-67;6-67;14-68,8-68,2.02,58,0,1134.29269514
GEMS226,2018_Apr_19_0956,Kramer,MP,spatial_frequency,8,6,13,35-5;37-4;28-22;25-23,3,SimpleHill,28-22,74,30,selected,8-68,6-63;11-69;14-70;15-70;3-65;6-61,14-70,0.96,66,8,1138.83024759
GEMS226,2018_Apr_19_0956,Kramer,MP,spatial_frequency,8,6,13,35-5;37-4;28-22;25-23,3,SimpleHill,28-22,74,31,selected,14-70,7-68;14-65;20-68;13-67;19-69;18-70,18-70,1.11,71,5,1143.5011845
GEMS226,2018_Apr_19_0956,Kramer,MP,spatial_frequency,8,6,13,35-5;37-4;28-22;25-23,3,SimpleHill,28-22,74,32,selected,18-70,10-70;16-68;21-63;14-67;13-64;24-69,24-69,1.3,79,8,1148.35973339
GEMS226,2018_Apr_19_0956,Kramer,MP,spatial_frequency,8,6,13,35-5;37-4;28-22;25-23,3,SimpleHill,28-22,74,33,selected,24-69,27-69;18-70;22-69;24-70;23-63;19-63,24-70,2.42,78,-1,1154.35126886
GEMS226,2018_Apr_19_0956,Kramer,MP,spatial_frequency,8,6,13,35-5;37-4;28-22;25-23,3,SimpleHill,28-22,74,34,selected,24-70,18-67;30-69;27-63;28-70;30-70;28-64,28-64,1.6,86,8,1159.52409672
GEMS226,2018_Apr_19_0956,Kramer,MP,spatial_frequency,8,6,13,35-5;37-4;28-22;25-23,3,SimpleHill,28-22,74,35,selected,28-64,25-70;31-60;29-59;32-67;24-58;26-65,26-65,1.61,83,-3,1164.71981024
GEMS226,2018_Apr_19_0956,Kramer,MP,spatial_frequency,8,6,13,35-5;37-4;28-22;25-23,3,SimpleHill,28-22,74,36,selected,26-65,25-63;20-68;21-63;21-62;22-68;27-68,22-68,1.72,77,-6,1169.99075285
GEMS226,2018_Apr_19_0956,Kramer,MP,spatial_frequency,8,6,13,35-5;37-4;28-22;25-23,3,SimpleHill,28-22,74,37,selected,22-68,24-64;17-67;23-67;21-64;21-69;27-70,17-67,1.19,72,-5,1174.73814545
GEMS226,2018_Apr_19_0956,Kramer,MP,spatial_frequency,8,6,13,35-5;37-4;28-22;25-23,3,SimpleHill,28-22,74,38,selected,17-67,16-63;20-70;13-65;17-59;18-63;17-60,20-70,3.89,74,2,1182.17395363
GEMS226,2018_Apr_19_0956,Kramer,MP,spatial_frequency,8,6,13,35-5;37-4;28-22;25-23,3,SimpleHill,28-22,74,39,selected,20-70,27-69;21-69;16-69;23-67;13-67;24-69,21-69,1.51,75,1,1187.24352029
GEMS226,2018_Apr_19_0956,Kramer,MP,spatial_frequency,8,6,13,35-5;37-4;28-22;25-23,4,SimpleHill,25-23,72,0,selected,25-23,19-22;31-26;30-26;22-17;32-20;19-18,31-26,2.78,81,9,1199.08267125
GEMS226,2018_Apr_19_0956,Kramer,MP,spatial_frequency,8,6,13,35-5;37-4;28-22;25-23,4,SimpleHill,25-23,72,1,selected,31-26,33-21;25-25;27-26;31-32;29-33;28-25,29-33,2.74,85,4,1205.37466186
GEMS226,2018_Apr_19_0956,Kramer,MP,spatial_frequency,8,6,13,35-5;37-4;28-22;25-23,4,SimpleHill,25-23,72,2,selected,29-33,36-35;22-30;34-37;28-39;27-34;32-38,32-38,3.54,90,5,1212.45205479
GEMS226,2018_Apr_19_0956,Kramer,MP,spatial_frequency,8,6,13,35-5;37-4;28-22;25-23,4,SimpleHill,25-23,72,3,selected,32-38,33-36;32-35;27-43;33-31;32-37;33-34,27-43,1.27,88,-2,1217.28279148
GEMS226,2018_Apr_19_0956,Kramer,MP,spatial_frequency,8,6,13,35-5;37-4;28-22;25-23,4,SimpleHill,25-23,72,4,selected,27-43,32-49;28-50;24-39;28-46;21-44;22-48,24-39,4.08,84,-4,1224.94057995
GEMS226,2018_Apr_19_0956,Kramer,MP,spatial_frequency,8,6,13,35-5;37-4;28-22;25-23,4,SimpleHill,25-23,72,5,selected,24-39,18-35;24-35;28-33;27-44;20-42;24-43,24-43,4.07,85,1,1232.59021055
GEMS226,2018_Apr_19_0956,Kramer,MP,spatial_frequency,8,6,13,35-5;37-4;28-22;25-23,4,SimpleHill,25-23,72,6,selected,24-43,29-38;29-43;30-39;18-40;27-49;25-42,29-43,2.11,90,5,1238.28004764
GEMS226,2018_Apr_19_0956,Kramer,MP,spatial_frequency,8,6,13,35-5;37-4;28-22;25-23,4,SimpleHill,25-23,72,7,selected,29-43,29-50;24-39;31-41;31-43;22-41;34-37,29-50,2.6,91,1,1244.43730364
GEMS226,2018_Apr_19_0956,Kramer,MP,spatial_frequency,8,6,13,35-5;37-4;28-22;25-23,4,SimpleHill,25-23,72,8,selected,29-50,26-52;32-56;32-54;26-44;23-54;29-58,23-54,2.05,85,-6,1250.05921583
GEMS226,2018_Apr_19_0956,Kramer,MP,spatial_frequency,8,6,13,35-5;37-4;28-22;25-23,4,SimpleHill,25-23,72,9,selected,23-54,25-48;25-52;30-51;19-54;23-49;26-57,25-52,1.61,87,2,1255.23416622
GEMS226,2018_Apr_19_0956,Kramer,MP,spatial_frequency,8,6,13,35-5;37-4;28-22;25-23,4,SimpleHill,25-23,72,10,selected,25-52,25-45;28-48;21-53;26-54;31-56;27-55,27-55,2.64,88,1,1261.44866437
GEMS226,2018_Apr_19_0956,Kramer,MP,spatial_frequency,8,6,13,35-5;37-4;28-22;25-23,4,SimpleHill,25-23,72,11,selected,27-55,30-54;26-59;28-61;22-60;26-61;31-57,26-59,1.43,86,-2,1266.44734238
GEMS226,2018_Apr_19_0956,Kramer,MP,spatial_frequency,8,6,13,35-5;37-4;28-22;25-23,4,SimpleHill,25-23,72,12,selected,26-59,25-54;22-61;19-60;30-56;29-65;29-58,29-58,2.3,89,3,1272.32414422
GEMS226,2018_Apr_19_0956,Kramer,MP,spatial_frequency,8,6,13,35-5;37-4;28-22;25-23,4,SimpleHill,25-23,72,13,selected,29-58,23-63;24-60;33-55;25-62;25-60;36-58,24-60,1.46,84,-5,1277.3659944
GEMS226,2018_Apr_19_0956,Kramer,MP,spatial_frequency,8,6,13,35-5;37-4;28-22;25-23,4,SimpleHill,25-23,72,14,selected,24-60,24-53;20-65;25-67;27-60;25-54;20-64,25-67,1.57,81,-3,1282.50711069
GEMS226,2018_Apr_19_0956,Kramer,MP,spatial_frequency,8,6,13,35-5;37-4;28-22;25-23,4,SimpleHill,25-23,72,15,selected,25-67,24-70;21-61;18-66;30-67;19-70;24-65,24-70,1.43,78,-3,1287.5083072
GEMS226,2018_Apr_19_0956,Kramer,MP,spatial_frequency,8,6,13,35-5;37-4;28-22;25-23,4,SimpleHill,25-23,72,16,selected,24-70,25-68;27-70;23-67;19-70;22-63;19-65,22-63,1.55,80,2,1292.63534647
GEMS226,2018_Apr_19_0956,Kramer,MP,spatial_frequency,8,6,13,35-5;37-4;28-22;25-23,4,SimpleHill,25-23,72,17,selected,22-63,27-63;19-62;21-67;18-69;17-60;19-60,19-60,1.69,78,-2,1297.9020677
GEMS226,2018_Apr_19_0956,Kramer,MP,spatial_frequency,8,6,13,35-5;37-4;28-22;25-23,4,SimpleHill,25-23,72,18,selected,19-60,16-66;20-65;23-63;24-62;15-54;19-57,20-65,2.64,77,-1,1304.12002732
GEMS226,2018_Apr_19_0956,Kramer,MP,spatial_frequency,8,6,13,35-5;37-4;28-22;25-23,4,SimpleHill,25-23,72,19,selected,20-65,19-58;26-65;22-66;19-63;25-65;20-59,20-59,1.92,80,3,1309.60946859
GEMS226,2018_Apr_19_0956,Kramer,MP,spatial_frequency,8,6,13,35-5;37-4;28-22;25-23,4,SimpleHill,25-23,72,20,selected,20-59,23-66;24-54;23-56;17-64;19-59;21-59,19-59,3.78,79,-1,1316.95018048
GEMS226,2018_Apr_19_0956,Kramer,MP,spatial_frequency,8,6,13,35-5;37-4;28-22;25-23,4,SimpleHill,25-23,72,21,selected,19-59,20-53;13-60;19-58;16-64;22-66;15-60,19-58,2.54,79,0,1323.06446631
GEMS226,2018_Apr_19_0956,Kramer,MP,spatial_frequency,8,6,13,35-5;37-4;28-22;25-23,4,SimpleHill,25-23,72,22,selected,19-58,14-62;17-53;22-63;20-59;14-58;17-65,22-63,1.7,80,1,1328.33033193
GEMS226,2018_Apr_19_0956,Kramer,MP,spatial_frequency,8,6,13,35-5;37-4;28-22;25-23,4,SimpleHill,25-23,72,23,selected,22-63,19-59;28-61;25-59;17-63;26-59;25-58,25-59,1.47,85,5,1333.38424159
GEMS226,2018_Apr_19_0956,Kramer,MP,spatial_frequency,8,6,13,35-5;37-4;28-22;25-23,4,SimpleHill,25-23,72,24,selected,25-59,29-55;31-55;25-66;24-58;24-64;30-60,25-66,2.15,82,-3,1339.09396091
GEMS226,2018_Apr_19_0956,Kramer,MP,spatial_frequency,8,6,13,35-5;37-4;28-22;25-23,4,SimpleHill,25-23,72,25,selected,25-66,19-61;30-63;21-66;22-60;19-63;25-69,21-66,1.86,78,-4,1344.51663409
GEMS226,2018_Apr_19_0956,Kramer,MP,spatial_frequency,8,6,13,35-5;37-4;28-22;25-23,4,SimpleHill,25-23,72,26,selected,21-66,19-69;27-70;16-65;14-66;29-66;18-61,18-61,1.53,77,-1,1349.62428439
GEMS226,2018_Apr_19_0956,Kramer,MP,spatial_frequency,8,6,13,35-5;37-4;28-22;25-23,4,SimpleHill,25-23,72,27,selected,18-61,22-58;23-65;20-57;16-68;16-56;23-60,23-65,0.73,80,3,1353.93113082
GEMS226,2018_Apr_19_0956,Kramer,MP,spatial_frequency,8,6,13,35-5;37-4;28-22;25-23,4,SimpleHill,25-23,72,28,selected,23-65,17-61;16-68;17-65;18-60;20-68;21-65,16-68,0.82,70,-10,1358.31630804
GEMS226,2018_Apr_19_0956,Kramer,MP,spatial_frequency,8,6,13,35-5;37-4;28-22;25-23,4,SimpleHill,25-23,72,29,selected,16-68,22-69;13-65;14-70;10-67;15-69;19-66,19-66,1.29,75,5,1363.16959173
GEMS226,2018_Apr_19_0956,Kramer,MP,spatial_frequency,8,6,13,35-5;37-4;28-22;25-23,4,SimpleHill,25-23,72,30,selected,19-66,16-59;23-62;20-68;21-69;18-66;16-64,20-68,1.54,75,0,1368.292086
GEMS226,2018_Apr_19_0956,Kramer,MP,spatial_frequency,8,6,13,35-5;37-4;28-22;25-23,4,SimpleHill,25-23,72,31,selected,20-68,17-67;20-67;20-68;14-70;16-68;14-66,20-67,1.24,76,1,1373.10687152
GEMS226,2018_Apr_19_0956,Kramer,MP,spatial_frequency,8,6,13,35-5;37-4;28-22;25-23,4,SimpleHill,25-23,72,32,selected,20-67,21-60;21-64;22-66;23-60;23-70;20-61,20-61,1.65,79,3,1378.32710412
GEMS226,2018_Apr_19_0956,Kramer,MP,spatial_frequency,8,6,13,35-5;37-4;28-22;25-23,4,SimpleHill,25-23,72,33,selected,20-61,19-63;25-60;24-64;25-56;15-63;17-59,24-64,0.92,82,3,1382.81188612
GEMS226,2018_Apr_19_0956,Kramer,MP,spatial_frequency,8,6,13,35-5;37-4;28-22;25-23,4,SimpleHill,25-23,72,34,selected,24-64,23-67;19-58;23-61;18-60;25-60;24-65,24-65,1.25,81,-1,1387.63158794
GEMS226,2018_Apr_19_0956,Kramer,MP,spatial_frequency,8,6,13,35-5;37-4;28-22;25-23,4,SimpleHill,25-23,72,35,selected,24-65,17-68;21-68;21-64;23-62;25-62;25-64,21-68,0.98,76,-5,1392.17887185
GEMS226,2018_Apr_19_0956,Kramer,MP,spatial_frequency,8,6,13,35-5;37-4;28-22;25-23,4,SimpleHill,25-23,72,36,selected,21-68,15-65;23-68;24-63;20-66;14-70;25-66,25-66,1.67,82,6,1397.42701555
GEMS226,2018_Apr_19_0956,Kramer,MP,spatial_frequency,8,6,13,35-5;37-4;28-22;25-23,4,SimpleHill,25-23,72,37,selected,25-66,25-62;27-66;29-62;26-66;26-61;30-63,26-66,2.75,83,1,1403.72861662
GEMS226,2018_Apr_19_0956,Kramer,MP,spatial_frequency,8,6,13,35-5;37-4;28-22;25-23,4,SimpleHill,25-23,72,38,selected,26-66,24-69;28-60;27-60;19-64;23-67;26-59,24-69,1.33,79,-4,1408.61971955
GEMS226,2018_Apr_19_0956,Kramer,MP,spatial_frequency,8,6,13,35-5;37-4;28-22;25-23,4,SimpleHill,25-23,72,39,selected,24-69,20-65;23-64;28-63;28-65;23-68;18-68,23-64,1.89,81,2,1414.08811314
