subj_id,date,computer,experimenter,instructions,sight_radius,n_gabors,start_pos_list_ix,start_pos_list,landscape_ix,landscape_name,starting_pos,starting_score,trial,feedback,pos,stims,selected,rt,score,delta,exp_time
GEMS236,2018_Apr_23_1532,Jerry,EG,orientation,8,6,18,40-9;47-6;39-15;47-29,0,OrientationBias,0-0,0,0,training,0-0,5-0;0-1;3-6;4-0;1-1;5-4,5-0,2.63,19,19,259.4197231
GEMS236,2018_Apr_23_1532,Jerry,EG,orientation,8,6,18,40-9;47-6;39-15;47-29,0,OrientationBias,0-0,0,1,training,5-0,1-1;6-4;8-2;9-4;4-2;11-2,11-2,3.2,39,20,266.051391556
GEMS236,2018_Apr_23_1532,Jerry,EG,orientation,8,6,18,40-9;47-6;39-15;47-29,0,OrientationBias,0-0,0,2,training,11-2,6-7;8-7;10-7;12-1;12-0;18-1,12-1,4.04,42,3,274.737995636
GEMS236,2018_Apr_23_1532,Jerry,EG,orientation,8,6,18,40-9;47-6;39-15;47-29,0,OrientationBias,0-0,0,3,training,12-1,14-2;13-3;12-5;17-4;11-6;11-2,14-2,2.37,48,6,282.856687365
GEMS236,2018_Apr_23_1532,Jerry,EG,orientation,8,6,18,40-9;47-6;39-15;47-29,0,OrientationBias,0-0,0,4,training,14-2,18-6;9-3;16-8;19-8;20-0;9-4,20-0,5.22,64,16,295.240016863
GEMS236,2018_Apr_23_1532,Jerry,EG,orientation,8,6,18,40-9;47-6;39-15;47-29,0,OrientationBias,0-0,0,5,training,20-0,28-0;15-4;24-4;24-5;22-0;25-2,28-0,4.48,80,16,303.625907423
GEMS236,2018_Apr_23_1532,Jerry,EG,orientation,8,6,18,40-9;47-6;39-15;47-29,0,OrientationBias,0-0,0,6,training,28-0,21-3;34-5;27-2;31-2;32-1;33-4,33-4,4.4,88,8,312.02425664
GEMS236,2018_Apr_23_1532,Jerry,EG,orientation,8,6,18,40-9;47-6;39-15;47-29,0,OrientationBias,0-0,0,7,training,33-4,39-7;33-6;34-1;29-9;34-2;32-4,39-7,6.99,95,7,326.95889719
GEMS236,2018_Apr_23_1532,Jerry,EG,orientation,8,6,18,40-9;47-6;39-15;47-29,0,OrientationBias,0-0,0,8,training,39-7,40-3;46-7;37-5;33-9;40-2;38-2,46-7,5.92,99,4,336.435349716
GEMS236,2018_Apr_23_1532,Jerry,EG,orientation,8,6,18,40-9;47-6;39-15;47-29,0,OrientationBias,0-0,0,9,training,46-7,42-9;53-9;46-5;51-6;45-4;52-11,53-9,5.25,99,0,344.981544083
GEMS236,2018_Apr_23_1532,Jerry,EG,orientation,8,6,18,40-9;47-6;39-15;47-29,0,OrientationBias,0-0,0,10,training,53-9,46-6;52-9;53-15;55-7;50-13;45-9,52-9,4.45,99,0,353.908563541
GEMS236,2018_Apr_23_1532,Jerry,EG,orientation,8,6,18,40-9;47-6;39-15;47-29,0,OrientationBias,0-0,0,11,training,52-9,52-9;52-7;52-8;54-16;57-12;49-6,57-12,12.87,98,-1,373.549734595
GEMS236,2018_Apr_23_1532,Jerry,EG,orientation,8,6,18,40-9;47-6;39-15;47-29,0,OrientationBias,0-0,0,12,training,57-12,51-12;56-17;63-9;57-9;55-7;50-10,57-9,6.14,98,0,386.291973062
GEMS236,2018_Apr_23_1532,Jerry,EG,orientation,8,6,18,40-9;47-6;39-15;47-29,0,OrientationBias,0-0,0,13,training,57-9,60-9;52-5;53-11;53-7;64-6;50-7,50-7,9.73,100,2,400.674542339
GEMS236,2018_Apr_23_1532,Jerry,EG,orientation,8,6,18,40-9;47-6;39-15;47-29,0,OrientationBias,0-0,0,14,training,50-7,54-2;44-6;57-4;47-4;50-12;52-11,52-11,7.72,99,-1,411.558464809
GEMS236,2018_Apr_23_1532,Jerry,EG,orientation,8,6,18,40-9;47-6;39-15;47-29,0,OrientationBias,0-0,0,15,training,52-11,47-13;60-11;47-5;49-16;47-9;59-14,47-13,4.12,99,0,421.147452717
GEMS236,2018_Apr_23_1532,Jerry,EG,orientation,8,6,18,40-9;47-6;39-15;47-29,0,OrientationBias,0-0,0,16,training,47-13,45-18;51-10;50-13;45-19;47-8;43-8,45-18,5.37,99,0,431.049711708
GEMS236,2018_Apr_23_1532,Jerry,EG,orientation,8,6,18,40-9;47-6;39-15;47-29,0,OrientationBias,0-0,0,17,training,45-18,42-25;49-20;43-15;41-14;47-16;46-17,47-16,12.41,99,0,447.201196635
GEMS236,2018_Apr_23_1532,Jerry,EG,orientation,8,6,18,40-9;47-6;39-15;47-29,0,OrientationBias,0-0,0,18,training,47-16,47-9;42-16;44-11;52-20;51-20;44-18,52-20,7.09,99,0,457.778481306
GEMS236,2018_Apr_23_1532,Jerry,EG,orientation,8,6,18,40-9;47-6;39-15;47-29,0,OrientationBias,0-0,0,19,training,52-20,48-20;51-22;53-17;51-25;51-15;52-16,51-15,6.32,99,0,468.185015619
GEMS236,2018_Apr_23_1532,Jerry,EG,orientation,8,6,18,40-9;47-6;39-15;47-29,0,OrientationBias,0-0,0,20,training,51-15,44-12;56-14;48-12;52-8;47-12;57-15,47-12,6.35,99,0,477.626562333
GEMS236,2018_Apr_23_1532,Jerry,EG,orientation,8,6,18,40-9;47-6;39-15;47-29,0,OrientationBias,0-0,0,21,training,47-12,51-10;41-17;49-12;40-11;40-12;50-8,40-12,7.43,96,-3,487.594318095
GEMS236,2018_Apr_23_1532,Jerry,EG,orientation,8,6,18,40-9;47-6;39-15;47-29,0,OrientationBias,0-0,0,22,training,40-12,45-10;34-9;39-19;33-15;35-8;44-16,39-19,10.31,95,-1,503.838315633
GEMS236,2018_Apr_23_1532,Jerry,EG,orientation,8,6,18,40-9;47-6;39-15;47-29,0,OrientationBias,0-0,0,23,training,39-19,41-23;41-15;41-12;41-16;32-16;43-14,41-23,8.08,96,1,515.85019204
GEMS236,2018_Apr_23_1532,Jerry,EG,orientation,8,6,18,40-9;47-6;39-15;47-29,0,OrientationBias,0-0,0,24,training,41-23,42-21;39-19;45-26;40-22;36-26;45-20,45-20,9.55,99,3,529.613221181
GEMS236,2018_Apr_23_1532,Jerry,EG,orientation,8,6,18,40-9;47-6;39-15;47-29,0,OrientationBias,0-0,0,25,training,45-20,51-24;41-15;42-13;40-18;43-18;39-24,51-24,7.14,99,0,539.555200821
GEMS236,2018_Apr_23_1532,Jerry,EG,orientation,8,6,18,40-9;47-6;39-15;47-29,0,OrientationBias,0-0,0,26,training,51-24,47-23;51-17;58-24;49-22;51-29;54-19,47-23,4.44,99,0,546.964549711
GEMS236,2018_Apr_23_1532,Jerry,EG,orientation,8,6,18,40-9;47-6;39-15;47-29,0,OrientationBias,0-0,0,27,training,47-23,41-19;49-23;53-21;44-25;48-24;47-17,41-19,8.99,96,-3,559.476110666
GEMS236,2018_Apr_23_1532,Jerry,EG,orientation,8,6,18,40-9;47-6;39-15;47-29,0,OrientationBias,0-0,0,28,training,41-19,46-23;37-20;45-16;47-18;35-24;42-20,45-16,5.5,99,3,569.046209892
GEMS236,2018_Apr_23_1532,Jerry,EG,orientation,8,6,18,40-9;47-6;39-15;47-29,0,OrientationBias,0-0,0,29,training,45-16,43-21;42-9;40-10;49-12;46-15;39-16,40-10,4.85,96,-3,576.785533913
GEMS236,2018_Apr_23_1532,Jerry,EG,orientation,8,6,18,40-9;47-6;39-15;47-29,1,SimpleHill,40-9,64,0,selected,40-9,37-15;48-9;42-8;38-16;42-13;40-13,42-8,5.62,63,-1,610.536528842
GEMS236,2018_Apr_23_1532,Jerry,EG,orientation,8,6,18,40-9;47-6;39-15;47-29,1,SimpleHill,40-9,64,1,selected,42-8,41-12;39-13;48-6;37-7;36-5;45-6,41-12,4.04,69,6,618.109830277
GEMS236,2018_Apr_23_1532,Jerry,EG,orientation,8,6,18,40-9;47-6;39-15;47-29,1,SimpleHill,40-9,64,2,selected,41-12,44-19;40-11;41-6;46-16;38-18;35-9,46-16,5.91,76,7,627.574980002
GEMS236,2018_Apr_23_1532,Jerry,EG,orientation,8,6,18,40-9;47-6;39-15;47-29,1,SimpleHill,40-9,64,3,selected,46-16,49-17;41-12;40-13;45-15;40-14;41-16,41-12,3.66,69,-7,634.787067158
GEMS236,2018_Apr_23_1532,Jerry,EG,orientation,8,6,18,40-9;47-6;39-15;47-29,1,SimpleHill,40-9,64,4,selected,41-12,42-7;38-19;36-6;43-12;44-18;42-14,44-18,3.88,78,9,642.217549221
GEMS236,2018_Apr_23_1532,Jerry,EG,orientation,8,6,18,40-9;47-6;39-15;47-29,1,SimpleHill,40-9,64,5,selected,44-18,45-22;50-23;41-17;50-19;44-11;52-18,41-17,3.0,76,-2,648.750304808
GEMS236,2018_Apr_23_1532,Jerry,EG,orientation,8,6,18,40-9;47-6;39-15;47-29,1,SimpleHill,40-9,64,6,selected,41-17,38-15;45-22;37-19;35-13;44-21;46-20,38-15,4.49,72,-4,656.810201553
GEMS236,2018_Apr_23_1532,Jerry,EG,orientation,8,6,18,40-9;47-6;39-15;47-29,1,SimpleHill,40-9,64,7,selected,38-15,32-19;38-8;38-11;38-22;43-17;36-9,32-19,4.83,74,2,665.18694962
GEMS236,2018_Apr_23_1532,Jerry,EG,orientation,8,6,18,40-9;47-6;39-15;47-29,1,SimpleHill,40-9,64,8,selected,32-19,27-20;27-16;34-26;32-26;38-16;28-15,32-26,6.61,82,8,675.335660622
GEMS236,2018_Apr_23_1532,Jerry,EG,orientation,8,6,18,40-9;47-6;39-15;47-29,1,SimpleHill,40-9,64,9,selected,32-26,26-24;29-29;38-24;36-29;38-21;37-20,38-21,3.46,80,-2,682.344622263
GEMS236,2018_Apr_23_1532,Jerry,EG,orientation,8,6,18,40-9;47-6;39-15;47-29,1,SimpleHill,40-9,64,10,selected,38-21,38-28;38-20;40-16;31-23;41-18;36-27,36-27,2.38,85,5,688.273309405
GEMS236,2018_Apr_23_1532,Jerry,EG,orientation,8,6,18,40-9;47-6;39-15;47-29,1,SimpleHill,40-9,64,11,selected,36-27,30-31;31-28;29-24;37-22;29-30;40-33,40-33,3.19,92,7,695.007807386
GEMS236,2018_Apr_23_1532,Jerry,EG,orientation,8,6,18,40-9;47-6;39-15;47-29,1,SimpleHill,40-9,64,12,selected,40-33,39-40;39-32;46-35;37-27;38-27;40-33,46-35,2.42,95,3,700.979753804
GEMS236,2018_Apr_23_1532,Jerry,EG,orientation,8,6,18,40-9;47-6;39-15;47-29,1,SimpleHill,40-9,64,13,selected,46-35,44-37;42-29;53-38;46-31;40-38;41-33,44-37,2.32,95,0,706.829102079
GEMS236,2018_Apr_23_1532,Jerry,EG,orientation,8,6,18,40-9;47-6;39-15;47-29,1,SimpleHill,40-9,64,14,selected,44-37,48-41;51-34;50-33;47-30;50-37;39-38,50-37,1.79,96,1,712.174744798
GEMS236,2018_Apr_23_1532,Jerry,EG,orientation,8,6,18,40-9;47-6;39-15;47-29,1,SimpleHill,40-9,64,15,selected,50-37,49-33;49-32;54-41;55-39;49-37;48-40,49-32,5.12,93,-3,720.841629875
GEMS236,2018_Apr_23_1532,Jerry,EG,orientation,8,6,18,40-9;47-6;39-15;47-29,1,SimpleHill,40-9,64,16,selected,49-32,52-27;45-26;50-31;51-31;43-32;48-26,43-32,2.03,92,-1,726.432438791
GEMS236,2018_Apr_23_1532,Jerry,EG,orientation,8,6,18,40-9;47-6;39-15;47-29,1,SimpleHill,40-9,64,17,selected,43-32,44-25;38-36;43-27;36-32;43-39;39-35,43-39,3.58,96,4,733.563056862
GEMS236,2018_Apr_23_1532,Jerry,EG,orientation,8,6,18,40-9;47-6;39-15;47-29,1,SimpleHill,40-9,64,18,selected,43-39,37-35;41-39;39-35;36-38;43-37;41-41,41-39,3.04,95,-1,740.157809963
GEMS236,2018_Apr_23_1532,Jerry,EG,orientation,8,6,18,40-9;47-6;39-15;47-29,1,SimpleHill,40-9,64,19,selected,41-39,40-44;45-36;36-45;34-40;37-45;39-36,34-40,3.0,92,-3,746.712233919
GEMS236,2018_Apr_23_1532,Jerry,EG,orientation,8,6,18,40-9;47-6;39-15;47-29,1,SimpleHill,40-9,64,20,selected,34-40,31-35;32-47;34-47;33-34;36-46;33-37,32-47,2.43,93,1,752.702926577
GEMS236,2018_Apr_23_1532,Jerry,EG,orientation,8,6,18,40-9;47-6;39-15;47-29,1,SimpleHill,40-9,64,21,selected,32-47,36-44;31-45;34-51;32-39;27-47;34-45,34-45,2.15,94,1,758.410656469
GEMS236,2018_Apr_23_1532,Jerry,EG,orientation,8,6,18,40-9;47-6;39-15;47-29,1,SimpleHill,40-9,64,22,selected,34-45,35-43;38-48;33-49;37-38;36-41;28-45,36-41,3.11,94,0,765.063919992
GEMS236,2018_Apr_23_1532,Jerry,EG,orientation,8,6,18,40-9;47-6;39-15;47-29,1,SimpleHill,40-9,64,23,selected,36-41,42-46;34-43;32-36;33-44;40-36;32-38,34-43,2.66,93,-1,771.282549527
GEMS236,2018_Apr_23_1532,Jerry,EG,orientation,8,6,18,40-9;47-6;39-15;47-29,1,SimpleHill,40-9,64,24,selected,34-43,34-39;35-50;32-39;31-47;30-46;36-41,36-41,2.32,94,1,777.146733148
GEMS236,2018_Apr_23_1532,Jerry,EG,orientation,8,6,18,40-9;47-6;39-15;47-29,1,SimpleHill,40-9,64,25,selected,36-41,42-37;29-39;36-35;34-45;33-38;31-42,42-37,2.41,95,1,783.122027417
GEMS236,2018_Apr_23_1532,Jerry,EG,orientation,8,6,18,40-9;47-6;39-15;47-29,1,SimpleHill,40-9,64,26,selected,42-37,49-35;47-36;41-35;42-35;36-40;50-37,42-35,4.06,94,-1,790.742553119
GEMS236,2018_Apr_23_1532,Jerry,EG,orientation,8,6,18,40-9;47-6;39-15;47-29,1,SimpleHill,40-9,64,27,selected,42-35,46-34;43-29;43-36;39-35;47-32;36-37,47-32,7.07,93,-1,801.375693681
GEMS236,2018_Apr_23_1532,Jerry,EG,orientation,8,6,18,40-9;47-6;39-15;47-29,1,SimpleHill,40-9,64,28,selected,47-32,46-30;48-25;45-31;41-37;42-31;46-38,46-38,1.9,96,3,806.845979617
GEMS236,2018_Apr_23_1532,Jerry,EG,orientation,8,6,18,40-9;47-6;39-15;47-29,1,SimpleHill,40-9,64,29,selected,46-38,51-32;43-39;50-36;49-38;49-43;52-42,49-38,3.92,97,1,814.315066485
GEMS236,2018_Apr_23_1532,Jerry,EG,orientation,8,6,18,40-9;47-6;39-15;47-29,1,SimpleHill,40-9,64,30,selected,49-38,46-45;46-39;51-39;56-39;51-36;49-44,46-45,3.03,99,2,820.899051341
GEMS236,2018_Apr_23_1532,Jerry,EG,orientation,8,6,18,40-9;47-6;39-15;47-29,1,SimpleHill,40-9,64,31,selected,46-45,48-50;41-40;43-41;45-42;43-51;45-51,45-42,3.29,98,-1,827.748996909
GEMS236,2018_Apr_23_1532,Jerry,EG,orientation,8,6,18,40-9;47-6;39-15;47-29,1,SimpleHill,40-9,64,32,selected,45-42,53-42;50-48;39-45;40-43;43-42;41-38,41-38,3.23,95,-3,834.53428179
GEMS236,2018_Apr_23_1532,Jerry,EG,orientation,8,6,18,40-9;47-6;39-15;47-29,1,SimpleHill,40-9,64,33,selected,41-38,45-38;41-37;33-38;36-39;36-43;43-37,36-39,2.71,93,-2,840.793683799
GEMS236,2018_Apr_23_1532,Jerry,EG,orientation,8,6,18,40-9;47-6;39-15;47-29,1,SimpleHill,40-9,64,34,selected,36-39,35-33;32-37;42-42;40-33;40-40;33-35,35-33,1.76,89,-4,846.107044509
GEMS236,2018_Apr_23_1532,Jerry,EG,orientation,8,6,18,40-9;47-6;39-15;47-29,1,SimpleHill,40-9,64,35,selected,35-33,36-35;30-31;41-36;42-36;36-30;30-35,30-31,2.47,84,-5,852.116349929
GEMS236,2018_Apr_23_1532,Jerry,EG,orientation,8,6,18,40-9;47-6;39-15;47-29,1,SimpleHill,40-9,64,36,selected,30-31,24-30;34-26;35-26;33-34;25-36;26-33,24-30,3.19,78,-6,858.871892418
GEMS236,2018_Apr_23_1532,Jerry,EG,orientation,8,6,18,40-9;47-6;39-15;47-29,1,SimpleHill,40-9,64,37,selected,24-30,18-31;19-25;20-29;23-29;24-26;22-30,24-26,3.45,74,-4,865.883797953
GEMS236,2018_Apr_23_1532,Jerry,EG,orientation,8,6,18,40-9;47-6;39-15;47-29,1,SimpleHill,40-9,64,38,selected,24-26,30-31;17-28;27-27;26-20;23-28;19-21,30-31,2.49,84,10,871.915605265
GEMS236,2018_Apr_23_1532,Jerry,EG,orientation,8,6,18,40-9;47-6;39-15;47-29,1,SimpleHill,40-9,64,39,selected,30-31,25-37;33-37;34-27;35-35;27-24;26-27,35-35,3.34,91,7,878.813199863
GEMS236,2018_Apr_23_1532,Jerry,EG,orientation,8,6,18,40-9;47-6;39-15;47-29,2,SimpleHill,47-6,61,0,selected,47-6,44-9;48-9;52-9;54-7;43-5;44-3,43-5,2.49,58,-3,908.460003271
GEMS236,2018_Apr_23_1532,Jerry,EG,orientation,8,6,18,40-9;47-6;39-15;47-29,2,SimpleHill,47-6,61,1,selected,43-5,49-2;48-2;48-4;44-5;43-4;45-12,48-2,2.45,53,-5,914.451623239
GEMS236,2018_Apr_23_1532,Jerry,EG,orientation,8,6,18,40-9;47-6;39-15;47-29,2,SimpleHill,47-6,61,2,selected,48-2,48-3;54-1;55-1;44-6;46-3;50-5,44-6,1.45,60,7,919.45641631
GEMS236,2018_Apr_23_1532,Jerry,EG,orientation,8,6,18,40-9;47-6;39-15;47-29,2,SimpleHill,47-6,61,3,selected,44-6,39-6;41-12;47-10;43-2;39-7;47-5,39-7,2.64,60,0,925.661083393
GEMS236,2018_Apr_23_1532,Jerry,EG,orientation,8,6,18,40-9;47-6;39-15;47-29,2,SimpleHill,47-6,61,4,selected,39-7,34-6;43-7;36-12;41-3;38-2;43-9,43-7,1.93,62,2,931.160042931
GEMS236,2018_Apr_23_1532,Jerry,EG,orientation,8,6,18,40-9;47-6;39-15;47-29,2,SimpleHill,47-6,61,5,selected,43-7,42-5;47-13;40-5;41-9;37-7;38-4,37-7,4.56,59,-3,939.280291272
GEMS236,2018_Apr_23_1532,Jerry,EG,orientation,8,6,18,40-9;47-6;39-15;47-29,2,SimpleHill,47-6,61,6,selected,37-7,35-8;34-2;43-3;42-9;40-11;31-8,34-2,3.04,48,-11,945.872547328
GEMS236,2018_Apr_23_1532,Jerry,EG,orientation,8,6,18,40-9;47-6;39-15;47-29,2,SimpleHill,47-6,61,7,selected,34-2,30-6;32-4;29-6;38-5;31-5;38-7,38-7,3.09,60,12,952.519395869
GEMS236,2018_Apr_23_1532,Jerry,EG,orientation,8,6,18,40-9;47-6;39-15;47-29,2,SimpleHill,47-6,61,8,selected,38-7,36-0;39-4;38-9;38-15;33-9;31-6,38-15,6.96,72,12,963.046801104
GEMS236,2018_Apr_23_1532,Jerry,EG,orientation,8,6,18,40-9;47-6;39-15;47-29,2,SimpleHill,47-6,61,9,selected,38-15,35-15;36-10;36-11;33-17;41-18;32-18,36-11,5.23,65,-7,971.842288626
GEMS236,2018_Apr_23_1532,Jerry,EG,orientation,8,6,18,40-9;47-6;39-15;47-29,2,SimpleHill,47-6,61,10,selected,36-11,39-11;33-8;42-9;37-7;31-17;38-15,39-11,2.65,67,2,978.048417573
GEMS236,2018_Apr_23_1532,Jerry,EG,orientation,8,6,18,40-9;47-6;39-15;47-29,2,SimpleHill,47-6,61,11,selected,39-11,40-13;41-5;34-17;40-15;46-13;38-18,41-5,3.73,57,-10,985.322908761
GEMS236,2018_Apr_23_1532,Jerry,EG,orientation,8,6,18,40-9;47-6;39-15;47-29,2,SimpleHill,47-6,61,12,selected,41-5,37-9;39-3;44-12;46-2;43-10;36-7,36-7,2.45,59,2,991.319189922
GEMS236,2018_Apr_23_1532,Jerry,EG,orientation,8,6,18,40-9;47-6;39-15;47-29,2,SimpleHill,47-6,61,13,selected,36-7,41-5;34-5;41-1;34-3;39-0;40-12,39-0,1.61,47,-12,996.485897827
GEMS236,2018_Apr_23_1532,Jerry,EG,orientation,8,6,18,40-9;47-6;39-15;47-29,2,SimpleHill,47-6,61,14,selected,39-0,41-6;39-7;31-0;41-3;43-2;32-2,41-6,2.56,59,12,1002.60154643
GEMS236,2018_Apr_23_1532,Jerry,EG,orientation,8,6,18,40-9;47-6;39-15;47-29,2,SimpleHill,47-6,61,15,selected,41-6,42-7;39-5;42-13;43-11;36-1;35-8,36-1,2.92,48,-11,1009.06565233
GEMS236,2018_Apr_23_1532,Jerry,EG,orientation,8,6,18,40-9;47-6;39-15;47-29,2,SimpleHill,47-6,61,16,selected,36-1,43-2;29-2;35-7;36-9;31-5;37-3,43-2,5.11,52,4,1017.7390401
GEMS236,2018_Apr_23_1532,Jerry,EG,orientation,8,6,18,40-9;47-6;39-15;47-29,2,SimpleHill,47-6,61,17,selected,43-2,45-4;49-2;46-8;39-1;38-8;45-7,45-4,2.56,57,5,1023.85829039
GEMS236,2018_Apr_23_1532,Jerry,EG,orientation,8,6,18,40-9;47-6;39-15;47-29,2,SimpleHill,47-6,61,18,selected,45-4,51-5;51-6;45-5;52-4;40-7;44-7,52-4,4.17,57,0,1031.58401783
GEMS236,2018_Apr_23_1532,Jerry,EG,orientation,8,6,18,40-9;47-6;39-15;47-29,2,SimpleHill,47-6,61,19,selected,52-4,49-0;54-6;46-1;53-10;47-2;54-7,53-10,3.55,67,10,1038.69396398
GEMS236,2018_Apr_23_1532,Jerry,EG,orientation,8,6,18,40-9;47-6;39-15;47-29,2,SimpleHill,47-6,61,20,selected,53-10,49-10;53-11;53-13;53-2;48-6;46-13,53-11,3.82,69,2,1046.05379545
GEMS236,2018_Apr_23_1532,Jerry,EG,orientation,8,6,18,40-9;47-6;39-15;47-29,2,SimpleHill,47-6,61,21,selected,53-11,56-14;47-15;49-7;58-14;46-8;55-10,46-8,4.18,64,-5,1053.7803228
GEMS236,2018_Apr_23_1532,Jerry,EG,orientation,8,6,18,40-9;47-6;39-15;47-29,2,SimpleHill,47-6,61,22,selected,46-8,40-6;48-5;45-10;44-7;43-7;38-8,43-7,3.89,62,-2,1061.23058693
GEMS236,2018_Apr_23_1532,Jerry,EG,orientation,8,6,18,40-9;47-6;39-15;47-29,2,SimpleHill,47-6,61,23,selected,43-7,42-1;49-11;45-14;46-14;43-3;45-9,42-1,3.68,50,-12,1068.46724537
GEMS236,2018_Apr_23_1532,Jerry,EG,orientation,8,6,18,40-9;47-6;39-15;47-29,2,SimpleHill,47-6,61,24,selected,42-1,49-4;47-0;45-8;38-3;47-1;36-6,45-8,6.59,64,14,1078.5864166
GEMS236,2018_Apr_23_1532,Jerry,EG,orientation,8,6,18,40-9;47-6;39-15;47-29,2,SimpleHill,47-6,61,25,selected,45-8,49-13;47-15;45-12;39-9;53-8;45-2,47-15,7.09,75,11,1089.23987346
GEMS236,2018_Apr_23_1532,Jerry,EG,orientation,8,6,18,40-9;47-6;39-15;47-29,2,SimpleHill,47-6,61,26,selected,47-15,54-17;53-13;46-12;50-21;53-11;44-16,50-21,2.21,83,8,1095.03314498
GEMS236,2018_Apr_23_1532,Jerry,EG,orientation,8,6,18,40-9;47-6;39-15;47-29,2,SimpleHill,47-6,61,27,selected,50-21,49-26;47-19;48-26;47-28;48-14;43-20,48-26,5.98,88,5,1104.57956469
GEMS236,2018_Apr_23_1532,Jerry,EG,orientation,8,6,18,40-9;47-6;39-15;47-29,2,SimpleHill,47-6,61,28,selected,48-26,42-30;50-26;51-25;44-26;50-25;55-29,42-30,4.31,90,2,1112.45292954
GEMS236,2018_Apr_23_1532,Jerry,EG,orientation,8,6,18,40-9;47-6;39-15;47-29,2,SimpleHill,47-6,61,29,selected,42-30,44-23;45-25;36-30;44-25;41-26;42-30,44-23,4.15,84,-6,1120.16833302
GEMS236,2018_Apr_23_1532,Jerry,EG,orientation,8,6,18,40-9;47-6;39-15;47-29,2,SimpleHill,47-6,61,30,selected,44-23,46-19;48-18;49-26;43-23;37-26;39-26,37-26,5.07,85,1,1128.81103828
GEMS236,2018_Apr_23_1532,Jerry,EG,orientation,8,6,18,40-9;47-6;39-15;47-29,2,SimpleHill,47-6,61,31,selected,37-26,40-29;40-30;32-31;32-23;33-28;35-19,40-30,3.49,90,5,1135.84970774
GEMS236,2018_Apr_23_1532,Jerry,EG,orientation,8,6,18,40-9;47-6;39-15;47-29,2,SimpleHill,47-6,61,32,selected,40-30,41-23;45-33;35-36;43-31;40-22;34-26,43-31,3.13,91,1,1142.53605703
GEMS236,2018_Apr_23_1532,Jerry,EG,orientation,8,6,18,40-9;47-6;39-15;47-29,2,SimpleHill,47-6,61,33,selected,43-31,39-29;47-30;47-25;47-36;45-24;38-35,47-36,1.25,95,4,1147.36424268
GEMS236,2018_Apr_23_1532,Jerry,EG,orientation,8,6,18,40-9;47-6;39-15;47-29,2,SimpleHill,47-6,61,34,selected,47-36,44-37;45-41;47-37;41-31;42-32;41-39,44-37,3.4,95,0,1154.34174815
GEMS236,2018_Apr_23_1532,Jerry,EG,orientation,8,6,18,40-9;47-6;39-15;47-29,2,SimpleHill,47-6,61,35,selected,44-37,43-42;48-39;43-36;50-35;41-41;47-34,50-35,3.48,95,0,1161.37557781
GEMS236,2018_Apr_23_1532,Jerry,EG,orientation,8,6,18,40-9;47-6;39-15;47-29,2,SimpleHill,47-6,61,36,selected,50-35,58-35;52-39;53-38;51-38;56-34;50-30,52-39,2.81,97,2,1167.76478485
GEMS236,2018_Apr_23_1532,Jerry,EG,orientation,8,6,18,40-9;47-6;39-15;47-29,2,SimpleHill,47-6,61,37,selected,52-39,52-38;57-40;58-41;57-34;55-34;59-40,52-38,2.52,97,0,1173.82138272
GEMS236,2018_Apr_23_1532,Jerry,EG,orientation,8,6,18,40-9;47-6;39-15;47-29,2,SimpleHill,47-6,61,38,selected,52-38,45-35;58-35;56-35;59-39;45-41;47-41,45-41,1.74,97,0,1179.10686046
GEMS236,2018_Apr_23_1532,Jerry,EG,orientation,8,6,18,40-9;47-6;39-15;47-29,2,SimpleHill,47-6,61,39,selected,45-41,42-41;44-48;43-40;41-47;50-35;44-41,44-41,2.86,97,0,1185.51870159
GEMS236,2018_Apr_23_1532,Jerry,EG,orientation,8,6,18,40-9;47-6;39-15;47-29,3,SimpleHill,39-15,73,0,selected,39-15,37-15;36-17;35-11;33-10;44-16;35-20,36-17,4.05,74,1,1210.37356442
GEMS236,2018_Apr_23_1532,Jerry,EG,orientation,8,6,18,40-9;47-6;39-15;47-29,3,SimpleHill,39-15,73,1,selected,36-17,41-21;39-10;30-21;39-23;41-23;32-15,41-21,2.73,81,7,1216.63379803
GEMS236,2018_Apr_23_1532,Jerry,EG,orientation,8,6,18,40-9;47-6;39-15;47-29,3,SimpleHill,39-15,73,2,selected,41-21,36-21;46-18;36-25;37-22;43-24;40-26,46-18,1.42,79,-2,1221.6001105
GEMS236,2018_Apr_23_1532,Jerry,EG,orientation,8,6,18,40-9;47-6;39-15;47-29,3,SimpleHill,39-15,73,3,selected,46-18,51-22;51-21;51-18;41-21;49-19;40-15,49-19,1.82,80,1,1226.97735087
GEMS236,2018_Apr_23_1532,Jerry,EG,orientation,8,6,18,40-9;47-6;39-15;47-29,3,SimpleHill,39-15,73,4,selected,49-19,42-16;48-17;48-15;55-20;45-23;51-14,42-16,1.16,75,-5,1231.69924807
GEMS236,2018_Apr_23_1532,Jerry,EG,orientation,8,6,18,40-9;47-6;39-15;47-29,3,SimpleHill,39-15,73,5,selected,42-16,39-13;36-18;41-21;40-16;48-12;47-21,40-16,2.72,74,-1,1237.9738977
GEMS236,2018_Apr_23_1532,Jerry,EG,orientation,8,6,18,40-9;47-6;39-15;47-29,3,SimpleHill,39-15,73,6,selected,40-16,44-14;35-15;43-12;39-9;46-19;42-21,46-19,2.46,80,6,1243.99259881
GEMS236,2018_Apr_23_1532,Jerry,EG,orientation,8,6,18,40-9;47-6;39-15;47-29,3,SimpleHill,39-15,73,7,selected,46-19,45-20;48-24;43-18;39-16;47-13;52-14,48-24,2.3,86,6,1249.84334493
GEMS236,2018_Apr_23_1532,Jerry,EG,orientation,8,6,18,40-9;47-6;39-15;47-29,3,SimpleHill,39-15,73,8,selected,48-24,52-23;48-29;51-24;44-29;49-25;53-18,52-23,2.71,85,-1,1256.10265123
GEMS236,2018_Apr_23_1532,Jerry,EG,orientation,8,6,18,40-9;47-6;39-15;47-29,3,SimpleHill,39-15,73,9,selected,52-23,56-19;55-24;52-20;46-24;53-22;45-26,45-26,3.61,87,2,1263.25907135
GEMS236,2018_Apr_23_1532,Jerry,EG,orientation,8,6,18,40-9;47-6;39-15;47-29,3,SimpleHill,39-15,73,10,selected,45-26,48-32;46-22;52-24;50-25;47-23;39-28,39-28,3.19,87,0,1270.0192267
GEMS236,2018_Apr_23_1532,Jerry,EG,orientation,8,6,18,40-9;47-6;39-15;47-29,3,SimpleHill,39-15,73,11,selected,39-28,36-29;36-22;40-21;45-27;40-32;36-33,36-33,2.66,90,3,1276.2436688
GEMS236,2018_Apr_23_1532,Jerry,EG,orientation,8,6,18,40-9;47-6;39-15;47-29,3,SimpleHill,39-15,73,12,selected,36-33,38-37;31-32;38-38;38-26;37-37;38-34,38-38,2.85,94,4,1282.65910362
GEMS236,2018_Apr_23_1532,Jerry,EG,orientation,8,6,18,40-9;47-6;39-15;47-29,3,SimpleHill,39-15,73,13,selected,38-38,38-36;45-35;36-38;41-35;33-33;34-43,38-36,2.78,93,-1,1289.0014337
GEMS236,2018_Apr_23_1532,Jerry,EG,orientation,8,6,18,40-9;47-6;39-15;47-29,3,SimpleHill,39-15,73,14,selected,38-36,36-38;39-37;31-35;37-31;33-37;34-36,37-31,3.2,89,-4,1295.75447754
GEMS236,2018_Apr_23_1532,Jerry,EG,orientation,8,6,18,40-9;47-6;39-15;47-29,3,SimpleHill,39-15,73,15,selected,37-31,34-34;34-36;40-35;36-31;42-35;40-26,40-35,2.59,93,4,1301.90736927
GEMS236,2018_Apr_23_1532,Jerry,EG,orientation,8,6,18,40-9;47-6;39-15;47-29,3,SimpleHill,39-15,73,16,selected,40-35,47-37;39-39;38-40;43-38;36-31;39-32,47-37,2.32,96,3,1307.77028917
GEMS236,2018_Apr_23_1532,Jerry,EG,orientation,8,6,18,40-9;47-6;39-15;47-29,3,SimpleHill,39-15,73,17,selected,47-37,44-43;54-40;49-37;48-39;40-38;45-40,49-37,4.22,96,0,1315.54146371
GEMS236,2018_Apr_23_1532,Jerry,EG,orientation,8,6,18,40-9;47-6;39-15;47-29,3,SimpleHill,39-15,73,18,selected,49-37,44-41;46-30;49-37;42-37;55-35;45-39,45-39,2.2,97,1,1321.29498194
GEMS236,2018_Apr_23_1532,Jerry,EG,orientation,8,6,18,40-9;47-6;39-15;47-29,3,SimpleHill,39-15,73,19,selected,45-39,51-42;45-44;41-34;40-40;52-38;43-38,52-38,4.02,97,0,1328.87356682
GEMS236,2018_Apr_23_1532,Jerry,EG,orientation,8,6,18,40-9;47-6;39-15;47-29,3,SimpleHill,39-15,73,20,selected,52-38,46-41;45-39;54-34;52-30;58-40;50-45,50-45,2.66,99,2,1335.07712062
GEMS236,2018_Apr_23_1532,Jerry,EG,orientation,8,6,18,40-9;47-6;39-15;47-29,3,SimpleHill,39-15,73,21,selected,50-45,53-49;49-41;51-50;45-42;54-45;54-48,54-48,3.1,99,0,1341.71890626
GEMS236,2018_Apr_23_1532,Jerry,EG,orientation,8,6,18,40-9;47-6;39-15;47-29,3,SimpleHill,39-15,73,22,selected,54-48,52-42;50-43;52-50;59-42;56-48;58-47,56-48,2.16,99,0,1347.43556258
GEMS236,2018_Apr_23_1532,Jerry,EG,orientation,8,6,18,40-9;47-6;39-15;47-29,3,SimpleHill,39-15,73,23,selected,56-48,60-46;56-41;62-50;53-45;59-45;53-41,53-45,2.29,99,0,1353.27334398
GEMS236,2018_Apr_23_1532,Jerry,EG,orientation,8,6,18,40-9;47-6;39-15;47-29,3,SimpleHill,39-15,73,24,selected,53-45,49-43;52-46;56-38;58-46;56-42;49-46,49-46,3.03,99,0,1359.84432058
GEMS236,2018_Apr_23_1532,Jerry,EG,orientation,8,6,18,40-9;47-6;39-15;47-29,3,SimpleHill,39-15,73,25,selected,49-46,43-42;55-51;43-43;47-47;53-48;45-42,53-48,4.05,99,0,1367.46386967
GEMS236,2018_Apr_23_1532,Jerry,EG,orientation,8,6,18,40-9;47-6;39-15;47-29,3,SimpleHill,39-15,73,26,selected,53-48,60-50;53-48;58-43;52-54;52-49;58-53,58-53,4.29,98,-1,1375.30171701
GEMS236,2018_Apr_23_1532,Jerry,EG,orientation,8,6,18,40-9;47-6;39-15;47-29,3,SimpleHill,39-15,73,27,selected,58-53,58-55;63-55;51-52;64-49;56-49;57-51,63-55,5.09,96,-2,1383.95024348
GEMS236,2018_Apr_23_1532,Jerry,EG,orientation,8,6,18,40-9;47-6;39-15;47-29,3,SimpleHill,39-15,73,28,selected,63-55,58-52;63-63;66-55;56-57;57-60;65-52,57-60,3.1,97,1,1390.58828338
GEMS236,2018_Apr_23_1532,Jerry,EG,orientation,8,6,18,40-9;47-6;39-15;47-29,3,SimpleHill,39-15,73,29,selected,57-60,63-61;57-52;51-56;50-61;51-63;54-67,50-61,3.88,97,0,1398.02863839
GEMS236,2018_Apr_23_1532,Jerry,EG,orientation,8,6,18,40-9;47-6;39-15;47-29,3,SimpleHill,39-15,73,30,selected,50-61,50-57;43-58;51-55;44-58;50-66;53-67,53-67,2.45,94,-3,1404.02090111
GEMS236,2018_Apr_23_1532,Jerry,EG,orientation,8,6,18,40-9;47-6;39-15;47-29,3,SimpleHill,39-15,73,31,selected,53-67,55-67;50-70;51-67;55-65;53-68;55-64,53-68,3.12,93,-1,1410.68899773
GEMS236,2018_Apr_23_1532,Jerry,EG,orientation,8,6,18,40-9;47-6;39-15;47-29,3,SimpleHill,39-15,73,32,selected,53-68,50-63;56-70;48-65;47-68;49-67;48-67,50-63,1.72,96,3,1415.96584641
GEMS236,2018_Apr_23_1532,Jerry,EG,orientation,8,6,18,40-9;47-6;39-15;47-29,3,SimpleHill,39-15,73,33,selected,50-63,52-59;54-62;45-68;50-57;53-57;51-66,54-62,3.53,96,0,1423.04447115
GEMS236,2018_Apr_23_1532,Jerry,EG,orientation,8,6,18,40-9;47-6;39-15;47-29,3,SimpleHill,39-15,73,34,selected,54-62,57-57;48-60;54-56;53-63;54-67;58-67,58-67,1.6,92,-4,1428.20168798
GEMS236,2018_Apr_23_1532,Jerry,EG,orientation,8,6,18,40-9;47-6;39-15;47-29,3,SimpleHill,39-15,73,35,selected,58-67,51-66;62-67;53-62;61-70;59-66;56-65,59-66,1.95,93,1,1433.68263717
GEMS236,2018_Apr_23_1532,Jerry,EG,orientation,8,6,18,40-9;47-6;39-15;47-29,3,SimpleHill,39-15,73,36,selected,59-66,67-66;65-70;64-63;60-60;64-69;57-64,60-60,2.15,96,3,1439.3949876
GEMS236,2018_Apr_23_1532,Jerry,EG,orientation,8,6,18,40-9;47-6;39-15;47-29,3,SimpleHill,39-15,73,37,selected,60-60,67-60;56-60;53-61;55-59;56-62;60-63,56-62,1.6,96,0,1444.54767704
GEMS236,2018_Apr_23_1532,Jerry,EG,orientation,8,6,18,40-9;47-6;39-15;47-29,3,SimpleHill,39-15,73,38,selected,56-62,60-65;52-57;58-68;63-62;49-65;59-58,58-68,3.82,92,-4,1451.92331438
GEMS236,2018_Apr_23_1532,Jerry,EG,orientation,8,6,18,40-9;47-6;39-15;47-29,3,SimpleHill,39-15,73,39,selected,58-68,56-67;58-63;54-64;54-70;63-66;64-70,63-66,5.88,91,-1,1461.35491325
GEMS236,2018_Apr_23_1532,Jerry,EG,orientation,8,6,18,40-9;47-6;39-15;47-29,4,SimpleHill,47-29,91,0,selected,47-29,49-32;48-22;51-27;44-27;44-28;47-35,47-35,3.74,95,4,1476.35655757
GEMS236,2018_Apr_23_1532,Jerry,EG,orientation,8,6,18,40-9;47-6;39-15;47-29,4,SimpleHill,47-29,91,1,selected,47-35,41-34;49-33;50-34;49-35;44-29;53-40,49-35,1.56,95,0,1481.45010728
GEMS236,2018_Apr_23_1532,Jerry,EG,orientation,8,6,18,40-9;47-6;39-15;47-29,4,SimpleHill,47-29,91,2,selected,49-35,51-37;44-36;55-34;53-39;52-39;53-37,44-36,2.68,95,0,1487.69046664
GEMS236,2018_Apr_23_1532,Jerry,EG,orientation,8,6,18,40-9;47-6;39-15;47-29,4,SimpleHill,47-29,91,3,selected,44-36,46-41;39-35;42-35;44-35;51-37;47-33,39-35,4.99,93,-2,1496.2351124
GEMS236,2018_Apr_23_1532,Jerry,EG,orientation,8,6,18,40-9;47-6;39-15;47-29,4,SimpleHill,47-29,91,4,selected,39-35,39-30;37-29;40-33;38-28;44-29;41-37,41-37,1.78,95,2,1501.56935629
GEMS236,2018_Apr_23_1532,Jerry,EG,orientation,8,6,18,40-9;47-6;39-15;47-29,4,SimpleHill,47-29,91,5,selected,41-37,45-31;44-38;42-35;48-38;38-33;38-38,42-35,2.1,94,-1,1507.21460661
GEMS236,2018_Apr_23_1532,Jerry,EG,orientation,8,6,18,40-9;47-6;39-15;47-29,4,SimpleHill,47-29,91,6,selected,42-35,37-33;42-42;38-39;37-35;39-29;37-32,37-35,3.95,92,-2,1514.7097484
GEMS236,2018_Apr_23_1532,Jerry,EG,orientation,8,6,18,40-9;47-6;39-15;47-29,4,SimpleHill,47-29,91,7,selected,37-35,43-37;32-39;43-40;31-35;37-38;31-36,37-38,2.1,93,1,1520.35785234
GEMS236,2018_Apr_23_1532,Jerry,EG,orientation,8,6,18,40-9;47-6;39-15;47-29,4,SimpleHill,47-29,91,8,selected,37-38,38-38;33-43;40-40;38-41;34-42;32-34,38-38,2.13,94,1,1526.03516573
GEMS236,2018_Apr_23_1532,Jerry,EG,orientation,8,6,18,40-9;47-6;39-15;47-29,4,SimpleHill,47-29,91,9,selected,38-38,38-45;34-38;32-35;40-44;38-31;40-38,40-44,1.43,97,3,1531.03283545
GEMS236,2018_Apr_23_1532,Jerry,EG,orientation,8,6,18,40-9;47-6;39-15;47-29,4,SimpleHill,47-29,91,10,selected,40-44,43-41;37-50;36-44;40-41;40-40;44-41,36-44,3.13,95,-2,1537.71432989
GEMS236,2018_Apr_23_1532,Jerry,EG,orientation,8,6,18,40-9;47-6;39-15;47-29,4,SimpleHill,47-29,91,11,selected,36-44,38-44;41-40;37-49;33-46;29-47;40-46,33-46,1.8,93,-2,1543.04328872
GEMS236,2018_Apr_23_1532,Jerry,EG,orientation,8,6,18,40-9;47-6;39-15;47-29,4,SimpleHill,47-29,91,12,selected,33-46,36-43;34-50;39-43;32-49;36-51;37-52,37-52,2.96,96,3,1549.55613197
GEMS236,2018_Apr_23_1532,Jerry,EG,orientation,8,6,18,40-9;47-6;39-15;47-29,4,SimpleHill,47-29,91,13,selected,37-52,38-54;37-60;36-53;36-59;33-51;39-50,38-54,1.85,96,0,1554.96761172
GEMS236,2018_Apr_23_1532,Jerry,EG,orientation,8,6,18,40-9;47-6;39-15;47-29,4,SimpleHill,47-29,91,14,selected,38-54,33-52;36-55;39-58;44-51;39-60;34-48,36-55,2.6,95,-1,1561.11745745
GEMS236,2018_Apr_23_1532,Jerry,EG,orientation,8,6,18,40-9;47-6;39-15;47-29,4,SimpleHill,47-29,91,15,selected,36-55,35-50;30-52;41-51;30-51;41-50;44-55,44-55,2.23,98,3,1566.91261304
GEMS236,2018_Apr_23_1532,Jerry,EG,orientation,8,6,18,40-9;47-6;39-15;47-29,4,SimpleHill,47-29,91,16,selected,44-55,40-61;42-50;51-58;39-52;49-60;46-61,40-61,1.79,95,-3,1572.25918243
GEMS236,2018_Apr_23_1532,Jerry,EG,orientation,8,6,18,40-9;47-6;39-15;47-29,4,SimpleHill,47-29,91,17,selected,40-61,39-60;37-65;32-61;45-66;34-64;44-66,44-66,1.67,94,-1,1577.49820732
GEMS236,2018_Apr_23_1532,Jerry,EG,orientation,8,6,18,40-9;47-6;39-15;47-29,4,SimpleHill,47-29,91,18,selected,44-66,46-69;42-68;44-68;48-61;38-68;43-63,42-68,3.79,92,-2,1584.83500843
GEMS236,2018_Apr_23_1532,Jerry,EG,orientation,8,6,18,40-9;47-6;39-15;47-29,4,SimpleHill,47-29,91,19,selected,42-68,46-62;47-63;35-65;43-69;48-64;41-64,41-64,3.39,94,2,1591.78089705
GEMS236,2018_Apr_23_1532,Jerry,EG,orientation,8,6,18,40-9;47-6;39-15;47-29,4,SimpleHill,47-29,91,20,selected,41-64,34-65;36-59;36-63;48-62;35-66;40-65,35-66,1.83,90,-4,1597.18344748
GEMS236,2018_Apr_23_1532,Jerry,EG,orientation,8,6,18,40-9;47-6;39-15;47-29,4,SimpleHill,47-29,91,21,selected,35-66,34-61;35-66;38-65;35-58;34-62;30-62,35-66,1.67,90,0,1602.39219031
GEMS236,2018_Apr_23_1532,Jerry,EG,orientation,8,6,18,40-9;47-6;39-15;47-29,4,SimpleHill,47-29,91,22,selected,35-66,39-63;31-61;34-70;41-70;32-68;39-60,32-68,2.89,87,-3,1608.84178352
GEMS236,2018_Apr_23_1532,Jerry,EG,orientation,8,6,18,40-9;47-6;39-15;47-29,4,SimpleHill,47-29,91,23,selected,32-68,32-61;38-69;25-65;33-66;33-62;37-63,32-61,1.11,91,4,1613.5057151
GEMS236,2018_Apr_23_1532,Jerry,EG,orientation,8,6,18,40-9;47-6;39-15;47-29,4,SimpleHill,47-29,91,24,selected,32-61,34-57;25-58;40-61;35-68;29-63;37-59,35-68,3.18,89,-2,1620.24762515
GEMS236,2018_Apr_23_1532,Jerry,EG,orientation,8,6,18,40-9;47-6;39-15;47-29,4,SimpleHill,47-29,91,25,selected,35-68,30-69;30-65;42-68;31-66;40-64;30-64,30-65,2.69,87,-2,1626.49021076
GEMS236,2018_Apr_23_1532,Jerry,EG,orientation,8,6,18,40-9;47-6;39-15;47-29,4,SimpleHill,47-29,91,26,selected,30-65,30-66;35-66;33-61;35-62;26-60;33-60,30-66,2.16,86,-1,1632.21762956
GEMS236,2018_Apr_23_1532,Jerry,EG,orientation,8,6,18,40-9;47-6;39-15;47-29,4,SimpleHill,47-29,91,27,selected,30-66,26-63;27-70;29-66;24-61;32-67;34-63,29-66,1.34,86,0,1637.10314578
GEMS236,2018_Apr_23_1532,Jerry,EG,orientation,8,6,18,40-9;47-6;39-15;47-29,4,SimpleHill,47-29,91,28,selected,29-66,33-67;28-60;23-61;29-58;35-70;30-61,23-61,1.94,83,-3,1642.60297053
GEMS236,2018_Apr_23_1532,Jerry,EG,orientation,8,6,18,40-9;47-6;39-15;47-29,4,SimpleHill,47-29,91,29,selected,23-61,23-53;26-59;20-57;26-55;16-64;28-61,28-61,0.98,87,4,1647.12787359
GEMS236,2018_Apr_23_1532,Jerry,EG,orientation,8,6,18,40-9;47-6;39-15;47-29,4,SimpleHill,47-29,91,30,selected,28-61,28-69;24-62;24-57;29-56;30-67;28-61,28-69,1.68,83,-4,1652.3317126
GEMS236,2018_Apr_23_1532,Jerry,EG,orientation,8,6,18,40-9;47-6;39-15;47-29,4,SimpleHill,47-29,91,31,selected,28-69,25-65;22-65;26-69;28-61;26-67;24-64,24-64,0.95,82,-1,1656.83215801
GEMS236,2018_Apr_23_1532,Jerry,EG,orientation,8,6,18,40-9;47-6;39-15;47-29,4,SimpleHill,47-29,91,32,selected,24-64,26-69;20-68;18-60;29-66;20-60;18-64,20-68,1.16,75,-7,1661.55578211
GEMS236,2018_Apr_23_1532,Jerry,EG,orientation,8,6,18,40-9;47-6;39-15;47-29,4,SimpleHill,47-29,91,33,selected,20-68,24-70;24-65;25-65;14-68;26-67;22-68,14-68,2.29,67,-8,1667.41065295
GEMS236,2018_Apr_23_1532,Jerry,EG,orientation,8,6,18,40-9;47-6;39-15;47-29,4,SimpleHill,47-29,91,34,selected,14-68,20-64;12-63;15-64;10-69;15-63;17-66,17-66,1.57,73,6,1672.52424432
GEMS236,2018_Apr_23_1532,Jerry,EG,orientation,8,6,18,40-9;47-6;39-15;47-29,4,SimpleHill,47-29,91,35,selected,17-66,22-60;23-61;19-65;18-61;12-62;12-67,12-62,1.42,68,-5,1677.492284
GEMS236,2018_Apr_23_1532,Jerry,EG,orientation,8,6,18,40-9;47-6;39-15;47-29,4,SimpleHill,47-29,91,36,selected,12-62,17-61;13-58;6-65;12-54;8-65;18-67,17-61,1.38,75,7,1682.44008645
GEMS236,2018_Apr_23_1532,Jerry,EG,orientation,8,6,18,40-9;47-6;39-15;47-29,4,SimpleHill,47-29,91,37,selected,17-61,11-59;15-64;24-62;19-64;21-56;15-68,21-56,4.18,82,7,1690.17032079
GEMS236,2018_Apr_23_1532,Jerry,EG,orientation,8,6,18,40-9;47-6;39-15;47-29,4,SimpleHill,47-29,91,38,selected,21-56,24-51;14-57;19-61;28-55;21-60;15-59,24-51,3.26,86,4,1696.98658619
GEMS236,2018_Apr_23_1532,Jerry,EG,orientation,8,6,18,40-9;47-6;39-15;47-29,4,SimpleHill,47-29,91,39,selected,24-51,25-50;17-48;19-56;27-56;20-46;29-52,27-56,4.23,88,2,1704.76817303
