subj_id,date,computer,experimenter,instructions,sight_radius,n_gabors,start_pos_list_ix,start_pos_list,landscape_ix,landscape_name,starting_pos,starting_score,trial,feedback,pos,stims,selected,rt,score,delta,exp_time
GEMS208,2018_Mar_19_1557,Jerry,PE,spatial_frequency,8,6,4,59-11;45-22;55-20;50-24,0,SpatialFrequencyBias,0-0,0,0,training,0-0,0-3;2-6;7-2;8-0;0-4;4-6,4-6,8.64,22,22,134.842051538
GEMS208,2018_Mar_19_1557,Jerry,PE,spatial_frequency,8,6,4,59-11;45-22;55-20;50-24,0,SpatialFrequencyBias,0-0,0,1,training,4-6,3-7;8-5;6-9;9-6;11-7;2-0,6-9,9.97,32,10,154.643638558
GEMS208,2018_Mar_19_1557,Jerry,PE,spatial_frequency,8,6,4,59-11;45-22;55-20;50-24,0,SpatialFrequencyBias,0-0,0,2,training,6-9,7-5;1-15;4-13;5-8;6-6;9-14,1-15,5.85,51,19,164.832337685
GEMS208,2018_Mar_19_1557,Jerry,PE,spatial_frequency,8,6,4,59-11;45-22;55-20;50-24,0,SpatialFrequencyBias,0-0,0,3,training,1-15,4-10;6-10;5-15;1-15;1-9;0-10,1-15,3.62,51,0,172.385783083
GEMS208,2018_Mar_19_1557,Jerry,PE,spatial_frequency,8,6,4,59-11;45-22;55-20;50-24,0,SpatialFrequencyBias,0-0,0,4,training,1-15,4-8;0-12;0-14;3-15;4-11;1-23,1-23,3.87,70,19,180.479687077
GEMS208,2018_Mar_19_1557,Jerry,PE,spatial_frequency,8,6,4,59-11;45-22;55-20;50-24,0,SpatialFrequencyBias,0-0,0,5,training,1-23,4-21;0-20;3-25;6-25;3-24;2-27,3-24,8.81,72,2,194.919156748
GEMS208,2018_Mar_19_1557,Jerry,PE,spatial_frequency,8,6,4,59-11;45-22;55-20;50-24,0,SpatialFrequencyBias,0-0,0,6,training,3-24,8-23;10-22;7-26;7-25;5-20;4-23,7-26,6.07,76,4,207.810214478
GEMS208,2018_Mar_19_1557,Jerry,PE,spatial_frequency,8,6,4,59-11;45-22;55-20;50-24,0,SpatialFrequencyBias,0-0,0,7,training,7-26,8-26;9-27;11-23;6-26;11-27;13-24,9-27,3.87,78,2,214.906233965
GEMS208,2018_Mar_19_1557,Jerry,PE,spatial_frequency,8,6,4,59-11;45-22;55-20;50-24,0,SpatialFrequencyBias,0-0,0,8,training,9-27,10-20;11-31;11-29;4-31;12-29;15-28,11-31,5.1,85,7,223.378920295
GEMS208,2018_Mar_19_1557,Jerry,PE,spatial_frequency,8,6,4,59-11;45-22;55-20;50-24,0,SpatialFrequencyBias,0-0,0,9,training,11-31,17-34;17-28;15-36;17-31;15-28;14-27,17-34,3.15,89,4,230.01615892
GEMS208,2018_Mar_19_1557,Jerry,PE,spatial_frequency,8,6,4,59-11;45-22;55-20;50-24,0,SpatialFrequencyBias,0-0,0,10,training,17-34,25-34;11-29;17-31;18-36;15-29;12-31,18-36,6.45,92,3,240.571387554
GEMS208,2018_Mar_19_1557,Jerry,PE,spatial_frequency,8,6,4,59-11;45-22;55-20;50-24,0,SpatialFrequencyBias,0-0,0,11,training,18-36,20-38;22-33;22-32;17-30;23-41;24-36,23-41,2.9,96,4,246.450180612
GEMS208,2018_Mar_19_1557,Jerry,PE,spatial_frequency,8,6,4,59-11;45-22;55-20;50-24,0,SpatialFrequencyBias,0-0,0,12,training,23-41,27-43;16-39;20-47;28-45;30-39;18-40,20-47,3.4,99,3,252.692442131
GEMS208,2018_Mar_19_1557,Jerry,PE,spatial_frequency,8,6,4,59-11;45-22;55-20;50-24,0,SpatialFrequencyBias,0-0,0,13,training,20-47,16-41;14-46;17-44;23-40;18-46;22-50,22-50,2.09,100,1,257.674842794
GEMS208,2018_Mar_19_1557,Jerry,PE,spatial_frequency,8,6,4,59-11;45-22;55-20;50-24,0,SpatialFrequencyBias,0-0,0,14,training,22-50,24-46;18-55;22-54;21-46;17-44;20-47,18-55,3.44,99,-1,263.733122072
GEMS208,2018_Mar_19_1557,Jerry,PE,spatial_frequency,8,6,4,59-11;45-22;55-20;50-24,0,SpatialFrequencyBias,0-0,0,15,training,18-55,16-61;21-61;17-58;15-58;25-55;20-61,20-61,6.72,95,-4,274.203704113
GEMS208,2018_Mar_19_1557,Jerry,PE,spatial_frequency,8,6,4,59-11;45-22;55-20;50-24,0,SpatialFrequencyBias,0-0,0,16,training,20-61,18-54;18-62;22-55;21-54;23-65;14-61,23-65,2.71,91,-4,280.203580877
GEMS208,2018_Mar_19_1557,Jerry,PE,spatial_frequency,8,6,4,59-11;45-22;55-20;50-24,0,SpatialFrequencyBias,0-0,0,17,training,23-65,24-59;26-67;28-70;21-66;26-58;27-70,26-58,2.56,97,6,293.163935476
GEMS208,2018_Mar_19_1557,Jerry,PE,spatial_frequency,8,6,4,59-11;45-22;55-20;50-24,0,SpatialFrequencyBias,0-0,0,18,training,26-58,27-59;26-65;26-52;32-53;31-59;26-51,26-52,2.82,99,2,298.999622291
GEMS208,2018_Mar_19_1557,Jerry,PE,spatial_frequency,8,6,4,59-11;45-22;55-20;50-24,0,SpatialFrequencyBias,0-0,0,19,training,26-52,21-57;23-45;27-55;23-50;32-49;21-50,21-50,10.22,100,1,311.982789896
GEMS208,2018_Mar_19_1557,Jerry,PE,spatial_frequency,8,6,4,59-11;45-22;55-20;50-24,0,SpatialFrequencyBias,0-0,0,20,training,21-50,16-56;26-45;15-51;21-49;21-57;27-53,21-49,4.27,99,-1,319.229197896
GEMS208,2018_Mar_19_1557,Jerry,PE,spatial_frequency,8,6,4,59-11;45-22;55-20;50-24,0,SpatialFrequencyBias,0-0,0,21,training,21-49,27-50;26-50;21-54;21-47;18-49;19-45,21-47,3.41,99,0,325.781420859
GEMS208,2018_Mar_19_1557,Jerry,PE,spatial_frequency,8,6,4,59-11;45-22;55-20;50-24,0,SpatialFrequencyBias,0-0,0,22,training,21-47,15-48;23-47;24-43;25-52;21-48;21-49,25-52,5.98,99,0,335.393476831
GEMS208,2018_Mar_19_1557,Jerry,PE,spatial_frequency,8,6,4,59-11;45-22;55-20;50-24,0,SpatialFrequencyBias,0-0,0,23,training,25-52,27-55;20-56;31-48;24-58;26-54;24-46,24-46,4.72,99,0,343.080737942
GEMS208,2018_Mar_19_1557,Jerry,PE,spatial_frequency,8,6,4,59-11;45-22;55-20;50-24,0,SpatialFrequencyBias,0-0,0,24,training,24-46,21-51;24-42;22-42;19-41;20-51;24-53,20-51,3.18,99,0,349.276305618
GEMS208,2018_Mar_19_1557,Jerry,PE,spatial_frequency,8,6,4,59-11;45-22;55-20;50-24,0,SpatialFrequencyBias,0-0,0,25,training,20-51,25-57;22-47;22-50;20-58;13-48;14-55,22-50,6.14,100,1,357.991958311
GEMS208,2018_Mar_19_1557,Jerry,PE,spatial_frequency,8,6,4,59-11;45-22;55-20;50-24,0,SpatialFrequencyBias,0-0,0,26,training,22-50,18-45;24-51;18-53;29-49;18-50;22-42,18-50,10.68,100,0,371.42910891
GEMS208,2018_Mar_19_1557,Jerry,PE,spatial_frequency,8,6,4,59-11;45-22;55-20;50-24,0,SpatialFrequencyBias,0-0,0,27,training,18-50,22-45;17-50;23-47;23-46;15-47;22-46,22-46,4.41,99,-1,378.443496116
GEMS208,2018_Mar_19_1557,Jerry,PE,spatial_frequency,8,6,4,59-11;45-22;55-20;50-24,0,SpatialFrequencyBias,0-0,0,28,training,22-46,25-49;23-41;26-44;26-48;18-49;16-43,18-49,6.86,99,0,388.698399697
GEMS208,2018_Mar_19_1557,Jerry,PE,spatial_frequency,8,6,4,59-11;45-22;55-20;50-24,0,SpatialFrequencyBias,0-0,0,29,training,18-49,14-46;18-49;17-56;21-51;14-43;12-49,12-49,3.56,99,0,394.979335456
GEMS208,2018_Mar_19_1557,Jerry,PE,spatial_frequency,8,6,4,59-11;45-22;55-20;50-24,1,SimpleHill,59-11,67,0,selected,59-11,59-11;57-14;58-15;63-12;61-16;66-14,57-14,5.07,73,6,422.010778481
GEMS208,2018_Mar_19_1557,Jerry,PE,spatial_frequency,8,6,4,59-11;45-22;55-20;50-24,1,SimpleHill,59-11,67,1,selected,57-14,61-12;59-20;58-20;59-18;53-15;52-17,58-20,6.38,80,7,431.914978898
GEMS208,2018_Mar_19_1557,Jerry,PE,spatial_frequency,8,6,4,59-11;45-22;55-20;50-24,1,SimpleHill,59-11,67,2,selected,58-20,65-18;58-16;62-23;57-20;64-19;64-21,64-19,3.52,76,-4,438.978959667
GEMS208,2018_Mar_19_1557,Jerry,PE,spatial_frequency,8,6,4,59-11;45-22;55-20;50-24,1,SimpleHill,59-11,67,3,selected,64-19,64-24;69-19;69-20;64-16;59-21;60-24,60-24,3.8,84,8,446.32855691
GEMS208,2018_Mar_19_1557,Jerry,PE,spatial_frequency,8,6,4,59-11;45-22;55-20;50-24,1,SimpleHill,59-11,67,4,selected,60-24,60-21;60-27;55-23;65-18;66-25;54-19,66-25,5.76,82,-2,455.63839704
GEMS208,2018_Mar_19_1557,Jerry,PE,spatial_frequency,8,6,4,59-11;45-22;55-20;50-24,1,SimpleHill,59-11,67,5,selected,66-25,65-31;59-27;68-19;65-25;70-30;60-28,59-27,4.46,87,5,463.636306834
GEMS208,2018_Mar_19_1557,Jerry,PE,spatial_frequency,8,6,4,59-11;45-22;55-20;50-24,1,SimpleHill,59-11,67,6,selected,59-27,64-25;57-30;65-27;56-26;59-25;64-26,64-26,3.72,84,-3,470.913063783
GEMS208,2018_Mar_19_1557,Jerry,PE,spatial_frequency,8,6,4,59-11;45-22;55-20;50-24,1,SimpleHill,59-11,67,7,selected,64-26,64-23;65-28;67-31;61-26;70-29;67-22,61-26,4.4,86,2,478.869674898
GEMS208,2018_Mar_19_1557,Jerry,PE,spatial_frequency,8,6,4,59-11;45-22;55-20;50-24,1,SimpleHill,59-11,67,8,selected,61-26,58-32;61-30;63-31;55-22;68-27;60-26,61-30,5.67,89,3,488.09633862
GEMS208,2018_Mar_19_1557,Jerry,PE,spatial_frequency,8,6,4,59-11;45-22;55-20;50-24,1,SimpleHill,59-11,67,9,selected,61-30,58-28;64-23;68-32;66-28;66-34;57-25,58-28,7.12,89,0,498.785085601
GEMS208,2018_Mar_19_1557,Jerry,PE,spatial_frequency,8,6,4,59-11;45-22;55-20;50-24,1,SimpleHill,59-11,67,10,selected,58-28,59-30;57-24;62-32;55-35;63-24;63-27,59-30,5.25,90,1,507.59644313
GEMS208,2018_Mar_19_1557,Jerry,PE,spatial_frequency,8,6,4,59-11;45-22;55-20;50-24,1,SimpleHill,59-11,67,11,selected,59-30,57-32;60-37;56-35;55-32;54-27;62-23,60-37,7.26,94,4,518.418776318
GEMS208,2018_Mar_19_1557,Jerry,PE,spatial_frequency,8,6,4,59-11;45-22;55-20;50-24,1,SimpleHill,59-11,67,12,selected,60-37,58-34;64-33;60-44;55-39;62-41;60-30,58-34,3.33,93,-1,525.305047702
GEMS208,2018_Mar_19_1557,Jerry,PE,spatial_frequency,8,6,4,59-11;45-22;55-20;50-24,1,SimpleHill,59-11,67,13,selected,58-34,54-29;51-37;57-30;63-29;56-40;65-32,65-32,3.8,89,-4,532.667822521
GEMS208,2018_Mar_19_1557,Jerry,PE,spatial_frequency,8,6,4,59-11;45-22;55-20;50-24,1,SimpleHill,59-11,67,14,selected,65-32,63-39;70-32;60-34;59-36;59-27;67-31,60-34,5.38,92,3,541.612551795
GEMS208,2018_Mar_19_1557,Jerry,PE,spatial_frequency,8,6,4,59-11;45-22;55-20;50-24,1,SimpleHill,59-11,67,15,selected,60-34,67-31;57-34;59-33;56-31;54-34;62-32,62-32,7.12,90,-2,552.290922651
GEMS208,2018_Mar_19_1557,Jerry,PE,spatial_frequency,8,6,4,59-11;45-22;55-20;50-24,1,SimpleHill,59-11,67,16,selected,62-32,57-36;62-37;63-37;56-33;63-32;55-31,56-33,3.09,93,3,558.9484814
GEMS208,2018_Mar_19_1557,Jerry,PE,spatial_frequency,8,6,4,59-11;45-22;55-20;50-24,1,SimpleHill,59-11,67,17,selected,56-33,61-32;52-37;53-38;58-26;56-41;56-35,56-35,2.58,94,1,565.083381587
GEMS208,2018_Mar_19_1557,Jerry,PE,spatial_frequency,8,6,4,59-11;45-22;55-20;50-24,1,SimpleHill,59-11,67,18,selected,56-35,63-33;53-35;52-36;58-32;54-29;61-33,53-35,2.86,95,1,571.501958167
GEMS208,2018_Mar_19_1557,Jerry,PE,spatial_frequency,8,6,4,59-11;45-22;55-20;50-24,1,SimpleHill,59-11,67,19,selected,53-35,50-36;52-30;51-34;51-39;61-35;51-37,61-35,3.12,93,-2,578.196240831
GEMS208,2018_Mar_19_1557,Jerry,PE,spatial_frequency,8,6,4,59-11;45-22;55-20;50-24,1,SimpleHill,59-11,67,20,selected,61-35,62-34;54-32;66-41;57-34;54-36;62-35,62-35,3.65,92,-1,585.405354191
GEMS208,2018_Mar_19_1557,Jerry,PE,spatial_frequency,8,6,4,59-11;45-22;55-20;50-24,1,SimpleHill,59-11,67,21,selected,62-35,65-35;58-38;62-38;56-38;56-32;67-38,65-35,2.03,91,-1,590.982884003
GEMS208,2018_Mar_19_1557,Jerry,PE,spatial_frequency,8,6,4,59-11;45-22;55-20;50-24,1,SimpleHill,59-11,67,22,selected,65-35,66-38;69-31;59-32;62-36;66-40;64-31,66-40,4.64,92,1,599.162697997
GEMS208,2018_Mar_19_1557,Jerry,PE,spatial_frequency,8,6,4,59-11;45-22;55-20;50-24,1,SimpleHill,59-11,67,23,selected,66-40,63-33;64-47;64-38;62-34;67-33;67-40,67-40,4.13,92,0,606.853335766
GEMS208,2018_Mar_19_1557,Jerry,PE,spatial_frequency,8,6,4,59-11;45-22;55-20;50-24,1,SimpleHill,59-11,67,24,selected,67-40,69-45;66-34;68-34;62-40;69-47;69-33,62-40,2.63,95,3,613.041887971
GEMS208,2018_Mar_19_1557,Jerry,PE,spatial_frequency,8,6,4,59-11;45-22;55-20;50-24,1,SimpleHill,59-11,67,25,selected,62-40,63-34;58-37;67-40;67-39;61-43;60-39,61-43,1.99,96,1,618.6230662
GEMS208,2018_Mar_19_1557,Jerry,PE,spatial_frequency,8,6,4,59-11;45-22;55-20;50-24,1,SimpleHill,59-11,67,26,selected,61-43,61-40;62-50;65-43;66-42;61-42;59-46,61-42,2.86,96,0,625.023252814
GEMS208,2018_Mar_19_1557,Jerry,PE,spatial_frequency,8,6,4,59-11;45-22;55-20;50-24,1,SimpleHill,59-11,67,27,selected,61-42,66-46;62-45;65-43;59-41;55-42;59-48,62-45,4.97,96,0,633.556127134
GEMS208,2018_Mar_19_1557,Jerry,PE,spatial_frequency,8,6,4,59-11;45-22;55-20;50-24,1,SimpleHill,59-11,67,28,selected,62-45,57-44;63-41;65-47;65-44;58-48;62-49,65-44,5.74,94,-2,642.858878491
GEMS208,2018_Mar_19_1557,Jerry,PE,spatial_frequency,8,6,4,59-11;45-22;55-20;50-24,1,SimpleHill,59-11,67,29,selected,65-44,70-47;68-44;62-42;67-39;62-47;64-47,64-47,3.63,95,1,650.047966211
GEMS208,2018_Mar_19_1557,Jerry,PE,spatial_frequency,8,6,4,59-11;45-22;55-20;50-24,1,SimpleHill,59-11,67,30,selected,64-47,68-53;57-45;67-50;63-40;64-42;69-51,68-53,2.32,93,-2,655.929703802
GEMS208,2018_Mar_19_1557,Jerry,PE,spatial_frequency,8,6,4,59-11;45-22;55-20;50-24,1,SimpleHill,59-11,67,31,selected,68-53,68-61;68-60;64-55;68-57;64-57;64-52,64-52,2.16,96,3,661.638222589
GEMS208,2018_Mar_19_1557,Jerry,PE,spatial_frequency,8,6,4,59-11;45-22;55-20;50-24,1,SimpleHill,59-11,67,32,selected,64-52,63-52;62-50;61-54;64-57;58-52;63-46,62-50,2.18,97,1,667.380098236
GEMS208,2018_Mar_19_1557,Jerry,PE,spatial_frequency,8,6,4,59-11;45-22;55-20;50-24,1,SimpleHill,59-11,67,33,selected,62-50,62-58;63-53;66-53;62-47;64-46;67-47,66-53,4.35,94,-3,675.284951642
GEMS208,2018_Mar_19_1557,Jerry,PE,spatial_frequency,8,6,4,59-11;45-22;55-20;50-24,1,SimpleHill,59-11,67,34,selected,66-53,60-53;62-48;67-47;65-51;69-48;66-55,69-48,4.65,92,-2,683.48460082
GEMS208,2018_Mar_19_1557,Jerry,PE,spatial_frequency,8,6,4,59-11;45-22;55-20;50-24,1,SimpleHill,59-11,67,35,selected,69-48,70-49;69-48;62-48;67-48;64-46;67-51,67-51,3.59,94,2,690.634549205
GEMS208,2018_Mar_19_1557,Jerry,PE,spatial_frequency,8,6,4,59-11;45-22;55-20;50-24,1,SimpleHill,59-11,67,36,selected,67-51,65-45;67-49;64-54;63-50;63-52;63-56,63-50,3.76,96,2,697.960214078
GEMS208,2018_Mar_19_1557,Jerry,PE,spatial_frequency,8,6,4,59-11;45-22;55-20;50-24,1,SimpleHill,59-11,67,37,selected,63-50,67-51;69-54;64-50;66-45;67-54;70-51,67-51,3.11,94,-2,704.61947604
GEMS208,2018_Mar_19_1557,Jerry,PE,spatial_frequency,8,6,4,59-11;45-22;55-20;50-24,1,SimpleHill,59-11,67,38,selected,67-51,68-57;66-54;70-53;70-54;67-54;66-45,67-54,2.97,93,-1,711.151539886
GEMS208,2018_Mar_19_1557,Jerry,PE,spatial_frequency,8,6,4,59-11;45-22;55-20;50-24,1,SimpleHill,59-11,67,39,selected,67-54,66-51;69-47;63-55;70-56;69-60;63-56,66-51,3.62,94,1,718.33656883
GEMS208,2018_Mar_19_1557,Jerry,PE,spatial_frequency,8,6,4,59-11;45-22;55-20;50-24,2,SimpleHill,45-22,83,0,selected,45-22,44-23;48-21;50-23;42-25;46-28;45-21,46-28,2.99,90,7,745.524252944
GEMS208,2018_Mar_19_1557,Jerry,PE,spatial_frequency,8,6,4,59-11;45-22;55-20;50-24,2,SimpleHill,45-22,83,1,selected,46-28,39-29;51-23;51-30;48-35;44-30;47-31,39-29,1.8,88,-2,750.86046231
GEMS208,2018_Mar_19_1557,Jerry,PE,spatial_frequency,8,6,4,59-11;45-22;55-20;50-24,2,SimpleHill,45-22,83,2,selected,39-29,37-27;35-23;32-27;43-34;40-31;44-26,43-34,2.33,93,5,756.749884687
GEMS208,2018_Mar_19_1557,Jerry,PE,spatial_frequency,8,6,4,59-11;45-22;55-20;50-24,2,SimpleHill,45-22,83,3,selected,43-34,50-36;50-31;36-32;37-34;41-29;46-37,50-36,2.27,96,3,762.580131206
GEMS208,2018_Mar_19_1557,Jerry,PE,spatial_frequency,8,6,4,59-11;45-22;55-20;50-24,2,SimpleHill,45-22,83,4,selected,50-36,46-31;42-36;52-32;53-41;45-32;55-31,52-32,4.13,93,-3,770.276529043
GEMS208,2018_Mar_19_1557,Jerry,PE,spatial_frequency,8,6,4,59-11;45-22;55-20;50-24,2,SimpleHill,45-22,83,5,selected,52-32,50-28;47-31;52-26;48-28;51-39;55-36,50-28,4.29,90,-3,778.116773658
GEMS208,2018_Mar_19_1557,Jerry,PE,spatial_frequency,8,6,4,59-11;45-22;55-20;50-24,2,SimpleHill,45-22,83,6,selected,50-28,48-33;44-28;55-28;56-25;55-34;53-29,53-29,2.02,91,1,783.681970299
GEMS208,2018_Mar_19_1557,Jerry,PE,spatial_frequency,8,6,4,59-11;45-22;55-20;50-24,2,SimpleHill,45-22,83,7,selected,53-29,49-26;48-31;60-31;56-28;53-23;52-26,52-26,1.94,88,-3,789.160647804
GEMS208,2018_Mar_19_1557,Jerry,PE,spatial_frequency,8,6,4,59-11;45-22;55-20;50-24,2,SimpleHill,45-22,83,8,selected,52-26,54-24;52-30;47-25;51-30;47-31;55-19,47-25,5.89,87,-1,798.596734414
GEMS208,2018_Mar_19_1557,Jerry,PE,spatial_frequency,8,6,4,59-11;45-22;55-20;50-24,2,SimpleHill,45-22,83,9,selected,47-25,52-27;52-29;49-22;42-26;46-30;42-25,52-27,2.9,89,2,805.058619536
GEMS208,2018_Mar_19_1557,Jerry,PE,spatial_frequency,8,6,4,59-11;45-22;55-20;50-24,2,SimpleHill,45-22,83,10,selected,52-27,45-27;49-34;51-30;53-32;53-28;56-22,49-34,4.69,94,5,813.299313881
GEMS208,2018_Mar_19_1557,Jerry,PE,spatial_frequency,8,6,4,59-11;45-22;55-20;50-24,2,SimpleHill,45-22,83,11,selected,49-34,52-35;50-32;53-36;49-34;54-35;51-27,52-35,1.86,95,1,818.71650702
GEMS208,2018_Mar_19_1557,Jerry,PE,spatial_frequency,8,6,4,59-11;45-22;55-20;50-24,2,SimpleHill,45-22,83,12,selected,52-35,48-36;56-37;52-31;50-35;48-30;53-33,48-30,3.54,91,-4,825.814096562
GEMS208,2018_Mar_19_1557,Jerry,PE,spatial_frequency,8,6,4,59-11;45-22;55-20;50-24,2,SimpleHill,45-22,83,13,selected,48-30,54-33;51-32;45-34;49-34;46-36;56-30,56-30,3.27,91,0,832.636613163
GEMS208,2018_Mar_19_1557,Jerry,PE,spatial_frequency,8,6,4,59-11;45-22;55-20;50-24,2,SimpleHill,45-22,83,14,selected,56-30,61-24;53-29;60-34;57-32;54-25;53-30,54-25,1.98,87,-4,838.178014113
GEMS208,2018_Mar_19_1557,Jerry,PE,spatial_frequency,8,6,4,59-11;45-22;55-20;50-24,2,SimpleHill,45-22,83,15,selected,54-25,52-24;52-25;60-28;49-20;52-27;54-29,52-27,2.44,89,2,844.187344175
GEMS208,2018_Mar_19_1557,Jerry,PE,spatial_frequency,8,6,4,59-11;45-22;55-20;50-24,2,SimpleHill,45-22,83,16,selected,52-27,47-31;48-22;48-32;50-30;53-31;52-20,47-31,4.4,92,3,852.144696944
GEMS208,2018_Mar_19_1557,Jerry,PE,spatial_frequency,8,6,4,59-11;45-22;55-20;50-24,2,SimpleHill,45-22,83,17,selected,47-31,46-34;49-29;49-25;43-27;41-32;43-34,41-32,4.54,91,-1,860.254818115
GEMS208,2018_Mar_19_1557,Jerry,PE,spatial_frequency,8,6,4,59-11;45-22;55-20;50-24,2,SimpleHill,45-22,83,18,selected,41-32,38-34;38-30;47-27;44-31;43-36;39-27,38-30,2.68,89,-2,866.476799841
GEMS208,2018_Mar_19_1557,Jerry,PE,spatial_frequency,8,6,4,59-11;45-22;55-20;50-24,2,SimpleHill,45-22,83,19,selected,38-30,44-27;32-33;33-35;38-23;39-30;34-24,39-30,2.2,89,0,872.241561156
GEMS208,2018_Mar_19_1557,Jerry,PE,spatial_frequency,8,6,4,59-11;45-22;55-20;50-24,2,SimpleHill,45-22,83,20,selected,39-30,37-26;38-30;42-37;36-29;45-25;43-33,38-30,4.29,89,0,880.096346942
GEMS208,2018_Mar_19_1557,Jerry,PE,spatial_frequency,8,6,4,59-11;45-22;55-20;50-24,2,SimpleHill,45-22,83,21,selected,38-30,40-32;30-30;37-34;42-28;41-35;37-37,40-32,2.58,91,2,886.235942889
GEMS208,2018_Mar_19_1557,Jerry,PE,spatial_frequency,8,6,4,59-11;45-22;55-20;50-24,2,SimpleHill,45-22,83,22,selected,40-32,43-28;47-30;41-39;36-36;45-37;43-36,36-36,3.82,92,1,893.611541262
GEMS208,2018_Mar_19_1557,Jerry,PE,spatial_frequency,8,6,4,59-11;45-22;55-20;50-24,2,SimpleHill,45-22,83,23,selected,36-36,37-38;41-42;33-43;40-39;33-35;42-35,41-42,2.21,97,5,899.380154573
GEMS208,2018_Mar_19_1557,Jerry,PE,spatial_frequency,8,6,4,59-11;45-22;55-20;50-24,2,SimpleHill,45-22,83,24,selected,41-42,36-37;45-40;41-47;40-47;39-38;48-39,36-37,3.83,92,-5,906.770863242
GEMS208,2018_Mar_19_1557,Jerry,PE,spatial_frequency,8,6,4,59-11;45-22;55-20;50-24,2,SimpleHill,45-22,83,25,selected,36-37,39-31;35-39;37-32;33-44;36-41;29-40,35-39,2.92,93,1,913.233349818
GEMS208,2018_Mar_19_1557,Jerry,PE,spatial_frequency,8,6,4,59-11;45-22;55-20;50-24,2,SimpleHill,45-22,83,26,selected,35-39,30-36;42-36;41-34;40-37;33-34;42-38,40-37,3.24,94,1,920.030678965
GEMS208,2018_Mar_19_1557,Jerry,PE,spatial_frequency,8,6,4,59-11;45-22;55-20;50-24,2,SimpleHill,45-22,83,27,selected,40-37,37-43;40-44;43-43;41-34;39-36;46-41,46-41,2.72,98,4,926.305608824
GEMS208,2018_Mar_19_1557,Jerry,PE,spatial_frequency,8,6,4,59-11;45-22;55-20;50-24,2,SimpleHill,45-22,83,28,selected,46-41,45-47;45-36;43-46;43-34;41-37;48-39,41-37,2.36,95,-3,932.215857072
GEMS208,2018_Mar_19_1557,Jerry,PE,spatial_frequency,8,6,4,59-11;45-22;55-20;50-24,2,SimpleHill,45-22,83,29,selected,41-37,35-35;41-37;42-33;40-34;35-33;42-44,35-35,3.13,91,-4,938.911166274
GEMS208,2018_Mar_19_1557,Jerry,PE,spatial_frequency,8,6,4,59-11;45-22;55-20;50-24,2,SimpleHill,45-22,83,30,selected,35-35,31-33;33-30;38-31;38-28;38-35;29-35,33-30,5.19,86,-5,947.658651545
GEMS208,2018_Mar_19_1557,Jerry,PE,spatial_frequency,8,6,4,59-11;45-22;55-20;50-24,2,SimpleHill,45-22,83,31,selected,33-30,35-23;39-31;39-26;28-24;36-25;36-28,28-24,5.44,76,-10,956.628443117
GEMS208,2018_Mar_19_1557,Jerry,PE,spatial_frequency,8,6,4,59-11;45-22;55-20;50-24,2,SimpleHill,45-22,83,32,selected,28-24,27-20;34-25;31-27;25-31;21-26;26-28,25-31,2.34,80,4,962.537669949
GEMS208,2018_Mar_19_1557,Jerry,PE,spatial_frequency,8,6,4,59-11;45-22;55-20;50-24,2,SimpleHill,45-22,83,33,selected,25-31,33-31;31-36;21-28;24-32;26-29;31-26,24-32,1.61,80,0,967.692689563
GEMS208,2018_Mar_19_1557,Jerry,PE,spatial_frequency,8,6,4,59-11;45-22;55-20;50-24,2,SimpleHill,45-22,83,34,selected,24-32,20-36;25-29;21-29;23-35;24-31;21-37,20-36,2.06,78,-2,973.305022414
GEMS208,2018_Mar_19_1557,Jerry,PE,spatial_frequency,8,6,4,59-11;45-22;55-20;50-24,2,SimpleHill,45-22,83,35,selected,20-36,14-37;18-36;21-30;20-42;15-38;21-34,18-36,2.08,75,-3,978.940419545
GEMS208,2018_Mar_19_1557,Jerry,PE,spatial_frequency,8,6,4,59-11;45-22;55-20;50-24,2,SimpleHill,45-22,83,36,selected,18-36,12-41;22-30;23-38;14-40;10-36;15-33,23-38,1.92,82,7,984.40334945
GEMS208,2018_Mar_19_1557,Jerry,PE,spatial_frequency,8,6,4,59-11;45-22;55-20;50-24,2,SimpleHill,45-22,83,37,selected,23-38,24-44;20-34;20-35;17-34;21-45;22-33,22-33,2.03,78,-4,989.973884597
GEMS208,2018_Mar_19_1557,Jerry,PE,spatial_frequency,8,6,4,59-11;45-22;55-20;50-24,2,SimpleHill,45-22,83,38,selected,22-33,24-34;19-36;20-33;23-40;17-30;20-40,20-40,1.73,80,2,995.243470829
GEMS208,2018_Mar_19_1557,Jerry,PE,spatial_frequency,8,6,4,59-11;45-22;55-20;50-24,2,SimpleHill,45-22,83,39,selected,20-40,24-43;25-37;26-41;22-39;17-39;19-45,19-45,1.55,80,0,1000.34306991
GEMS208,2018_Mar_19_1557,Jerry,PE,spatial_frequency,8,6,4,59-11;45-22;55-20;50-24,3,SimpleHill,55-20,81,0,selected,55-20,50-20;48-21;57-21;57-24;52-17;55-25,55-25,2.34,87,6,1018.95528369
GEMS208,2018_Mar_19_1557,Jerry,PE,spatial_frequency,8,6,4,59-11;45-22;55-20;50-24,3,SimpleHill,55-20,81,1,selected,55-25,58-31;62-27;61-28;53-31;48-25;52-27,58-31,1.68,91,4,1024.16363715
GEMS208,2018_Mar_19_1557,Jerry,PE,spatial_frequency,8,6,4,59-11;45-22;55-20;50-24,3,SimpleHill,55-20,81,2,selected,58-31,61-24;55-26;65-33;60-26;60-25;53-36,55-26,2.36,87,-4,1030.07887724
GEMS208,2018_Mar_19_1557,Jerry,PE,spatial_frequency,8,6,4,59-11;45-22;55-20;50-24,3,SimpleHill,55-20,81,3,selected,55-26,56-28;51-29;56-31;54-33;54-23;55-24,56-28,1.73,89,2,1035.36131008
GEMS208,2018_Mar_19_1557,Jerry,PE,spatial_frequency,8,6,4,59-11;45-22;55-20;50-24,3,SimpleHill,55-20,81,4,selected,56-28,59-30;62-32;55-23;57-24;60-26;54-31,59-30,2.55,90,1,1041.48172671
GEMS208,2018_Mar_19_1557,Jerry,PE,spatial_frequency,8,6,4,59-11;45-22;55-20;50-24,3,SimpleHill,55-20,81,5,selected,59-30,57-35;58-25;62-35;62-32;59-36;64-31,59-36,2.44,94,4,1047.4705734
GEMS208,2018_Mar_19_1557,Jerry,PE,spatial_frequency,8,6,4,59-11;45-22;55-20;50-24,3,SimpleHill,55-20,81,6,selected,59-36,58-41;63-41;58-33;66-34;54-30;53-40,58-41,3.45,97,3,1054.48455441
GEMS208,2018_Mar_19_1557,Jerry,PE,spatial_frequency,8,6,4,59-11;45-22;55-20;50-24,3,SimpleHill,55-20,81,7,selected,58-41,53-42;56-40;60-35;58-39;53-43;62-41,53-43,2.15,98,1,1060.19584008
GEMS208,2018_Mar_19_1557,Jerry,PE,spatial_frequency,8,6,4,59-11;45-22;55-20;50-24,3,SimpleHill,55-20,81,8,selected,53-43,53-48;50-44;56-43;59-48;59-45;51-48,51-48,2.56,99,1,1066.32070216
GEMS208,2018_Mar_19_1557,Jerry,PE,spatial_frequency,8,6,4,59-11;45-22;55-20;50-24,3,SimpleHill,55-20,81,9,selected,51-48,52-49;46-54;46-52;48-55;54-47;46-46,46-52,1.73,99,0,1071.61227203
GEMS208,2018_Mar_19_1557,Jerry,PE,spatial_frequency,8,6,4,59-11;45-22;55-20;50-24,3,SimpleHill,55-20,81,10,selected,46-52,43-51;43-46;44-56;43-47;49-54;49-59,49-54,1.93,99,0,1077.11052801
GEMS208,2018_Mar_19_1557,Jerry,PE,spatial_frequency,8,6,4,59-11;45-22;55-20;50-24,3,SimpleHill,55-20,81,11,selected,49-54,48-57;52-61;47-49;50-54;51-53;43-56,48-57,2.48,98,-1,1083.15308561
GEMS208,2018_Mar_19_1557,Jerry,PE,spatial_frequency,8,6,4,59-11;45-22;55-20;50-24,3,SimpleHill,55-20,81,12,selected,48-57,48-49;48-60;51-50;55-58;43-55;45-64,48-49,8.29,99,1,1094.99398258
GEMS208,2018_Mar_19_1557,Jerry,PE,spatial_frequency,8,6,4,59-11;45-22;55-20;50-24,3,SimpleHill,55-20,81,13,selected,48-49,50-46;53-47;47-54;45-43;50-45;48-56,50-45,2.81,99,0,1101.34825093
GEMS208,2018_Mar_19_1557,Jerry,PE,spatial_frequency,8,6,4,59-11;45-22;55-20;50-24,3,SimpleHill,55-20,81,14,selected,50-45,50-41;51-43;49-38;52-43;55-45;52-49,51-43,2.15,99,0,1107.07209704
GEMS208,2018_Mar_19_1557,Jerry,PE,spatial_frequency,8,6,4,59-11;45-22;55-20;50-24,3,SimpleHill,55-20,81,15,selected,51-43,53-45;48-50;52-40;49-43;46-49;50-50,50-50,1.6,100,1,1112.23107588
GEMS208,2018_Mar_19_1557,Jerry,PE,spatial_frequency,8,6,4,59-11;45-22;55-20;50-24,3,SimpleHill,55-20,81,16,selected,50-50,47-49;52-57;44-47;46-47;48-44;50-44,47-49,1.51,99,-1,1117.28840736
GEMS208,2018_Mar_19_1557,Jerry,PE,spatial_frequency,8,6,4,59-11;45-22;55-20;50-24,3,SimpleHill,55-20,81,17,selected,47-49,41-48;41-53;52-53;49-50;46-56;43-53,43-53,1.59,98,-1,1122.42457512
GEMS208,2018_Mar_19_1557,Jerry,PE,spatial_frequency,8,6,4,59-11;45-22;55-20;50-24,3,SimpleHill,55-20,81,18,selected,43-53,42-55;47-56;49-48;40-46;43-49;44-54,42-55,1.92,98,0,1127.89825501
GEMS208,2018_Mar_19_1557,Jerry,PE,spatial_frequency,8,6,4,59-11;45-22;55-20;50-24,3,SimpleHill,55-20,81,19,selected,42-55,44-61;38-61;46-54;39-60;40-59;38-55,38-55,2.09,96,-2,1133.55227994
GEMS208,2018_Mar_19_1557,Jerry,PE,spatial_frequency,8,6,4,59-11;45-22;55-20;50-24,3,SimpleHill,55-20,81,20,selected,38-55,41-59;34-52;39-62;42-57;40-62;40-49,40-62,2.45,95,-1,1139.57187634
GEMS208,2018_Mar_19_1557,Jerry,PE,spatial_frequency,8,6,4,59-11;45-22;55-20;50-24,3,SimpleHill,55-20,81,21,selected,40-62,43-58;39-60;47-63;40-55;39-56;35-68,40-55,1.25,97,2,1144.37268009
GEMS208,2018_Mar_19_1557,Jerry,PE,spatial_frequency,8,6,4,59-11;45-22;55-20;50-24,3,SimpleHill,55-20,81,22,selected,40-55,45-55;44-61;43-54;47-55;41-48;35-49,35-49,1.79,95,-2,1149.71804571
GEMS208,2018_Mar_19_1557,Jerry,PE,spatial_frequency,8,6,4,59-11;45-22;55-20;50-24,3,SimpleHill,55-20,81,23,selected,35-49,40-45;34-50;34-48;33-43;29-46;36-52,34-48,2.58,94,-1,1155.86108489
GEMS208,2018_Mar_19_1557,Jerry,PE,spatial_frequency,8,6,4,59-11;45-22;55-20;50-24,3,SimpleHill,55-20,81,24,selected,34-48,29-54;29-47;34-44;30-50;39-53;36-44,29-54,1.9,90,-4,1161.32931937
GEMS208,2018_Mar_19_1557,Jerry,PE,spatial_frequency,8,6,4,59-11;45-22;55-20;50-24,3,SimpleHill,55-20,81,25,selected,29-54,34-49;24-53;34-60;35-55;24-48;32-58,34-60,2.18,92,2,1167.05772072
GEMS208,2018_Mar_19_1557,Jerry,PE,spatial_frequency,8,6,4,59-11;45-22;55-20;50-24,3,SimpleHill,55-20,81,26,selected,34-60,33-62;28-60;29-62;37-63;33-63;29-54,29-62,3.02,88,-4,1173.63082973
GEMS208,2018_Mar_19_1557,Jerry,PE,spatial_frequency,8,6,4,59-11;45-22;55-20;50-24,3,SimpleHill,55-20,81,27,selected,29-62,28-55;27-67;33-61;32-68;30-67;31-63,33-61,2.48,91,3,1179.64750592
GEMS208,2018_Mar_19_1557,Jerry,PE,spatial_frequency,8,6,4,59-11;45-22;55-20;50-24,3,SimpleHill,55-20,81,28,selected,33-61,31-61;29-58;39-59;38-57;34-57;36-67,39-59,3.67,95,4,1186.84750624
GEMS208,2018_Mar_19_1557,Jerry,PE,spatial_frequency,8,6,4,59-11;45-22;55-20;50-24,3,SimpleHill,55-20,81,29,selected,39-59,32-62;46-60;40-56;44-56;39-66;39-51,44-56,2.02,98,3,1192.42396854
GEMS208,2018_Mar_19_1557,Jerry,PE,spatial_frequency,8,6,4,59-11;45-22;55-20;50-24,3,SimpleHill,55-20,81,30,selected,44-56,44-55;40-61;51-55;44-52;44-51;44-62,44-51,1.77,99,1,1197.75124988
GEMS208,2018_Mar_19_1557,Jerry,PE,spatial_frequency,8,6,4,59-11;45-22;55-20;50-24,3,SimpleHill,55-20,81,31,selected,44-51,38-56;37-53;50-55;44-51;38-49;47-58,38-56,1.4,96,-3,1202.68440364
GEMS208,2018_Mar_19_1557,Jerry,PE,spatial_frequency,8,6,4,59-11;45-22;55-20;50-24,3,SimpleHill,55-20,81,32,selected,38-56,40-50;41-62;38-62;34-56;43-51;39-50,41-62,1.12,95,-1,1207.36103928
GEMS208,2018_Mar_19_1557,Jerry,PE,spatial_frequency,8,6,4,59-11;45-22;55-20;50-24,3,SimpleHill,55-20,81,33,selected,41-62,45-60;41-60;39-61;40-61;46-56;40-68,40-61,1.54,95,0,1212.4731271
GEMS208,2018_Mar_19_1557,Jerry,PE,spatial_frequency,8,6,4,59-11;45-22;55-20;50-24,3,SimpleHill,55-20,81,34,selected,40-61,43-60;42-58;33-62;47-62;42-55;39-61,47-62,1.25,96,1,1217.27555948
GEMS208,2018_Mar_19_1557,Jerry,PE,spatial_frequency,8,6,4,59-11;45-22;55-20;50-24,3,SimpleHill,55-20,81,35,selected,47-62,42-61;42-56;47-54;44-60;43-68;52-63,42-61,2.02,96,0,1222.83983618
GEMS208,2018_Mar_19_1557,Jerry,PE,spatial_frequency,8,6,4,59-11;45-22;55-20;50-24,3,SimpleHill,55-20,81,36,selected,42-61,47-61;42-55;35-64;37-59;39-61;43-65,37-59,1.26,95,-1,1227.65499833
GEMS208,2018_Mar_19_1557,Jerry,PE,spatial_frequency,8,6,4,59-11;45-22;55-20;50-24,3,SimpleHill,55-20,81,37,selected,37-59,39-59;41-59;43-57;35-63;38-63;29-59,35-63,1.3,92,-3,1232.49939198
GEMS208,2018_Mar_19_1557,Jerry,PE,spatial_frequency,8,6,4,59-11;45-22;55-20;50-24,3,SimpleHill,55-20,81,38,selected,35-63,33-56;30-68;33-69;38-58;40-61;35-60,40-61,2.01,95,3,1238.06206085
GEMS208,2018_Mar_19_1557,Jerry,PE,spatial_frequency,8,6,4,59-11;45-22;55-20;50-24,3,SimpleHill,55-20,81,39,selected,40-61,45-55;38-56;39-59;35-67;42-54;40-56,39-59,2.98,95,0,1244.58747541
GEMS208,2018_Mar_19_1557,Jerry,PE,spatial_frequency,8,6,4,59-11;45-22;55-20;50-24,4,SimpleHill,50-24,86,0,selected,50-24,48-24;49-26;45-22;54-27;49-27;44-21,44-21,2.93,82,-4,1264.17896063
GEMS208,2018_Mar_19_1557,Jerry,PE,spatial_frequency,8,6,4,59-11;45-22;55-20;50-24,4,SimpleHill,50-24,86,1,selected,44-21,48-19;39-19;47-14;37-18;46-27;40-26,39-19,1.8,78,-4,1269.51011669
GEMS208,2018_Mar_19_1557,Jerry,PE,spatial_frequency,8,6,4,59-11;45-22;55-20;50-24,4,SimpleHill,50-24,86,2,selected,39-19,41-14;37-24;43-25;38-24;40-13;39-20,38-24,2.1,83,5,1275.17015104
GEMS208,2018_Mar_19_1557,Jerry,PE,spatial_frequency,8,6,4,59-11;45-22;55-20;50-24,4,SimpleHill,50-24,86,3,selected,38-24,39-27;33-26;35-29;41-30;38-29;43-25,41-30,1.9,90,7,1280.64011402
GEMS208,2018_Mar_19_1557,Jerry,PE,spatial_frequency,8,6,4,59-11;45-22;55-20;50-24,4,SimpleHill,50-24,86,4,selected,41-30,38-36;42-33;46-24;47-34;45-30;46-25,45-30,2.01,91,1,1286.21052113
GEMS208,2018_Mar_19_1557,Jerry,PE,spatial_frequency,8,6,4,59-11;45-22;55-20;50-24,4,SimpleHill,50-24,86,5,selected,45-30,41-34;48-30;52-31;53-30;48-35;45-27,41-34,1.68,93,2,1291.44137038
GEMS208,2018_Mar_19_1557,Jerry,PE,spatial_frequency,8,6,4,59-11;45-22;55-20;50-24,4,SimpleHill,50-24,86,6,selected,41-34,45-36;37-34;43-37;42-34;40-34;48-35,37-34,2.41,91,-2,1297.40880927
GEMS208,2018_Mar_19_1557,Jerry,PE,spatial_frequency,8,6,4,59-11;45-22;55-20;50-24,4,SimpleHill,50-24,86,7,selected,37-34,39-36;38-34;32-37;41-31;41-35;33-29,39-36,1.96,93,2,1302.91094733
GEMS208,2018_Mar_19_1557,Jerry,PE,spatial_frequency,8,6,4,59-11;45-22;55-20;50-24,4,SimpleHill,50-24,86,8,selected,39-36,36-29;37-37;42-42;38-32;40-30;36-41,37-37,3.29,93,0,1309.75564604
GEMS208,2018_Mar_19_1557,Jerry,PE,spatial_frequency,8,6,4,59-11;45-22;55-20;50-24,4,SimpleHill,50-24,86,9,selected,37-37,36-33;37-42;40-38;35-41;32-37;42-36,40-38,4.54,95,2,1317.85432101
GEMS208,2018_Mar_19_1557,Jerry,PE,spatial_frequency,8,6,4,59-11;45-22;55-20;50-24,4,SimpleHill,50-24,86,10,selected,40-38,38-45;39-44;42-34;40-40;46-40;48-38,48-38,2.55,97,2,1323.97138531
GEMS208,2018_Mar_19_1557,Jerry,PE,spatial_frequency,8,6,4,59-11;45-22;55-20;50-24,4,SimpleHill,50-24,86,11,selected,48-38,54-43;44-40;46-36;51-32;44-35;47-33,44-35,5.53,94,-3,1333.04536322
GEMS208,2018_Mar_19_1557,Jerry,PE,spatial_frequency,8,6,4,59-11;45-22;55-20;50-24,4,SimpleHill,50-24,86,12,selected,44-35,40-37;45-36;47-29;38-30;48-31;38-38,48-31,1.69,92,-2,1338.30584249
GEMS208,2018_Mar_19_1557,Jerry,PE,spatial_frequency,8,6,4,59-11;45-22;55-20;50-24,4,SimpleHill,50-24,86,13,selected,48-31,44-29;41-32;53-35;52-36;48-35;45-35,52-36,3.2,96,4,1345.04667272
GEMS208,2018_Mar_19_1557,Jerry,PE,spatial_frequency,8,6,4,59-11;45-22;55-20;50-24,4,SimpleHill,50-24,86,14,selected,52-36,57-31;48-36;53-29;53-32;52-44;49-30,48-36,2.46,96,0,1351.06465712
GEMS208,2018_Mar_19_1557,Jerry,PE,spatial_frequency,8,6,4,59-11;45-22;55-20;50-24,4,SimpleHill,50-24,86,15,selected,48-36,49-37;52-37;44-38;43-34;44-34;48-43,44-34,2.19,94,-2,1356.82704847
GEMS208,2018_Mar_19_1557,Jerry,PE,spatial_frequency,8,6,4,59-11;45-22;55-20;50-24,4,SimpleHill,50-24,86,16,selected,44-34,38-30;45-40;39-39;39-29;51-32;49-28,38-30,1.73,89,-5,1362.11374878
GEMS208,2018_Mar_19_1557,Jerry,PE,spatial_frequency,8,6,4,59-11;45-22;55-20;50-24,4,SimpleHill,50-24,86,17,selected,38-30,35-26;40-25;41-36;39-24;43-28;37-31,41-36,1.91,94,5,1367.57296785
GEMS208,2018_Mar_19_1557,Jerry,PE,spatial_frequency,8,6,4,59-11;45-22;55-20;50-24,4,SimpleHill,50-24,86,18,selected,41-36,45-41;42-33;44-40;37-40;46-31;37-42,44-40,1.95,97,3,1373.06795184
GEMS208,2018_Mar_19_1557,Jerry,PE,spatial_frequency,8,6,4,59-11;45-22;55-20;50-24,4,SimpleHill,50-24,86,19,selected,44-40,42-45;43-43;41-36;41-40;48-44;44-36,43-43,2.66,98,1,1379.28762122
GEMS208,2018_Mar_19_1557,Jerry,PE,spatial_frequency,8,6,4,59-11;45-22;55-20;50-24,4,SimpleHill,50-24,86,20,selected,43-43,37-41;37-42;40-36;39-48;40-41;43-38,40-41,2.74,96,-2,1385.58486442
GEMS208,2018_Mar_19_1557,Jerry,PE,spatial_frequency,8,6,4,59-11;45-22;55-20;50-24,4,SimpleHill,50-24,86,21,selected,40-41,38-36;47-42;41-40;42-40;41-34;40-38,47-42,2.11,98,2,1391.24443431
GEMS208,2018_Mar_19_1557,Jerry,PE,spatial_frequency,8,6,4,59-11;45-22;55-20;50-24,4,SimpleHill,50-24,86,22,selected,47-42,48-43;41-42;51-43;49-40;55-42;50-48,48-43,2.31,98,0,1397.12380097
GEMS208,2018_Mar_19_1557,Jerry,PE,spatial_frequency,8,6,4,59-11;45-22;55-20;50-24,4,SimpleHill,50-24,86,23,selected,48-43,43-40;47-39;43-37;48-41;45-36;41-43,48-41,1.51,98,0,1402.1976438
GEMS208,2018_Mar_19_1557,Jerry,PE,spatial_frequency,8,6,4,59-11;45-22;55-20;50-24,4,SimpleHill,50-24,86,24,selected,48-41,49-46;52-35;43-46;44-44;41-40;43-41,44-44,5.5,98,0,1411.25037267
GEMS208,2018_Mar_19_1557,Jerry,PE,spatial_frequency,8,6,4,59-11;45-22;55-20;50-24,4,SimpleHill,50-24,86,25,selected,44-44,50-41;43-47;42-37;49-42;47-45;38-45,50-41,1.08,98,0,1415.87498107
GEMS208,2018_Mar_19_1557,Jerry,PE,spatial_frequency,8,6,4,59-11;45-22;55-20;50-24,4,SimpleHill,50-24,86,26,selected,50-41,51-41;49-44;50-42;56-37;50-39;49-34,51-41,1.36,98,0,1420.78745717
GEMS208,2018_Mar_19_1557,Jerry,PE,spatial_frequency,8,6,4,59-11;45-22;55-20;50-24,4,SimpleHill,50-24,86,27,selected,51-41,44-42;53-35;55-41;46-47;55-45;54-47,55-45,1.32,99,1,1425.65943289
GEMS208,2018_Mar_19_1557,Jerry,PE,spatial_frequency,8,6,4,59-11;45-22;55-20;50-24,4,SimpleHill,50-24,86,28,selected,55-45,58-41;53-47;57-47;49-45;56-48;50-42,56-48,2.39,99,0,1431.61121285
GEMS208,2018_Mar_19_1557,Jerry,PE,spatial_frequency,8,6,4,59-11;45-22;55-20;50-24,4,SimpleHill,50-24,86,29,selected,56-48,50-48;53-47;51-45;58-47;49-51;57-43,49-51,1.67,99,0,1436.82594127
GEMS208,2018_Mar_19_1557,Jerry,PE,spatial_frequency,8,6,4,59-11;45-22;55-20;50-24,4,SimpleHill,50-24,86,30,selected,49-51,44-51;50-49;49-56;48-55;53-54;52-50,44-51,2.28,99,0,1442.65774024
GEMS208,2018_Mar_19_1557,Jerry,PE,spatial_frequency,8,6,4,59-11;45-22;55-20;50-24,4,SimpleHill,50-24,86,31,selected,44-51,39-52;38-49;41-46;43-47;40-48;38-47,39-52,1.42,97,-2,1447.63591312
GEMS208,2018_Mar_19_1557,Jerry,PE,spatial_frequency,8,6,4,59-11;45-22;55-20;50-24,4,SimpleHill,50-24,86,32,selected,39-52,32-49;44-57;39-54;45-55;33-53;39-59,39-54,3.09,97,0,1454.28254967
GEMS208,2018_Mar_19_1557,Jerry,PE,spatial_frequency,8,6,4,59-11;45-22;55-20;50-24,4,SimpleHill,50-24,86,33,selected,39-54,37-60;41-47;38-57;36-48;43-59;43-53,37-60,3.01,94,-3,1460.85982308
GEMS208,2018_Mar_19_1557,Jerry,PE,spatial_frequency,8,6,4,59-11;45-22;55-20;50-24,4,SimpleHill,50-24,86,34,selected,37-60,33-55;37-66;30-63;43-63;40-62;44-60,30-63,1.91,88,-6,1466.32438578
GEMS208,2018_Mar_19_1557,Jerry,PE,spatial_frequency,8,6,4,59-11;45-22;55-20;50-24,4,SimpleHill,50-24,86,35,selected,30-63,32-65;29-70;25-58;30-68;24-64;23-64,32-65,4.61,89,1,1474.50189543
GEMS208,2018_Mar_19_1557,Jerry,PE,spatial_frequency,8,6,4,59-11;45-22;55-20;50-24,4,SimpleHill,50-24,86,36,selected,32-65,29-68;34-64;31-67;31-66;26-69;28-60,29-68,5.12,84,-5,1483.15913024
GEMS208,2018_Mar_19_1557,Jerry,PE,spatial_frequency,8,6,4,59-11;45-22;55-20;50-24,4,SimpleHill,50-24,86,37,selected,29-68,24-65;34-69;31-68;27-66;23-70;31-69,27-66,3.28,84,0,1489.99572804
GEMS208,2018_Mar_19_1557,Jerry,PE,spatial_frequency,8,6,4,59-11;45-22;55-20;50-24,4,SimpleHill,50-24,86,38,selected,27-66,31-66;21-67;27-67;24-66;22-69;29-61,27-67,1.64,83,-1,1495.18496108
GEMS208,2018_Mar_19_1557,Jerry,PE,spatial_frequency,8,6,4,59-11;45-22;55-20;50-24,4,SimpleHill,50-24,86,39,selected,27-67,25-60;25-67;34-64;27-59;21-66;21-64,25-60,5.15,85,2,1503.89007248
