subj_id,date,computer,experimenter,instructions,sight_radius,n_gabors,landscape_ix,landscape_name,starting_pos,starting_score,trial,feedback,pos,stims,selected,rt,score,delta,exp_time
GEMS116,2018_Feb_28_1629,Elaine,MP,spatial_frequency,8,6,0,SpatialFrequencyBias,0-0,0,0,training,0-0,7-3;7-0;3-1;0-5;3-2;5-5,7-3,3.45,11,11,443.323816224
GEMS116,2018_Feb_28_1629,Elaine,MP,spatial_frequency,8,6,0,SpatialFrequencyBias,0-0,0,1,training,7-3,4-8;10-7;7-7;0-3;2-1;3-8,0-3,6.06,11,0,455.146175546
GEMS116,2018_Feb_28_1629,Elaine,MP,spatial_frequency,8,6,0,SpatialFrequencyBias,0-0,0,2,training,0-3,2-4;1-10;3-2;5-3;3-8;1-1,2-4,1.55,15,4,467.830155824
GEMS116,2018_Feb_28_1629,Elaine,MP,spatial_frequency,8,6,0,SpatialFrequencyBias,0-0,0,3,training,2-4,7-10;4-4;0-0;5-7;2-1;0-7,7-10,4.57,36,21,494.558184407
GEMS116,2018_Feb_28_1629,Elaine,MP,spatial_frequency,8,6,0,SpatialFrequencyBias,0-0,0,4,training,7-10,8-5;4-4;10-10;11-4;11-5;3-16,3-16,5.92,53,17,505.760766085
GEMS116,2018_Feb_28_1629,Elaine,MP,spatial_frequency,8,6,0,SpatialFrequencyBias,0-0,0,5,training,3-16,6-13;2-11;4-18;5-18;1-10;2-14,4-18,10.09,59,6,519.224792924
GEMS116,2018_Feb_28_1629,Elaine,MP,spatial_frequency,8,6,0,SpatialFrequencyBias,0-0,0,6,training,4-18,10-22;9-22;8-14;11-18;0-13;8-18,10-22,6.47,68,9,530.665736903
GEMS116,2018_Feb_28_1629,Elaine,MP,spatial_frequency,8,6,0,SpatialFrequencyBias,0-0,0,7,training,10-22,8-21;14-24;11-15;8-27;8-20;5-19,8-27,15.35,78,10,551.654640563
GEMS116,2018_Feb_28_1629,Elaine,MP,spatial_frequency,8,6,0,SpatialFrequencyBias,0-0,0,8,training,8-27,10-26;3-33;10-29;12-22;5-20;9-33,9-33,8.02,88,10,564.302523965
GEMS116,2018_Feb_28_1629,Elaine,MP,spatial_frequency,8,6,0,SpatialFrequencyBias,0-0,0,9,training,9-33,8-27;9-37;15-34;14-27;8-40;4-36,4-36,9.29,92,4,577.03510843
GEMS116,2018_Feb_28_1629,Elaine,MP,spatial_frequency,8,6,0,SpatialFrequencyBias,0-0,0,10,training,4-36,1-37;3-31;8-32;10-31;10-35;8-31,3-31,4.87,85,-7,587.296352573
GEMS116,2018_Feb_28_1629,Elaine,MP,spatial_frequency,8,6,0,SpatialFrequencyBias,0-0,0,11,training,3-31,2-26;4-25;8-32;4-30;11-31;3-39,3-39,5.55,95,10,602.577643495
GEMS116,2018_Feb_28_1629,Elaine,MP,spatial_frequency,8,6,0,SpatialFrequencyBias,0-0,0,12,training,3-39,0-44;0-39;8-34;3-34;6-41;1-45,6-41,12.32,96,1,618.326477157
GEMS116,2018_Feb_28_1629,Elaine,MP,spatial_frequency,8,6,0,SpatialFrequencyBias,0-0,0,13,training,6-41,0-46;7-35;4-44;6-43;0-43;12-41,0-46,4.33,99,3,626.363041049
GEMS116,2018_Feb_28_1629,Elaine,MP,spatial_frequency,8,6,0,SpatialFrequencyBias,0-0,0,14,training,0-46,1-50;3-51;0-47;6-45;6-44;7-46,0-47,10.95,99,0,640.35515428
GEMS116,2018_Feb_28_1629,Elaine,MP,spatial_frequency,8,6,0,SpatialFrequencyBias,0-0,0,15,training,0-47,5-49;4-51;0-54;2-47;3-40;7-44,5-49,5.42,99,0,650.01026666
GEMS116,2018_Feb_28_1629,Elaine,MP,spatial_frequency,8,6,0,SpatialFrequencyBias,0-0,0,16,training,5-49,4-52;4-49;6-56;8-56;6-54;2-50,6-54,18.99,99,0,672.786366155
GEMS116,2018_Feb_28_1629,Elaine,MP,spatial_frequency,8,6,0,SpatialFrequencyBias,0-0,0,17,training,6-54,7-52;2-52;5-49;7-56;9-53;13-57,13-57,13.02,98,-1,692.210847116
GEMS116,2018_Feb_28_1629,Elaine,MP,spatial_frequency,8,6,0,SpatialFrequencyBias,0-0,0,18,training,13-57,11-58;10-54;13-61;18-53;8-62;10-60,8-62,9.49,94,-4,705.328352581
GEMS116,2018_Feb_28_1629,Elaine,MP,spatial_frequency,8,6,0,SpatialFrequencyBias,0-0,0,19,training,8-62,12-57;9-62;7-68;5-62;12-65;7-60,12-57,4.08,98,4,713.879972523
GEMS116,2018_Feb_28_1629,Elaine,MP,spatial_frequency,8,6,0,SpatialFrequencyBias,0-0,0,20,training,12-57,11-52;14-54;10-56;11-51;11-57;8-56,10-56,5.91,98,0,723.376190466
GEMS116,2018_Feb_28_1629,Elaine,MP,spatial_frequency,8,6,0,SpatialFrequencyBias,0-0,0,21,training,10-56,7-51;5-54;11-53;10-57;16-55;5-51,7-51,13.51,99,1,741.034944222
GEMS116,2018_Feb_28_1629,Elaine,MP,spatial_frequency,8,6,0,SpatialFrequencyBias,0-0,0,22,training,7-51,12-46;7-43;7-59;9-52;2-53;12-52,7-59,9.95,96,-3,758.524637071
GEMS116,2018_Feb_28_1629,Elaine,MP,spatial_frequency,8,6,0,SpatialFrequencyBias,0-0,0,23,training,7-59,15-59;14-56;10-64;0-58;10-54;11-57,14-56,5.44,98,2,768.604867397
GEMS116,2018_Feb_28_1629,Elaine,MP,spatial_frequency,8,6,0,SpatialFrequencyBias,0-0,0,24,training,14-56,18-61;20-53;17-56;18-50;8-52;12-49,8-52,3.2,99,1,775.875257555
GEMS116,2018_Feb_28_1629,Elaine,MP,spatial_frequency,8,6,0,SpatialFrequencyBias,0-0,0,25,training,8-52,4-56;13-50;3-54;9-51;9-56;3-50,4-56,9.07,98,-1,788.740256452
GEMS116,2018_Feb_28_1629,Elaine,MP,spatial_frequency,8,6,0,SpatialFrequencyBias,0-0,0,26,training,4-56,5-53;3-58;2-61;1-61;2-52;3-54,3-54,6.95,99,1,798.950330864
GEMS116,2018_Feb_28_1629,Elaine,MP,spatial_frequency,8,6,0,SpatialFrequencyBias,0-0,0,27,training,3-54,4-48;10-53;1-61;7-57;2-57;4-58,1-61,11.11,95,-4,815.10911679
GEMS116,2018_Feb_28_1629,Elaine,MP,spatial_frequency,8,6,0,SpatialFrequencyBias,0-0,0,28,training,1-61,2-65;6-55;7-62;3-56;0-58;5-59,6-55,2.44,99,4,821.041728911
GEMS116,2018_Feb_28_1629,Elaine,MP,spatial_frequency,8,6,0,SpatialFrequencyBias,0-0,0,29,training,6-55,13-52;2-50;7-50;4-50;11-53;9-52,13-52,4.15,99,0,827.798774876
GEMS116,2018_Feb_28_1629,Elaine,MP,spatial_frequency,8,6,1,SimpleHill,0-0,0,0,selected,0-0,3-4;7-3;6-4;2-1;3-6;4-4,4-4,4.9,15,15,870.181068233
GEMS116,2018_Feb_28_1629,Elaine,MP,spatial_frequency,8,6,1,SimpleHill,0-0,0,1,selected,4-4,1-0;2-6;9-5;4-11;9-4;9-10,4-11,5.89,27,12,879.6400232
GEMS116,2018_Feb_28_1629,Elaine,MP,spatial_frequency,8,6,1,SimpleHill,0-0,0,2,selected,4-11,11-13;5-17;2-8;6-4;10-13;3-13,5-17,5.38,37,10,888.581732042
GEMS116,2018_Feb_28_1629,Elaine,MP,spatial_frequency,8,6,1,SimpleHill,0-0,0,3,selected,5-17,5-21;4-22;2-22;4-12;6-20;2-17,2-22,7.15,38,1,899.318898637
GEMS116,2018_Feb_28_1629,Elaine,MP,spatial_frequency,8,6,1,SimpleHill,0-0,0,4,selected,2-22,1-20;5-18;7-27;1-27;4-20;2-29,5-18,2.9,39,1,905.790141331
GEMS116,2018_Feb_28_1629,Elaine,MP,spatial_frequency,8,6,1,SimpleHill,0-0,0,5,selected,5-18,11-13;8-24;8-15;0-18;6-17;0-17,6-17,2.2,39,0,911.560323588
GEMS116,2018_Feb_28_1629,Elaine,MP,spatial_frequency,8,6,1,SimpleHill,0-0,0,6,selected,6-17,11-12;9-11;5-16;8-13;3-18;11-22,11-22,2.49,53,14,917.625935592
GEMS116,2018_Feb_28_1629,Elaine,MP,spatial_frequency,8,6,1,SimpleHill,0-0,0,7,selected,11-22,15-24;11-30;14-24;16-22;15-28;17-22,17-22,2.17,62,9,923.373107011
GEMS116,2018_Feb_28_1629,Elaine,MP,spatial_frequency,8,6,1,SimpleHill,0-0,0,8,selected,17-22,19-15;15-17;22-27;17-30;15-23;16-25,17-30,7.33,70,8,934.267673209
GEMS116,2018_Feb_28_1629,Elaine,MP,spatial_frequency,8,6,1,SimpleHill,0-0,0,9,selected,17-30,18-29;20-26;14-27;21-34;14-32;12-33,21-34,3.72,78,8,941.565171715
GEMS116,2018_Feb_28_1629,Elaine,MP,spatial_frequency,8,6,1,SimpleHill,0-0,0,10,selected,21-34,14-31;17-36;26-35;24-38;15-32;21-35,14-31,3.67,66,-12,948.816513145
GEMS116,2018_Feb_28_1629,Elaine,MP,spatial_frequency,8,6,1,SimpleHill,0-0,0,11,selected,14-31,9-36;9-25;9-30;17-29;15-31;22-31,9-25,2.85,53,-13,955.224805408
GEMS116,2018_Feb_28_1629,Elaine,MP,spatial_frequency,8,6,1,SimpleHill,0-0,0,12,selected,9-25,2-22;16-27;9-25;4-21;9-30;6-28,6-28,5.21,51,-2,964.012693924
GEMS116,2018_Feb_28_1629,Elaine,MP,spatial_frequency,8,6,1,SimpleHill,0-0,0,13,selected,6-28,3-26;4-26;5-35;3-23;13-28;10-24,3-26,1.71,44,-7,969.294360635
GEMS116,2018_Feb_28_1629,Elaine,MP,spatial_frequency,8,6,1,SimpleHill,0-0,0,14,selected,3-26,1-31;3-20;2-20;10-28;2-28;6-29,6-29,3.97,52,8,976.832177851
GEMS116,2018_Feb_28_1629,Elaine,MP,spatial_frequency,8,6,1,SimpleHill,0-0,0,15,selected,6-29,0-29;5-35;6-29;7-24;8-32;2-28,5-35,3.27,55,3,983.689028784
GEMS116,2018_Feb_28_1629,Elaine,MP,spatial_frequency,8,6,1,SimpleHill,0-0,0,16,selected,5-35,7-36;5-35;1-34;3-38;2-28;0-29,3-38,6.35,52,-3,993.616862238
GEMS116,2018_Feb_28_1629,Elaine,MP,spatial_frequency,8,6,1,SimpleHill,0-0,0,17,selected,3-38,4-35;9-40;0-43;5-43;3-33;6-44,9-40,2.92,64,12,1000.10027518
GEMS116,2018_Feb_28_1629,Elaine,MP,spatial_frequency,8,6,1,SimpleHill,0-0,0,18,selected,9-40,2-41;5-34;7-34;8-36;14-44;4-37,14-44,3.88,73,9,1007.55396078
GEMS116,2018_Feb_28_1629,Elaine,MP,spatial_frequency,8,6,1,SimpleHill,0-0,0,19,selected,14-44,7-43;12-38;19-48;15-47;18-45;19-47,18-45,1.83,79,6,1012.95069897
GEMS116,2018_Feb_28_1629,Elaine,MP,spatial_frequency,8,6,1,SimpleHill,0-0,0,20,selected,18-45,13-43;24-42;21-44;18-48;12-42;23-49,24-42,3.9,85,6,1020.42573124
GEMS116,2018_Feb_28_1629,Elaine,MP,spatial_frequency,8,6,1,SimpleHill,0-0,0,21,selected,24-42,26-49;24-41;25-45;19-36;29-37;31-40,26-49,3.98,88,3,1027.96974002
GEMS116,2018_Feb_28_1629,Elaine,MP,spatial_frequency,8,6,1,SimpleHill,0-0,0,22,selected,26-49,28-53;24-49;20-48;26-53;25-43;31-54,28-53,8.19,90,2,1039.72564261
GEMS116,2018_Feb_28_1629,Elaine,MP,spatial_frequency,8,6,1,SimpleHill,0-0,0,23,selected,28-53,22-48;35-55;32-51;31-57;30-51;33-47,22-48,8.39,84,-6,1051.6775208
GEMS116,2018_Feb_28_1629,Elaine,MP,spatial_frequency,8,6,1,SimpleHill,0-0,0,24,selected,22-48,24-41;27-44;19-53;19-51;22-48;25-55,19-53,5.28,80,-4,1060.5401635
GEMS116,2018_Feb_28_1629,Elaine,MP,spatial_frequency,8,6,1,SimpleHill,0-0,0,25,selected,19-53,15-58;21-50;13-56;16-48;14-59;19-47,15-58,1.75,74,-6,1065.86840245
GEMS116,2018_Feb_28_1629,Elaine,MP,spatial_frequency,8,6,1,SimpleHill,0-0,0,26,selected,15-58,20-52;20-54;11-61;17-55;19-56;10-54,20-52,3.87,81,7,1073.31920305
GEMS116,2018_Feb_28_1629,Elaine,MP,spatial_frequency,8,6,1,SimpleHill,0-0,0,27,selected,20-52,16-47;27-52;14-56;15-53;18-56;20-45,27-52,3.01,89,8,1079.89406909
GEMS116,2018_Feb_28_1629,Elaine,MP,spatial_frequency,8,6,1,SimpleHill,0-0,0,28,selected,27-52,33-52;31-51;25-47;25-46;30-53;32-51,25-47,3.33,87,-2,1086.79365499
GEMS116,2018_Feb_28_1629,Elaine,MP,spatial_frequency,8,6,1,SimpleHill,0-0,0,29,selected,25-47,23-40;21-41;28-49;30-53;32-48;27-48,27-48,2.71,89,2,1093.080069
GEMS116,2018_Feb_28_1629,Elaine,MP,spatial_frequency,8,6,1,SimpleHill,0-0,0,30,selected,27-48,22-48;25-50;32-49;28-46;29-48;22-44,25-50,6.07,87,-2,1102.7394479
GEMS116,2018_Feb_28_1629,Elaine,MP,spatial_frequency,8,6,1,SimpleHill,0-0,0,31,selected,25-50,27-47;27-51;25-48;23-43;29-52;18-49,27-47,4.68,89,2,1110.98476582
GEMS116,2018_Feb_28_1629,Elaine,MP,spatial_frequency,8,6,1,SimpleHill,0-0,0,32,selected,27-47,25-52;25-47;29-45;21-52;24-51;21-43,21-43,10.23,82,-7,1124.78850694
GEMS116,2018_Feb_28_1629,Elaine,MP,spatial_frequency,8,6,1,SimpleHill,0-0,0,33,selected,21-43,20-49;19-41;16-41;27-43;19-43;22-45,19-41,2.62,79,-3,1130.97221241
GEMS116,2018_Feb_28_1629,Elaine,MP,spatial_frequency,8,6,1,SimpleHill,0-0,0,34,selected,19-41,15-47;18-40;14-47;21-44;21-39;17-48,18-40,2.44,77,-2,1136.97903968
GEMS116,2018_Feb_28_1629,Elaine,MP,spatial_frequency,8,6,1,SimpleHill,0-0,0,35,selected,18-40,11-40;16-39;21-46;14-34;12-36;11-38,11-40,2.26,67,-10,1142.79420459
GEMS116,2018_Feb_28_1629,Elaine,MP,spatial_frequency,8,6,1,SimpleHill,0-0,0,36,selected,11-40,5-42;12-36;11-48;16-36;14-46;9-33,11-48,4.53,69,2,1150.86940466
GEMS116,2018_Feb_28_1629,Elaine,MP,spatial_frequency,8,6,1,SimpleHill,0-0,0,37,selected,11-48,8-47;18-45;9-49;11-54;12-53;18-50,9-49,5.41,66,-3,1159.84800036
GEMS116,2018_Feb_28_1629,Elaine,MP,spatial_frequency,8,6,1,SimpleHill,0-0,0,38,selected,9-49,7-56;5-54;16-46;10-46;10-49;10-54,16-46,6.4,76,10,1169.80245178
GEMS116,2018_Feb_28_1629,Elaine,MP,spatial_frequency,8,6,1,SimpleHill,0-0,0,39,selected,16-46,19-40;23-45;22-45;15-50;17-44;11-40,23-45,4.04,84,8,1177.41122463
GEMS116,2018_Feb_28_1629,Elaine,MP,spatial_frequency,8,6,2,SimpleHill,0-0,0,0,selected,0-0,5-6;0-1;1-3;6-5;0-7;3-0,0-7,3.69,13,13,1197.37495907
GEMS116,2018_Feb_28_1629,Elaine,MP,spatial_frequency,8,6,2,SimpleHill,0-0,0,1,selected,0-7,2-8;0-12;2-6;3-7;1-8;2-7,1-8,1.17,16,3,1202.12380073
GEMS116,2018_Feb_28_1629,Elaine,MP,spatial_frequency,8,6,2,SimpleHill,0-0,0,2,selected,1-8,8-6;2-3;4-13;6-14;5-12;0-9,2-3,2.84,9,-7,1208.53745359
GEMS116,2018_Feb_28_1629,Elaine,MP,spatial_frequency,8,6,2,SimpleHill,0-0,0,3,selected,2-3,7-8;4-7;0-4;2-1;0-9;3-6,4-7,2.05,20,11,1214.16949591
GEMS116,2018_Feb_28_1629,Elaine,MP,spatial_frequency,8,6,2,SimpleHill,0-0,0,4,selected,4-7,8-5;4-9;9-6;1-13;11-8;4-14,8-5,3.12,24,4,1220.86444226
GEMS116,2018_Feb_28_1629,Elaine,MP,spatial_frequency,8,6,2,SimpleHill,0-0,0,5,selected,8-5,15-7;14-3;10-12;8-11;14-4;3-7,10-12,4.47,39,15,1228.89802416
GEMS116,2018_Feb_28_1629,Elaine,MP,spatial_frequency,8,6,2,SimpleHill,0-0,0,6,selected,10-12,10-18;8-19;11-6;4-17;16-13;8-6,8-19,2.62,45,6,1235.08146684
GEMS116,2018_Feb_28_1629,Elaine,MP,spatial_frequency,8,6,2,SimpleHill,0-0,0,7,selected,8-19,13-21;6-18;6-15;4-24;15-16;15-19,15-16,2.8,52,7,1241.4643767
GEMS116,2018_Feb_28_1629,Elaine,MP,spatial_frequency,8,6,2,SimpleHill,0-0,0,8,selected,15-16,17-15;16-11;12-19;12-12;18-22;9-20,9-20,2.84,48,-4,1247.86912746
GEMS116,2018_Feb_28_1629,Elaine,MP,spatial_frequency,8,6,2,SimpleHill,0-0,0,9,selected,9-20,12-23;6-22;13-24;2-19;9-21;15-20,6-22,3.07,45,-3,1254.50716608
GEMS116,2018_Feb_28_1629,Elaine,MP,spatial_frequency,8,6,2,SimpleHill,0-0,0,10,selected,6-22,7-18;11-28;0-18;6-27;8-20;1-20,11-28,1.83,59,14,1259.9066305
GEMS116,2018_Feb_28_1629,Elaine,MP,spatial_frequency,8,6,2,SimpleHill,0-0,0,11,selected,11-28,9-24;14-21;10-34;10-22;13-31;16-32,10-34,5.11,62,3,1268.58159696
GEMS116,2018_Feb_28_1629,Elaine,MP,spatial_frequency,8,6,2,SimpleHill,0-0,0,12,selected,10-34,8-40;15-30;13-41;6-28;5-35;5-31,13-41,3.23,71,9,1275.3706631
GEMS116,2018_Feb_28_1629,Elaine,MP,spatial_frequency,8,6,2,SimpleHill,0-0,0,13,selected,13-41,14-43;15-47;13-39;15-38;9-42;8-43,15-38,2.84,72,1,1281.77128146
GEMS116,2018_Feb_28_1629,Elaine,MP,spatial_frequency,8,6,2,SimpleHill,0-0,0,14,selected,15-38,16-32;13-37;18-31;14-36;17-33;14-32,14-36,4.77,70,-2,1290.1189494
GEMS116,2018_Feb_28_1629,Elaine,MP,spatial_frequency,8,6,2,SimpleHill,0-0,0,15,selected,14-36,7-38;19-32;13-41;7-33;15-38;19-36,19-32,2.51,74,4,1296.19479574
GEMS116,2018_Feb_28_1629,Elaine,MP,spatial_frequency,8,6,2,SimpleHill,0-0,0,16,selected,19-32,17-27;22-25;14-32;15-37;23-35;22-34,22-34,4.06,79,5,1303.80728263
GEMS116,2018_Feb_28_1629,Elaine,MP,spatial_frequency,8,6,2,SimpleHill,0-0,0,17,selected,22-34,17-40;28-36;24-34;24-38;20-40;19-32,17-40,3.67,76,-3,1311.04704565
GEMS116,2018_Feb_28_1629,Elaine,MP,spatial_frequency,8,6,2,SimpleHill,0-0,0,18,selected,17-40,14-44;22-36;12-40;12-43;14-46;11-39,22-36,7.63,80,4,1322.24238811
GEMS116,2018_Feb_28_1629,Elaine,MP,spatial_frequency,8,6,2,SimpleHill,0-0,0,19,selected,22-36,17-30;19-35;26-40;27-39;21-38;18-32,17-30,1.66,70,-10,1327.48251124
GEMS116,2018_Feb_28_1629,Elaine,MP,spatial_frequency,8,6,2,SimpleHill,0-0,0,20,selected,17-30,20-25;14-31;19-36;15-25;13-33;17-29,19-36,2.76,76,6,1333.80678616
GEMS116,2018_Feb_28_1629,Elaine,MP,spatial_frequency,8,6,2,SimpleHill,0-0,0,21,selected,19-36,24-35;21-43;13-32;22-30;12-39;23-39,12-39,3.98,68,-8,1341.35410822
GEMS116,2018_Feb_28_1629,Elaine,MP,spatial_frequency,8,6,2,SimpleHill,0-0,0,22,selected,12-39,5-40;11-32;8-44;8-38;9-32;13-36,5-40,1.3,57,-11,1346.21388896
GEMS116,2018_Feb_28_1629,Elaine,MP,spatial_frequency,8,6,2,SimpleHill,0-0,0,23,selected,5-40,7-43;3-40;1-35;8-43;11-38;6-37,1-35,2.63,47,-10,1352.41872697
GEMS116,2018_Feb_28_1629,Elaine,MP,spatial_frequency,8,6,2,SimpleHill,0-0,0,24,selected,1-35,0-37;1-28;3-42;7-35;1-42;7-37,7-37,1.13,59,12,1357.1467578
GEMS116,2018_Feb_28_1629,Elaine,MP,spatial_frequency,8,6,2,SimpleHill,0-0,0,25,selected,7-37,5-37;1-37;9-40;13-42;10-32;5-36,5-36,0.88,55,-4,1361.60122378
GEMS116,2018_Feb_28_1629,Elaine,MP,spatial_frequency,8,6,2,SimpleHill,0-0,0,26,selected,5-36,4-33;5-33;6-37;8-33;0-32;13-36,5-33,3.23,53,-2,1368.40366404
GEMS116,2018_Feb_28_1629,Elaine,MP,spatial_frequency,8,6,2,SimpleHill,0-0,0,27,selected,5-33,0-32;0-35;13-33;10-32;0-33;8-26,13-33,1.09,66,13,1373.07398979
GEMS116,2018_Feb_28_1629,Elaine,MP,spatial_frequency,8,6,2,SimpleHill,0-0,0,28,selected,13-33,15-34;7-28;20-31;9-37;13-38;8-35,15-34,2.34,70,4,1378.96312178
GEMS116,2018_Feb_28_1629,Elaine,MP,spatial_frequency,8,6,2,SimpleHill,0-0,0,29,selected,15-34,12-36;20-32;16-38;10-28;16-27;12-41,20-32,3.77,75,5,1386.30901929
GEMS116,2018_Feb_28_1629,Elaine,MP,spatial_frequency,8,6,2,SimpleHill,0-0,0,30,selected,20-32,16-27;15-37;24-30;21-27;15-35;22-33,21-27,1.45,72,-3,1391.33770826
GEMS116,2018_Feb_28_1629,Elaine,MP,spatial_frequency,8,6,2,SimpleHill,0-0,0,31,selected,21-27,22-30;17-28;18-31;18-26;16-24;24-24,18-31,2.75,72,0,1397.64293957
GEMS116,2018_Feb_28_1629,Elaine,MP,spatial_frequency,8,6,2,SimpleHill,0-0,0,32,selected,18-31,18-25;22-31;15-27;15-31;25-32;17-27,22-31,2.41,77,5,1403.62649511
GEMS116,2018_Feb_28_1629,Elaine,MP,spatial_frequency,8,6,2,SimpleHill,0-0,0,33,selected,22-31,26-37;23-25;19-30;21-24;25-30;26-32,25-30,3.58,79,2,1410.78345203
GEMS116,2018_Feb_28_1629,Elaine,MP,spatial_frequency,8,6,2,SimpleHill,0-0,0,34,selected,25-30,25-34;25-24;23-24;24-26;28-25;23-35,25-24,3.75,73,-6,1418.12008797
GEMS116,2018_Feb_28_1629,Elaine,MP,spatial_frequency,8,6,2,SimpleHill,0-0,0,35,selected,25-24,26-20;28-17;25-20;26-27;21-23;27-29,21-23,7.81,68,-5,1429.49862504
GEMS116,2018_Feb_28_1629,Elaine,MP,spatial_frequency,8,6,2,SimpleHill,0-0,0,36,selected,21-23,21-17;17-25;18-29;16-25;15-19;26-27,17-25,2.18,65,-3,1435.23489089
GEMS116,2018_Feb_28_1629,Elaine,MP,spatial_frequency,8,6,2,SimpleHill,0-0,0,37,selected,17-25,17-33;22-25;22-29;23-22;10-24;17-31,22-25,4.35,71,6,1443.15107041
GEMS116,2018_Feb_28_1629,Elaine,MP,spatial_frequency,8,6,2,SimpleHill,0-0,0,38,selected,22-25,26-24;26-28;16-21;25-19;16-26;20-27,25-19,2.25,68,-3,1448.95784921
GEMS116,2018_Feb_28_1629,Elaine,MP,spatial_frequency,8,6,2,SimpleHill,0-0,0,39,selected,25-19,18-18;23-24;21-15;24-12;26-16;26-18,21-15,3.68,58,-10,1456.20987916
GEMS116,2018_Feb_28_1629,Elaine,MP,spatial_frequency,8,6,3,SimpleHill,0-0,0,0,selected,0-0,5-2;5-4;2-4;5-0;6-1;3-5,5-4,5.38,17,17,1476.16782599
GEMS116,2018_Feb_28_1629,Elaine,MP,spatial_frequency,8,6,3,SimpleHill,0-0,0,1,selected,5-4,5-10;8-6;4-9;2-7;9-2;3-2,5-10,4.62,27,10,1484.3522043
GEMS116,2018_Feb_28_1629,Elaine,MP,spatial_frequency,8,6,3,SimpleHill,0-0,0,2,selected,5-10,6-6;10-6;7-10;7-6;3-10;1-16,1-16,8.93,28,1,1496.85015683
GEMS116,2018_Feb_28_1629,Elaine,MP,spatial_frequency,8,6,3,SimpleHill,0-0,0,3,selected,1-16,1-13;2-11;6-19;3-23;5-15;3-20,2-11,2.2,23,-5,1502.62066494
GEMS116,2018_Feb_28_1629,Elaine,MP,spatial_frequency,8,6,3,SimpleHill,0-0,0,4,selected,2-11,5-13;2-7;4-8;4-10;2-18;6-16,2-18,6.61,33,10,1512.80532814
GEMS116,2018_Feb_28_1629,Elaine,MP,spatial_frequency,8,6,3,SimpleHill,0-0,0,5,selected,2-18,1-23;8-15;4-14;5-17;6-15;6-14,5-17,4.52,37,4,1520.88833815
GEMS116,2018_Feb_28_1629,Elaine,MP,spatial_frequency,8,6,3,SimpleHill,0-0,0,6,selected,5-17,4-22;8-17;2-18;5-11;0-22;6-24,2-18,4.32,33,-4,1528.76407585
GEMS116,2018_Feb_28_1629,Elaine,MP,spatial_frequency,8,6,3,SimpleHill,0-0,0,7,selected,2-18,2-19;3-12;2-24;9-18;4-24;8-18,2-24,7.05,40,7,1539.3797563
GEMS116,2018_Feb_28_1629,Elaine,MP,spatial_frequency,8,6,3,SimpleHill,0-0,0,8,selected,2-24,4-21;1-30;1-20;5-21;3-22;5-31,4-21,3.47,40,0,1546.43471113
GEMS116,2018_Feb_28_1629,Elaine,MP,spatial_frequency,8,6,3,SimpleHill,0-0,0,9,selected,4-21,1-18;7-19;3-21;4-21;6-28;12-21,3-21,2.9,39,-1,1552.89853599
GEMS116,2018_Feb_28_1629,Elaine,MP,spatial_frequency,8,6,3,SimpleHill,0-0,0,10,selected,3-21,4-19;1-21;0-24;9-22;10-20;3-21,1-21,3.75,35,-4,1560.22188392
GEMS116,2018_Feb_28_1629,Elaine,MP,spatial_frequency,8,6,3,SimpleHill,0-0,0,11,selected,1-21,5-24;1-26;3-23;8-20;2-24;4-16,5-24,2.41,45,10,1566.2205805
GEMS116,2018_Feb_28_1629,Elaine,MP,spatial_frequency,8,6,3,SimpleHill,0-0,0,12,selected,5-24,4-17;1-24;11-19;0-25;3-20;12-23,12-23,3.9,56,11,1573.67581439
GEMS116,2018_Feb_28_1629,Elaine,MP,spatial_frequency,8,6,3,SimpleHill,0-0,0,13,selected,12-23,8-24;9-30;7-23;10-24;11-23;13-25,9-30,4.56,58,2,1581.80871152
GEMS116,2018_Feb_28_1629,Elaine,MP,spatial_frequency,8,6,3,SimpleHill,0-0,0,14,selected,9-30,4-24;8-26;11-35;6-31;9-37;8-32,11-35,5.28,65,7,1590.65349879
GEMS116,2018_Feb_28_1629,Elaine,MP,spatial_frequency,8,6,3,SimpleHill,0-0,0,15,selected,11-35,8-42;16-38;11-35;14-41;10-37;5-37,11-35,9.99,65,0,1604.2109201
GEMS116,2018_Feb_28_1629,Elaine,MP,spatial_frequency,8,6,3,SimpleHill,0-0,0,16,selected,11-35,17-30;5-30;10-30;13-36;13-39;5-31,5-30,3.14,51,-14,1610.90857923
GEMS116,2018_Feb_28_1629,Elaine,MP,spatial_frequency,8,6,3,SimpleHill,0-0,0,17,selected,5-30,5-37;8-30;7-27;2-36;3-29;7-37,5-37,3.2,56,5,1617.69469091
GEMS116,2018_Feb_28_1629,Elaine,MP,spatial_frequency,8,6,3,SimpleHill,0-0,0,18,selected,5-37,2-41;0-38;0-36;8-43;12-40;8-41,2-41,7.38,52,-4,1628.64675828
GEMS116,2018_Feb_28_1629,Elaine,MP,spatial_frequency,8,6,3,SimpleHill,0-0,0,19,selected,2-41,7-47;0-42;8-43;3-40;8-36;0-34,7-47,3.27,62,10,1635.50383871
GEMS116,2018_Feb_28_1629,Elaine,MP,spatial_frequency,8,6,3,SimpleHill,0-0,0,20,selected,7-47,0-44;2-49;1-42;6-44;10-46;2-45,10-46,5.13,67,5,1644.21129301
GEMS116,2018_Feb_28_1629,Elaine,MP,spatial_frequency,8,6,3,SimpleHill,0-0,0,21,selected,10-46,15-43;5-50;7-53;5-43;3-45;5-41,15-43,5.69,74,7,1653.47163321
GEMS116,2018_Feb_28_1629,Elaine,MP,spatial_frequency,8,6,3,SimpleHill,0-0,0,22,selected,15-43,15-41;14-43;20-42;19-48;12-39;15-43,15-43,3.85,74,0,1660.88936789
GEMS116,2018_Feb_28_1629,Elaine,MP,spatial_frequency,8,6,3,SimpleHill,0-0,0,23,selected,15-43,17-45;22-40;11-41;17-36;10-44;20-45,11-41,3.91,67,-7,1668.37776116
GEMS116,2018_Feb_28_1629,Elaine,MP,spatial_frequency,8,6,3,SimpleHill,0-0,0,24,selected,11-41,13-36;14-44;15-45;15-42;6-46;16-40,14-44,3.51,73,6,1675.45761538
GEMS116,2018_Feb_28_1629,Elaine,MP,spatial_frequency,8,6,3,SimpleHill,0-0,0,25,selected,14-44,9-47;15-49;14-42;16-47;11-39;12-39,9-47,4.4,66,-7,1683.44365549
GEMS116,2018_Feb_28_1629,Elaine,MP,spatial_frequency,8,6,3,SimpleHill,0-0,0,26,selected,9-47,10-45;16-50;6-43;15-48;17-47;15-50,17-47,4.03,78,12,1691.03764485
GEMS116,2018_Feb_28_1629,Elaine,MP,spatial_frequency,8,6,3,SimpleHill,0-0,0,27,selected,17-47,15-45;21-44;16-45;20-41;14-51;15-42,15-42,3.36,74,-4,1697.96420273
GEMS116,2018_Feb_28_1629,Elaine,MP,spatial_frequency,8,6,3,SimpleHill,0-0,0,28,selected,15-42,19-43;20-46;14-40;11-41;15-44;22-40,14-40,4.59,72,-2,1706.12208856
GEMS116,2018_Feb_28_1629,Elaine,MP,spatial_frequency,8,6,3,SimpleHill,0-0,0,29,selected,14-40,17-47;9-43;10-43;10-44;13-35;19-35,9-43,0.99,65,-7,1710.69151206
GEMS116,2018_Feb_28_1629,Elaine,MP,spatial_frequency,8,6,3,SimpleHill,0-0,0,30,selected,9-43,7-38;8-42;16-41;5-41;4-47;8-36,5-41,5.23,57,-8,1719.47791663
GEMS116,2018_Feb_28_1629,Elaine,MP,spatial_frequency,8,6,3,SimpleHill,0-0,0,31,selected,5-41,9-41;9-40;1-47;8-34;5-36;13-41,9-41,2.76,64,7,1725.81944552
GEMS116,2018_Feb_28_1629,Elaine,MP,spatial_frequency,8,6,3,SimpleHill,0-0,0,32,selected,9-41,11-41;13-37;9-48;8-43;6-34;5-35,11-41,5.47,67,3,1734.86534108
GEMS116,2018_Feb_28_1629,Elaine,MP,spatial_frequency,8,6,3,SimpleHill,0-0,0,33,selected,11-41,8-45;11-43;4-43;6-36;4-38;10-46,4-43,3.57,56,-11,1741.99803111
GEMS116,2018_Feb_28_1629,Elaine,MP,spatial_frequency,8,6,3,SimpleHill,0-0,0,34,selected,4-43,1-37;6-40;2-48;7-43;10-43;0-44,6-40,0.99,59,3,1746.55673183
GEMS116,2018_Feb_28_1629,Elaine,MP,spatial_frequency,8,6,3,SimpleHill,0-0,0,35,selected,6-40,8-37;12-41;12-39;14-40;3-33;2-36,8-37,5.02,61,2,1755.1338779
GEMS116,2018_Feb_28_1629,Elaine,MP,spatial_frequency,8,6,3,SimpleHill,0-0,0,36,selected,8-37,9-32;4-31;10-43;7-44;12-41;13-43,12-41,6.71,69,8,1765.40657624
GEMS116,2018_Feb_28_1629,Elaine,MP,spatial_frequency,8,6,3,SimpleHill,0-0,0,37,selected,12-41,15-42;13-44;16-40;9-37;13-48;7-36,13-44,4.49,71,2,1773.47540198
GEMS116,2018_Feb_28_1629,Elaine,MP,spatial_frequency,8,6,3,SimpleHill,0-0,0,38,selected,13-44,11-50;10-46;14-38;9-43;13-52;16-46,9-43,4.88,65,-6,1781.93859818
GEMS116,2018_Feb_28_1629,Elaine,MP,spatial_frequency,8,6,3,SimpleHill,0-0,0,39,selected,9-43,9-49;9-45;3-46;10-38;11-46;10-46,10-38,1.84,65,0,1787.36221425
GEMS116,2018_Feb_28_1629,Elaine,MP,spatial_frequency,8,6,4,SimpleHill,0-0,0,0,selected,0-0,0-0;0-1;2-5;0-4;7-1;7-0,2-5,3.85,13,13,1804.60922994
GEMS116,2018_Feb_28_1629,Elaine,MP,spatial_frequency,8,6,4,SimpleHill,0-0,0,1,selected,2-5,4-12;2-11;4-6;3-8;4-11;9-5,2-11,4.64,23,10,1812.8114752
GEMS116,2018_Feb_28_1629,Elaine,MP,spatial_frequency,8,6,4,SimpleHill,0-0,0,2,selected,2-11,4-11;2-4;2-5;2-14;5-15;0-16,5-15,4.6,35,12,1820.99488716
GEMS116,2018_Feb_28_1629,Elaine,MP,spatial_frequency,8,6,4,SimpleHill,0-0,0,3,selected,5-15,7-11;9-12;5-12;1-14;9-16;11-18,11-18,3.82,49,14,1828.39482307
GEMS116,2018_Feb_28_1629,Elaine,MP,spatial_frequency,8,6,4,SimpleHill,0-0,0,4,selected,11-18,8-25;12-12;5-16;15-15;16-23;12-11,8-25,2.28,52,3,1834.24172104
GEMS116,2018_Feb_28_1629,Elaine,MP,spatial_frequency,8,6,4,SimpleHill,0-0,0,5,selected,8-25,4-19;2-23;14-22;7-25;0-25;15-22,15-22,3.21,59,7,1841.02508056
GEMS116,2018_Feb_28_1629,Elaine,MP,spatial_frequency,8,6,4,SimpleHill,0-0,0,6,selected,15-22,13-21;20-28;18-26;16-20;13-22;13-23,20-28,2.94,72,13,1847.52859726
GEMS116,2018_Feb_28_1629,Elaine,MP,spatial_frequency,8,6,4,SimpleHill,0-0,0,7,selected,20-28,18-34;16-22;17-29;17-27;16-25;15-26,18-34,1.94,74,2,1853.02347017
GEMS116,2018_Feb_28_1629,Elaine,MP,spatial_frequency,8,6,4,SimpleHill,0-0,0,8,selected,18-34,12-37;21-29;20-41;19-38;10-34;15-29,21-29,2.56,74,0,1859.16355179
GEMS116,2018_Feb_28_1629,Elaine,MP,spatial_frequency,8,6,4,SimpleHill,0-0,0,9,selected,21-29,16-24;18-27;27-29;18-32;18-30;22-32,22-32,2.65,77,3,1865.39273799
GEMS116,2018_Feb_28_1629,Elaine,MP,spatial_frequency,8,6,4,SimpleHill,0-0,0,10,selected,22-32,23-31;21-25;20-29;21-27;20-33;16-27,21-25,3.22,70,-7,1872.19815671
GEMS116,2018_Feb_28_1629,Elaine,MP,spatial_frequency,8,6,4,SimpleHill,0-0,0,11,selected,21-25,29-25;20-18;22-31;14-27;19-30;23-20,29-25,1.62,78,8,1877.3940142
GEMS116,2018_Feb_28_1629,Elaine,MP,spatial_frequency,8,6,4,SimpleHill,0-0,0,12,selected,29-25,29-24;26-25;33-29;24-29;24-20;34-27,33-29,3.46,85,7,1884.42828783
GEMS116,2018_Feb_28_1629,Elaine,MP,spatial_frequency,8,6,4,SimpleHill,0-0,0,13,selected,33-29,34-36;33-25;32-35;35-24;35-27;36-30,32-35,5.41,89,4,1893.40482886
GEMS116,2018_Feb_28_1629,Elaine,MP,spatial_frequency,8,6,4,SimpleHill,0-0,0,14,selected,32-35,38-40;39-36;29-33;30-32;29-29;27-35,39-36,4.61,93,4,1901.58121701
GEMS116,2018_Feb_28_1629,Elaine,MP,spatial_frequency,8,6,4,SimpleHill,0-0,0,15,selected,39-36,43-34;41-31;42-36;33-31;35-38;41-43,42-36,5.31,94,1,1910.47241327
GEMS116,2018_Feb_28_1629,Elaine,MP,spatial_frequency,8,6,4,SimpleHill,0-0,0,16,selected,42-36,43-33;46-34;47-42;47-30;38-30;36-33,43-33,4.62,93,-1,1918.68131198
GEMS116,2018_Feb_28_1629,Elaine,MP,spatial_frequency,8,6,4,SimpleHill,0-0,0,17,selected,43-33,44-31;42-32;39-29;43-32;39-33;49-32,42-32,3.74,92,-1,1925.99234242
GEMS116,2018_Feb_28_1629,Elaine,MP,spatial_frequency,8,6,4,SimpleHill,0-0,0,18,selected,42-32,45-28;47-33;36-34;37-34;40-34;40-35,40-34,5.8,92,0,1935.37109715
GEMS116,2018_Feb_28_1629,Elaine,MP,spatial_frequency,8,6,4,SimpleHill,0-0,0,19,selected,40-34,43-29;33-36;40-33;42-27;42-37;42-39,40-33,4.19,92,0,1943.12882363
GEMS116,2018_Feb_28_1629,Elaine,MP,spatial_frequency,8,6,4,SimpleHill,0-0,0,20,selected,40-33,45-37;46-32;45-33;37-28;42-36;47-36,37-28,4.18,86,-6,1950.89117994
GEMS116,2018_Feb_28_1629,Elaine,MP,spatial_frequency,8,6,4,SimpleHill,0-0,0,21,selected,37-28,35-35;33-30;35-28;38-34;34-22;41-22,35-35,2.78,91,5,1957.22882769
GEMS116,2018_Feb_28_1629,Elaine,MP,spatial_frequency,8,6,4,SimpleHill,0-0,0,22,selected,35-35,32-29;31-36;40-38;32-39;40-37;39-30,31-36,4.32,88,-3,1965.12985561
GEMS116,2018_Feb_28_1629,Elaine,MP,spatial_frequency,8,6,4,SimpleHill,0-0,0,23,selected,31-36,30-35;26-31;30-37;30-43;34-32;32-41,30-35,3.33,87,-1,1972.02929586
GEMS116,2018_Feb_28_1629,Elaine,MP,spatial_frequency,8,6,4,SimpleHill,0-0,0,24,selected,30-35,34-29;37-36;30-34;36-38;26-36;29-32,36-38,3.62,93,6,1979.21354486
GEMS116,2018_Feb_28_1629,Elaine,MP,spatial_frequency,8,6,4,SimpleHill,0-0,0,25,selected,36-38,34-45;33-40;38-45;32-34;43-38;37-33,33-40,1.51,92,-1,1984.29580521
GEMS116,2018_Feb_28_1629,Elaine,MP,spatial_frequency,8,6,4,SimpleHill,0-0,0,26,selected,33-40,29-42;27-36;32-39;29-36;27-35;30-38,27-36,2.51,85,-7,1990.3816266
GEMS116,2018_Feb_28_1629,Elaine,MP,spatial_frequency,8,6,4,SimpleHill,0-0,0,27,selected,27-36,23-31;27-33;27-28;23-37;24-35;31-40,31-40,2.47,90,5,1996.43250185
GEMS116,2018_Feb_28_1629,Elaine,MP,spatial_frequency,8,6,4,SimpleHill,0-0,0,28,selected,31-40,30-43;31-38;32-38;26-42;25-45;27-43,30-43,3.12,91,1,2003.09185866
GEMS116,2018_Feb_28_1629,Elaine,MP,spatial_frequency,8,6,4,SimpleHill,0-0,0,29,selected,30-43,30-51;32-46;27-41;37-43;29-50;27-45,29-50,3.59,91,0,2010.25934727
GEMS116,2018_Feb_28_1629,Elaine,MP,spatial_frequency,8,6,4,SimpleHill,0-0,0,30,selected,29-50,29-52;36-49;33-45;30-49;37-50;29-45,29-45,4.72,90,-1,2018.55322233
GEMS116,2018_Feb_28_1629,Elaine,MP,spatial_frequency,8,6,4,SimpleHill,0-0,0,31,selected,29-45,26-51;28-46;28-44;26-41;25-49;30-45,25-49,4.23,87,-3,2026.35411142
GEMS116,2018_Feb_28_1629,Elaine,MP,spatial_frequency,8,6,4,SimpleHill,0-0,0,32,selected,25-49,28-50;28-46;28-42;24-53;23-44;30-51,23-44,1.16,84,-3,2031.08768881
GEMS116,2018_Feb_28_1629,Elaine,MP,spatial_frequency,8,6,4,SimpleHill,0-0,0,33,selected,23-44,21-47;26-45;16-46;18-45;27-42;21-42,26-45,3.38,87,3,2038.04935737
GEMS116,2018_Feb_28_1629,Elaine,MP,spatial_frequency,8,6,4,SimpleHill,0-0,0,34,selected,26-45,30-45;25-38;26-42;22-50;32-42;25-39,26-42,4.22,87,0,2045.83631217
GEMS116,2018_Feb_28_1629,Elaine,MP,spatial_frequency,8,6,4,SimpleHill,0-0,0,35,selected,26-42,32-44;21-45;29-41;22-36;30-44;29-36,29-41,7.71,89,2,2057.12618222
GEMS116,2018_Feb_28_1629,Elaine,MP,spatial_frequency,8,6,4,SimpleHill,0-0,0,36,selected,29-41,33-44;35-36;35-44;28-41;22-44;27-41,28-41,3.7,88,-1,2064.39748689
GEMS116,2018_Feb_28_1629,Elaine,MP,spatial_frequency,8,6,4,SimpleHill,0-0,0,37,selected,28-41,33-40;33-45;32-39;22-43;31-42;30-35,33-45,3.21,93,5,2071.16506807
GEMS116,2018_Feb_28_1629,Elaine,MP,spatial_frequency,8,6,4,SimpleHill,0-0,0,38,selected,33-45,26-44;37-48;28-50;31-46;36-45;30-44,28-50,5.83,90,-3,2080.56690918
GEMS116,2018_Feb_28_1629,Elaine,MP,spatial_frequency,8,6,4,SimpleHill,0-0,0,39,selected,28-50,23-53;28-56;22-54;27-57;24-49;28-51,24-49,2.3,86,-4,2086.43258539
