subj_id,date,computer,experimenter,instructions,sight_radius,n_gabors,start_pos_list_ix,start_pos_list,landscape_ix,landscape_name,starting_pos,starting_score,trial,feedback,pos,stims,selected,rt,score,delta,exp_time
GEMS215,2018_Mar_23_1055,George,SF,orientation,8,6,8,53-2;1-6;23-34;3-33,0,OrientationBias,0-0,0,0,training,0-0,1-7;4-1;3-7;1-1;0-6;4-3,4-1,0.99,15,15,247.719664325
GEMS215,2018_Mar_23_1055,George,SF,orientation,8,6,8,53-2;1-6;23-34;3-33,0,OrientationBias,0-0,0,1,training,4-1,6-3;0-0;6-8;0-1;5-1;0-7,0-0,1.88,0,-15,254.120847516
GEMS215,2018_Mar_23_1055,George,SF,orientation,8,6,8,53-2;1-6;23-34;3-33,0,OrientationBias,0-0,0,2,training,0-0,7-3;1-5;0-5;1-7;1-2;0-4,7-3,4.23,26,26,263.294794267
GEMS215,2018_Mar_23_1055,George,SF,orientation,8,6,8,53-2;1-6;23-34;3-33,0,OrientationBias,0-0,0,3,training,7-3,5-10;1-1;1-0;6-6;2-1;13-6,13-6,2.03,45,19,271.030437624
GEMS215,2018_Mar_23_1055,George,SF,orientation,8,6,8,53-2;1-6;23-34;3-33,0,OrientationBias,0-0,0,4,training,13-6,17-5;12-8;17-8;7-4;7-10;15-5,17-8,4.02,56,11,279.493466906
GEMS215,2018_Mar_23_1055,George,SF,orientation,8,6,8,53-2;1-6;23-34;3-33,0,OrientationBias,0-0,0,5,training,17-8,10-8;12-8;11-7;21-6;16-3;13-7,12-8,1.21,42,-14,287.762322773
GEMS215,2018_Mar_23_1055,George,SF,orientation,8,6,8,53-2;1-6;23-34;3-33,0,OrientationBias,0-0,0,6,training,12-8,15-14;17-14;7-9;13-15;15-9;6-7,15-9,2.54,51,9,304.790195493
GEMS215,2018_Mar_23_1055,George,SF,orientation,8,6,8,53-2;1-6;23-34;3-33,0,OrientationBias,0-0,0,7,training,15-9,10-11;14-14;16-10;13-2;22-6;22-8,22-6,1.43,68,17,317.024975881
GEMS215,2018_Mar_23_1055,George,SF,orientation,8,6,8,53-2;1-6;23-34;3-33,0,OrientationBias,0-0,0,8,training,22-6,25-2;27-9;21-0;25-11;20-13;17-8,25-2,4.05,75,7,325.597196499
GEMS215,2018_Mar_23_1055,George,SF,orientation,8,6,8,53-2;1-6;23-34;3-33,0,OrientationBias,0-0,0,9,training,25-2,29-6;26-1;26-4;26-9;24-4;26-0,26-1,1.88,76,1,332.224899123
GEMS215,2018_Mar_23_1055,George,SF,orientation,8,6,8,53-2;1-6;23-34;3-33,0,OrientationBias,0-0,0,10,training,26-1,30-6;23-8;21-7;20-1;18-1;28-2,30-6,6.78,84,8,342.370681228
GEMS215,2018_Mar_23_1055,George,SF,orientation,8,6,8,53-2;1-6;23-34;3-33,0,OrientationBias,0-0,0,11,training,30-6,24-11;33-3;24-3;28-10;29-7;24-7,24-3,0.95,72,-12,345.883135079
GEMS215,2018_Mar_23_1055,George,SF,orientation,8,6,8,53-2;1-6;23-34;3-33,0,OrientationBias,0-0,0,12,training,24-3,18-6;19-5;29-4;26-6;26-10;27-10,29-4,2.07,82,10,350.443822113
GEMS215,2018_Mar_23_1055,George,SF,orientation,8,6,8,53-2;1-6;23-34;3-33,0,OrientationBias,0-0,0,13,training,29-4,27-3;22-3;26-6;22-4;35-5;31-6,22-3,1.02,68,-14,354.037362192
GEMS215,2018_Mar_23_1055,George,SF,orientation,8,6,8,53-2;1-6;23-34;3-33,0,OrientationBias,0-0,0,14,training,22-3,28-3;22-10;20-4;26-8;27-7;29-0,28-3,1.29,80,12,359.477882868
GEMS215,2018_Mar_23_1055,George,SF,orientation,8,6,8,53-2;1-6;23-34;3-33,0,OrientationBias,0-0,0,15,training,28-3,27-3;31-7;22-7;35-1;27-8;31-9,27-3,5.11,78,-2,368.57902003
GEMS215,2018_Mar_23_1055,George,SF,orientation,8,6,8,53-2;1-6;23-34;3-33,0,OrientationBias,0-0,0,16,training,27-3,27-11;25-6;33-6;33-3;27-10;28-8,33-3,1.08,88,10,374.817147627
GEMS215,2018_Mar_23_1055,George,SF,orientation,8,6,8,53-2;1-6;23-34;3-33,0,OrientationBias,0-0,0,17,training,33-3,40-4;30-6;36-4;29-4;38-3;35-5,30-6,1.66,84,-4,383.10644302
GEMS215,2018_Mar_23_1055,George,SF,orientation,8,6,8,53-2;1-6;23-34;3-33,0,OrientationBias,0-0,0,18,training,30-6,34-6;28-10;24-3;36-9;36-5;27-8,34-6,0.99,89,5,391.921981861
GEMS215,2018_Mar_23_1055,George,SF,orientation,8,6,8,53-2;1-6;23-34;3-33,0,OrientationBias,0-0,0,19,training,34-6,38-2;31-8;32-4;38-12;33-7;37-13,32-4,1.34,87,-2,396.186198943
GEMS215,2018_Mar_23_1055,George,SF,orientation,8,6,8,53-2;1-6;23-34;3-33,0,OrientationBias,0-0,0,20,training,32-4,31-1;31-6;30-3;39-2;31-8;25-1,31-1,0.74,85,-2,399.956358868
GEMS215,2018_Mar_23_1055,George,SF,orientation,8,6,8,53-2;1-6;23-34;3-33,0,OrientationBias,0-0,0,21,training,31-1,37-3;31-3;34-3;37-1;34-4;31-1,37-1,1.53,93,8,417.185512984
GEMS215,2018_Mar_23_1055,George,SF,orientation,8,6,8,53-2;1-6;23-34;3-33,0,OrientationBias,0-0,0,22,training,37-1,42-6;36-7;37-1;39-6;34-6;36-1,39-6,0.99,95,2,423.009700092
GEMS215,2018_Mar_23_1055,George,SF,orientation,8,6,8,53-2;1-6;23-34;3-33,0,OrientationBias,0-0,0,23,training,39-6,39-6;42-8;35-10;39-13;39-14;34-5,39-6,1.2,95,0,432.598937164
GEMS215,2018_Mar_23_1055,George,SF,orientation,8,6,8,53-2;1-6;23-34;3-33,0,OrientationBias,0-0,0,24,training,39-6,41-7;34-1;33-7;37-8;43-7;32-5,34-1,1.56,89,-6,439.023563311
GEMS215,2018_Mar_23_1055,George,SF,orientation,8,6,8,53-2;1-6;23-34;3-33,0,OrientationBias,0-0,0,25,training,34-1,39-7;30-7;36-7;31-5;39-1;28-3,31-5,0.83,85,-4,449.344555254
GEMS215,2018_Mar_23_1055,George,SF,orientation,8,6,8,53-2;1-6;23-34;3-33,0,OrientationBias,0-0,0,26,training,31-5,30-8;34-11;33-4;33-9;38-8;30-12,33-4,1.54,88,3,453.415710923
GEMS215,2018_Mar_23_1055,George,SF,orientation,8,6,8,53-2;1-6;23-34;3-33,0,OrientationBias,0-0,0,27,training,33-4,31-1;38-5;39-2;34-1;30-10;29-9,34-1,0.75,89,1,460.934106656
GEMS215,2018_Mar_23_1055,George,SF,orientation,8,6,8,53-2;1-6;23-34;3-33,0,OrientationBias,0-0,0,28,training,34-1,30-7;33-7;30-4;28-3;32-1;33-1,30-4,0.72,84,-5,464.927848842
GEMS215,2018_Mar_23_1055,George,SF,orientation,8,6,8,53-2;1-6;23-34;3-33,0,OrientationBias,0-0,0,29,training,30-4,26-3;26-8;29-0;35-0;31-6;31-5,29-0,2.22,82,-2,472.316482795
GEMS215,2018_Mar_23_1055,George,SF,orientation,8,6,8,53-2;1-6;23-34;3-33,1,SimpleHill,53-2,53,0,selected,53-2,49-7;46-0;50-2;54-9;53-1;60-0,46-0,2.24,49,-4,508.89697205
GEMS215,2018_Mar_23_1055,George,SF,orientation,8,6,8,53-2;1-6;23-34;3-33,1,SimpleHill,53-2,53,1,selected,46-0,42-3;46-3;44-2;41-5;54-0;41-4,44-2,3.51,53,4,515.97168139
GEMS215,2018_Mar_23_1055,George,SF,orientation,8,6,8,53-2;1-6;23-34;3-33,1,SimpleHill,53-2,53,2,selected,44-2,44-8;40-6;49-5;42-9;50-3;39-4,40-6,0.85,59,6,520.39900752
GEMS215,2018_Mar_23_1055,George,SF,orientation,8,6,8,53-2;1-6;23-34;3-33,1,SimpleHill,53-2,53,3,selected,40-6,37-3;45-8;44-12;35-2;37-7;37-9,37-3,0.82,52,-7,524.779479747
GEMS215,2018_Mar_23_1055,George,SF,orientation,8,6,8,53-2;1-6;23-34;3-33,1,SimpleHill,53-2,53,4,selected,37-3,33-9;41-5;38-4;44-4;31-2;38-1,38-1,0.86,49,-3,529.208311594
GEMS215,2018_Mar_23_1055,George,SF,orientation,8,6,8,53-2;1-6;23-34;3-33,1,SimpleHill,53-2,53,5,selected,38-1,43-7;41-2;44-1;42-0;45-0;38-0,44-1,0.75,51,2,533.537038898
GEMS215,2018_Mar_23_1055,George,SF,orientation,8,6,8,53-2;1-6;23-34;3-33,1,SimpleHill,53-2,53,6,selected,44-1,39-1;48-6;36-1;48-0;37-0;45-0,37-0,1.01,46,-5,538.129079023
GEMS215,2018_Mar_23_1055,George,SF,orientation,8,6,8,53-2;1-6;23-34;3-33,1,SimpleHill,53-2,53,7,selected,37-0,35-5;36-4;37-2;43-0;36-5;32-4,43-0,2.84,49,3,544.536023564
GEMS215,2018_Mar_23_1055,George,SF,orientation,8,6,8,53-2;1-6;23-34;3-33,1,SimpleHill,53-2,53,8,selected,43-0,47-4;44-3;44-5;46-2;38-3;38-5,44-3,0.91,55,6,549.033586377
GEMS215,2018_Mar_23_1055,George,SF,orientation,8,6,8,53-2;1-6;23-34;3-33,1,SimpleHill,53-2,53,9,selected,44-3,46-5;45-0;41-10;41-1;42-10;49-1,46-5,2.04,59,4,554.645106389
GEMS215,2018_Mar_23_1055,George,SF,orientation,8,6,8,53-2;1-6;23-34;3-33,1,SimpleHill,53-2,53,10,selected,46-5,49-10;40-10;45-5;48-11;53-5;47-6,40-10,1.42,66,7,559.633163407
GEMS215,2018_Mar_23_1055,George,SF,orientation,8,6,8,53-2;1-6;23-34;3-33,1,SimpleHill,53-2,53,11,selected,40-10,37-6;39-3;40-3;43-8;46-7;44-9,40-3,1.19,53,-13,564.390152153
GEMS215,2018_Mar_23_1055,George,SF,orientation,8,6,8,53-2;1-6;23-34;3-33,1,SimpleHill,53-2,53,12,selected,40-3,33-2;37-8;34-6;34-7;34-8;41-4,37-8,0.76,61,8,568.713601127
GEMS215,2018_Mar_23_1055,George,SF,orientation,8,6,8,53-2;1-6;23-34;3-33,1,SimpleHill,53-2,53,13,selected,37-8,33-4;41-11;40-6;44-11;35-6;31-10,31-10,1.44,60,-1,573.741380701
GEMS215,2018_Mar_23_1055,George,SF,orientation,8,6,8,53-2;1-6;23-34;3-33,1,SimpleHill,53-2,53,14,selected,31-10,24-10;31-6;29-12;34-7;32-7;37-9,31-6,0.76,54,-6,578.05756773
GEMS215,2018_Mar_23_1055,George,SF,orientation,8,6,8,53-2;1-6;23-34;3-33,1,SimpleHill,53-2,53,15,selected,31-6,28-3;26-1;31-7;32-10;37-5;26-10,28-3,0.79,46,-8,582.427190091
GEMS215,2018_Mar_23_1055,George,SF,orientation,8,6,8,53-2;1-6;23-34;3-33,1,SimpleHill,53-2,53,16,selected,28-3,29-9;21-2;21-3;34-5;25-3;31-0,21-3,0.69,39,-7,586.662339225
GEMS215,2018_Mar_23_1055,George,SF,orientation,8,6,8,53-2;1-6;23-34;3-33,1,SimpleHill,53-2,53,17,selected,21-3,25-5;18-10;25-6;25-7;14-1;18-7,14-1,1.41,26,-13,591.647804131
GEMS215,2018_Mar_23_1055,George,SF,orientation,8,6,8,53-2;1-6;23-34;3-33,1,SimpleHill,53-2,53,18,selected,14-1,13-5;11-8;10-0;8-4;15-5;13-1,13-5,0.71,32,6,595.919609973
GEMS215,2018_Mar_23_1055,George,SF,orientation,8,6,8,53-2;1-6;23-34;3-33,1,SimpleHill,53-2,53,19,selected,13-5,11-11;9-8;17-1;8-1;12-2;19-4,11-11,1.08,39,7,600.558961734
GEMS215,2018_Mar_23_1055,George,SF,orientation,8,6,8,53-2;1-6;23-34;3-33,1,SimpleHill,53-2,53,20,selected,11-11,5-13;11-9;13-7;15-10;16-9;12-18,11-9,1.94,35,-4,606.056137876
GEMS215,2018_Mar_23_1055,George,SF,orientation,8,6,8,53-2;1-6;23-34;3-33,1,SimpleHill,53-2,53,21,selected,11-9,15-4;7-12;17-9;5-14;18-6;16-10,17-9,1.31,44,9,610.944909148
GEMS215,2018_Mar_23_1055,George,SF,orientation,8,6,8,53-2;1-6;23-34;3-33,1,SimpleHill,53-2,53,22,selected,17-9,19-4;19-9;14-16;19-12;21-11;9-9,21-11,1.88,52,8,616.401782405
GEMS215,2018_Mar_23_1055,George,SF,orientation,8,6,8,53-2;1-6;23-34;3-33,1,SimpleHill,53-2,53,23,selected,21-11,24-15;25-6;26-13;26-9;14-14;28-9,26-9,1.93,54,2,621.91076869
GEMS215,2018_Mar_23_1055,George,SF,orientation,8,6,8,53-2;1-6;23-34;3-33,1,SimpleHill,53-2,53,24,selected,26-9,22-7;22-9;29-11;23-7;26-6;21-4,22-9,1.52,50,-4,626.998493643
GEMS215,2018_Mar_23_1055,George,SF,orientation,8,6,8,53-2;1-6;23-34;3-33,1,SimpleHill,53-2,53,25,selected,22-9,22-12;18-8;21-9;19-12;26-7;26-5,22-12,0.99,55,5,631.573045497
GEMS215,2018_Mar_23_1055,George,SF,orientation,8,6,8,53-2;1-6;23-34;3-33,1,SimpleHill,53-2,53,26,selected,22-12,22-16;16-11;19-16;16-15;29-10;17-6,29-10,1.69,59,4,636.806228942
GEMS215,2018_Mar_23_1055,George,SF,orientation,8,6,8,53-2;1-6;23-34;3-33,1,SimpleHill,53-2,53,27,selected,29-10,32-7;31-10;28-11;30-8;30-17;22-12,28-11,0.95,59,0,641.296466752
GEMS215,2018_Mar_23_1055,George,SF,orientation,8,6,8,53-2;1-6;23-34;3-33,1,SimpleHill,53-2,53,28,selected,28-11,27-8;27-16;25-14;31-4;26-4;32-13,25-14,1.35,61,2,646.214111355
GEMS215,2018_Mar_23_1055,George,SF,orientation,8,6,8,53-2;1-6;23-34;3-33,1,SimpleHill,53-2,53,29,selected,25-14,23-12;19-9;20-17;27-7;25-9;21-19,21-19,1.72,63,2,651.501912875
GEMS215,2018_Mar_23_1055,George,SF,orientation,8,6,8,53-2;1-6;23-34;3-33,1,SimpleHill,53-2,53,30,selected,21-19,18-22;21-21;27-24;24-12;20-13;20-14,21-21,2.01,66,3,657.071105095
GEMS215,2018_Mar_23_1055,George,SF,orientation,8,6,8,53-2;1-6;23-34;3-33,1,SimpleHill,53-2,53,31,selected,21-21,14-22;21-15;24-25;17-15;22-16;26-21,21-15,3.27,58,-8,663.911667191
GEMS215,2018_Mar_23_1055,George,SF,orientation,8,6,8,53-2;1-6;23-34;3-33,1,SimpleHill,53-2,53,32,selected,21-15,27-18;20-15;25-11;27-17;24-19;23-22,25-11,1.18,57,-1,668.647851825
GEMS215,2018_Mar_23_1055,George,SF,orientation,8,6,8,53-2;1-6;23-34;3-33,1,SimpleHill,53-2,53,33,selected,25-11,27-12;21-7;27-4;21-16;26-5;22-5,27-12,0.65,60,3,672.86051252
GEMS215,2018_Mar_23_1055,George,SF,orientation,8,6,8,53-2;1-6;23-34;3-33,1,SimpleHill,53-2,53,34,selected,27-12,32-17;27-11;23-8;27-4;20-9;26-18,26-18,1.28,68,8,677.712845388
GEMS215,2018_Mar_23_1055,George,SF,orientation,8,6,8,53-2;1-6;23-34;3-33,1,SimpleHill,53-2,53,35,selected,26-18,25-12;21-13;19-15;30-20;34-18;20-22,20-22,2.13,66,-2,683.404417089
GEMS215,2018_Mar_23_1055,George,SF,orientation,8,6,8,53-2;1-6;23-34;3-33,1,SimpleHill,53-2,53,36,selected,20-22,23-27;13-25;18-28;21-16;22-17;25-22,21-16,5.0,60,-6,691.952144526
GEMS215,2018_Mar_23_1055,George,SF,orientation,8,6,8,53-2;1-6;23-34;3-33,1,SimpleHill,53-2,53,37,selected,21-16,17-10;18-12;16-17;27-14;24-15;23-10,27-14,1.53,63,3,697.050559618
GEMS215,2018_Mar_23_1055,George,SF,orientation,8,6,8,53-2;1-6;23-34;3-33,1,SimpleHill,53-2,53,38,selected,27-14,22-12;21-18;28-21;30-18;24-14;27-14,30-18,1.52,71,8,702.125962599
GEMS215,2018_Mar_23_1055,George,SF,orientation,8,6,8,53-2;1-6;23-34;3-33,1,SimpleHill,53-2,53,39,selected,30-18,32-18;30-14;26-18;36-14;29-18;27-22,36-14,1.56,70,-1,707.253596083
GEMS215,2018_Mar_23_1055,George,SF,orientation,8,6,8,53-2;1-6;23-34;3-33,2,SimpleHill,1-6,13,0,selected,1-6,4-7;1-2;6-0;8-3;3-13;7-10,4-7,1.92,20,7,779.151954775
GEMS215,2018_Mar_23_1055,George,SF,orientation,8,6,8,53-2;1-6;23-34;3-33,2,SimpleHill,1-6,13,1,selected,4-7,10-2;2-4;5-0;4-7;3-12;5-12,5-12,2.39,30,10,785.091318635
GEMS215,2018_Mar_23_1055,George,SF,orientation,8,6,8,53-2;1-6;23-34;3-33,2,SimpleHill,1-6,13,2,selected,5-12,0-17;4-7;11-16;3-6;7-10;4-18,4-7,1.29,20,-10,789.952026091
GEMS215,2018_Mar_23_1055,George,SF,orientation,8,6,8,53-2;1-6;23-34;3-33,2,SimpleHill,1-6,13,3,selected,4-7,11-10;0-6;3-10;8-10;9-3;6-7,8-10,0.98,32,12,794.501786758
GEMS215,2018_Mar_23_1055,George,SF,orientation,8,6,8,53-2;1-6;23-34;3-33,2,SimpleHill,1-6,13,4,selected,8-10,2-12;11-10;9-4;2-7;4-10;14-12,2-12,0.72,25,-7,798.788577104
GEMS215,2018_Mar_23_1055,George,SF,orientation,8,6,8,53-2;1-6;23-34;3-33,2,SimpleHill,1-6,13,5,selected,2-12,0-11;0-10;5-17;7-14;1-8;0-13,1-8,1.65,16,-9,803.999340929
GEMS215,2018_Mar_23_1055,George,SF,orientation,8,6,8,53-2;1-6;23-34;3-33,2,SimpleHill,1-6,13,6,selected,1-8,0-10;2-7;4-3;6-11;4-9;6-10,6-10,0.63,29,13,808.186092032
GEMS215,2018_Mar_23_1055,George,SF,orientation,8,6,8,53-2;1-6;23-34;3-33,2,SimpleHill,1-6,13,7,selected,6-10,13-11;11-4;5-3;2-6;5-13;8-14,11-4,2.43,27,-2,814.189596408
GEMS215,2018_Mar_23_1055,George,SF,orientation,8,6,8,53-2;1-6;23-34;3-33,2,SimpleHill,1-6,13,8,selected,11-4,7-9;18-7;13-0;5-6;10-11;15-8,7-9,0.5,29,2,818.252770883
GEMS215,2018_Mar_23_1055,George,SF,orientation,8,6,8,53-2;1-6;23-34;3-33,2,SimpleHill,1-6,13,9,selected,7-9,4-13;11-8;1-7;14-8;3-5;10-16,10-16,1.42,44,15,823.256029108
GEMS215,2018_Mar_23_1055,George,SF,orientation,8,6,8,53-2;1-6;23-34;3-33,2,SimpleHill,1-6,13,10,selected,10-16,7-16;9-14;9-23;12-21;9-20;4-12,9-14,1.82,40,-4,828.661461211
GEMS215,2018_Mar_23_1055,George,SF,orientation,8,6,8,53-2;1-6;23-34;3-33,2,SimpleHill,1-6,13,11,selected,9-14,13-16;14-19;9-20;9-17;12-21;15-9,15-9,0.76,41,1,832.992365787
GEMS215,2018_Mar_23_1055,George,SF,orientation,8,6,8,53-2;1-6;23-34;3-33,2,SimpleHill,1-6,13,12,selected,15-9,17-10;11-13;11-6;17-7;22-9;16-2,22-9,1.3,50,9,837.853769765
GEMS215,2018_Mar_23_1055,George,SF,orientation,8,6,8,53-2;1-6;23-34;3-33,2,SimpleHill,1-6,13,13,selected,22-9,28-11;18-10;29-6;20-11;25-5;28-12,28-12,3.24,61,11,844.672678223
GEMS215,2018_Mar_23_1055,George,SF,orientation,8,6,8,53-2;1-6;23-34;3-33,2,SimpleHill,1-6,13,14,selected,28-12,28-9;25-6;20-12;27-13;24-8;35-15,28-9,1.61,56,-5,849.857809016
GEMS215,2018_Mar_23_1055,George,SF,orientation,8,6,8,53-2;1-6;23-34;3-33,2,SimpleHill,1-6,13,15,selected,28-9,34-9;23-11;36-9;26-6;24-4;29-3,23-11,0.77,55,-1,854.169433122
GEMS215,2018_Mar_23_1055,George,SF,orientation,8,6,8,53-2;1-6;23-34;3-33,2,SimpleHill,1-6,13,16,selected,23-11,20-4;29-9;20-14;18-10;30-12;21-10,21-10,2.69,51,-4,860.401481518
GEMS215,2018_Mar_23_1055,George,SF,orientation,8,6,8,53-2;1-6;23-34;3-33,2,SimpleHill,1-6,13,17,selected,21-10,25-7;25-13;18-10;20-3;22-9;23-4,22-9,1.52,50,-1,865.493217874
GEMS215,2018_Mar_23_1055,George,SF,orientation,8,6,8,53-2;1-6;23-34;3-33,2,SimpleHill,1-6,13,18,selected,22-9,23-13;26-12;17-14;24-3;21-11;24-2,17-14,6.32,52,2,875.39562734
GEMS215,2018_Mar_23_1055,George,SF,orientation,8,6,8,53-2;1-6;23-34;3-33,2,SimpleHill,1-6,13,19,selected,17-14,14-14;17-15;16-16;14-16;17-20;16-10,17-15,1.38,53,1,880.354400028
GEMS215,2018_Mar_23_1055,George,SF,orientation,8,6,8,53-2;1-6;23-34;3-33,2,SimpleHill,1-6,13,20,selected,17-15,20-15;11-20;20-11;20-17;17-15;16-22,20-15,0.76,57,4,884.68391412
GEMS215,2018_Mar_23_1055,George,SF,orientation,8,6,8,53-2;1-6;23-34;3-33,2,SimpleHill,1-6,13,21,selected,20-15,23-8;25-9;21-16;25-18;22-11;20-22,25-18,1.52,67,10,889.79225401
GEMS215,2018_Mar_23_1055,George,SF,orientation,8,6,8,53-2;1-6;23-34;3-33,2,SimpleHill,1-6,13,22,selected,25-18,30-17;27-18;22-12;25-11;23-18;28-19,30-17,1.85,70,3,895.221672267
GEMS215,2018_Mar_23_1055,George,SF,orientation,8,6,8,53-2;1-6;23-34;3-33,2,SimpleHill,1-6,13,23,selected,30-17,29-21;26-18;27-10;31-22;27-14;36-20,26-18,1.02,68,-2,899.810747372
GEMS215,2018_Mar_23_1055,George,SF,orientation,8,6,8,53-2;1-6;23-34;3-33,2,SimpleHill,1-6,13,24,selected,26-18,29-13;19-15;32-23;29-16;20-15;22-22,29-13,0.92,63,-5,904.295311537
GEMS215,2018_Mar_23_1055,George,SF,orientation,8,6,8,53-2;1-6;23-34;3-33,2,SimpleHill,1-6,13,25,selected,29-13,23-10;27-18;31-10;25-19;31-17;31-7,31-10,1.06,60,-3,908.913877431
GEMS215,2018_Mar_23_1055,George,SF,orientation,8,6,8,53-2;1-6;23-34;3-33,2,SimpleHill,1-6,13,26,selected,31-10,32-16;28-13;24-7;36-11;34-11;37-12,37-12,1.78,67,7,914.277702271
GEMS215,2018_Mar_23_1055,George,SF,orientation,8,6,8,53-2;1-6;23-34;3-33,2,SimpleHill,1-6,13,27,selected,37-12,34-17;32-13;41-6;35-17;36-17;29-12,35-17,2.47,73,6,920.307653355
GEMS215,2018_Mar_23_1055,George,SF,orientation,8,6,8,53-2;1-6;23-34;3-33,2,SimpleHill,1-6,13,28,selected,35-17,30-19;36-13;30-16;36-15;42-15;36-11,36-13,1.3,68,-5,925.182351747
GEMS215,2018_Mar_23_1055,George,SF,orientation,8,6,8,53-2;1-6;23-34;3-33,2,SimpleHill,1-6,13,29,selected,36-13,33-20;41-8;43-15;43-10;37-15;38-7,43-10,1.2,67,-1,929.930714953
GEMS215,2018_Mar_23_1055,George,SF,orientation,8,6,8,53-2;1-6;23-34;3-33,2,SimpleHill,1-6,13,30,selected,43-10,40-7;48-11;41-17;45-10;43-16;38-14,43-16,6.0,75,8,939.482261737
GEMS215,2018_Mar_23_1055,George,SF,orientation,8,6,8,53-2;1-6;23-34;3-33,2,SimpleHill,1-6,13,31,selected,43-16,37-15;46-13;46-16;36-16;47-19;47-21,46-16,2.99,76,1,946.040243667
GEMS215,2018_Mar_23_1055,George,SF,orientation,8,6,8,53-2;1-6;23-34;3-33,2,SimpleHill,1-6,13,32,selected,46-16,52-12;50-11;43-18;45-12;47-21;44-23,45-12,3.17,70,-6,952.783869499
GEMS215,2018_Mar_23_1055,George,SF,orientation,8,6,8,53-2;1-6;23-34;3-33,2,SimpleHill,1-6,13,33,selected,45-12,52-9;42-17;40-15;39-7;51-14;40-12,40-15,1.23,73,3,957.594569818
GEMS215,2018_Mar_23_1055,George,SF,orientation,8,6,8,53-2;1-6;23-34;3-33,2,SimpleHill,1-6,13,34,selected,40-15,34-17;33-16;37-20;34-11;36-21;43-21,34-17,3.66,73,0,964.832632117
GEMS215,2018_Mar_23_1055,George,SF,orientation,8,6,8,53-2;1-6;23-34;3-33,2,SimpleHill,1-6,13,35,selected,34-17,37-16;35-19;41-15;29-23;28-20;37-15,37-16,2.02,73,0,970.426438513
GEMS215,2018_Mar_23_1055,George,SF,orientation,8,6,8,53-2;1-6;23-34;3-33,2,SimpleHill,1-6,13,36,selected,37-16,40-21;42-15;44-14;34-9;41-11;38-12,38-12,1.63,68,-5,975.616270509
GEMS215,2018_Mar_23_1055,George,SF,orientation,8,6,8,53-2;1-6;23-34;3-33,2,SimpleHill,1-6,13,37,selected,38-12,40-11;35-17;42-14;44-16;39-5;36-19,35-17,5.91,73,5,985.092364698
GEMS215,2018_Mar_23_1055,George,SF,orientation,8,6,8,53-2;1-6;23-34;3-33,2,SimpleHill,1-6,13,38,selected,35-17,39-23;35-16;40-16;34-19;31-15;40-21,31-15,3.22,68,-5,991.882833871
GEMS215,2018_Mar_23_1055,George,SF,orientation,8,6,8,53-2;1-6;23-34;3-33,2,SimpleHill,1-6,13,39,selected,31-15,38-18;32-22;29-22;27-17;30-20;25-13,25-13,9.36,60,-8,1004.81608748
GEMS215,2018_Mar_23_1055,George,SF,orientation,8,6,8,53-2;1-6;23-34;3-33,3,SimpleHill,23-34,80,0,selected,23-34,23-30;23-28;27-28;27-32;19-36;18-35,27-28,3.04,79,-1,1032.86987043
GEMS215,2018_Mar_23_1055,George,SF,orientation,8,6,8,53-2;1-6;23-34;3-33,3,SimpleHill,23-34,80,1,selected,27-28,33-26;32-24;22-34;24-23;27-31;31-22,32-24,1.44,80,1,1037.8703781
GEMS215,2018_Mar_23_1055,George,SF,orientation,8,6,8,53-2;1-6;23-34;3-33,3,SimpleHill,23-34,80,2,selected,32-24,30-18;35-30;34-24;32-20;38-26;30-26,30-26,1.37,80,0,1042.79549655
GEMS215,2018_Mar_23_1055,George,SF,orientation,8,6,8,53-2;1-6;23-34;3-33,3,SimpleHill,23-34,80,3,selected,30-26,34-32;23-23;29-32;36-21;25-26;29-31,29-32,1.13,84,4,1047.47768633
GEMS215,2018_Mar_23_1055,George,SF,orientation,8,6,8,53-2;1-6;23-34;3-33,3,SimpleHill,23-34,80,4,selected,29-32,27-30;24-28;24-34;26-35;36-31;33-38,24-28,0.91,76,-8,1051.97436729
GEMS215,2018_Mar_23_1055,George,SF,orientation,8,6,8,53-2;1-6;23-34;3-33,3,SimpleHill,23-34,80,5,selected,24-28,31-27;20-24;30-24;29-29;20-28;32-28,32-28,1.32,83,7,1056.84650014
GEMS215,2018_Mar_23_1055,George,SF,orientation,8,6,8,53-2;1-6;23-34;3-33,3,SimpleHill,23-34,80,6,selected,32-28,34-32;31-32;38-25;34-26;31-23;36-33,31-32,1.6,86,3,1062.01193818
GEMS215,2018_Mar_23_1055,George,SF,orientation,8,6,8,53-2;1-6;23-34;3-33,3,SimpleHill,23-34,80,7,selected,31-32,25-33;29-30;31-37;33-32;31-34;35-28,25-33,1.5,81,-5,1067.08407365
GEMS215,2018_Mar_23_1055,George,SF,orientation,8,6,8,53-2;1-6;23-34;3-33,3,SimpleHill,23-34,80,8,selected,25-33,26-29;26-36;26-38;25-33;20-34;19-36,25-33,1.33,81,0,1071.97447548
GEMS215,2018_Mar_23_1055,George,SF,orientation,8,6,8,53-2;1-6;23-34;3-33,3,SimpleHill,23-34,80,9,selected,25-33,23-40;21-27;24-26;24-28;25-29;31-36,25-29,1.35,78,-3,1076.88475443
GEMS215,2018_Mar_23_1055,George,SF,orientation,8,6,8,53-2;1-6;23-34;3-33,3,SimpleHill,23-34,80,10,selected,25-29,19-24;20-32;22-25;33-29;28-32;21-30,20-32,0.83,75,-3,1081.28583007
GEMS215,2018_Mar_23_1055,George,SF,orientation,8,6,8,53-2;1-6;23-34;3-33,3,SimpleHill,23-34,80,11,selected,20-32,15-26;15-29;23-37;28-32;24-32;15-32,28-32,1.97,83,8,1086.82423416
GEMS215,2018_Mar_23_1055,George,SF,orientation,8,6,8,53-2;1-6;23-34;3-33,3,SimpleHill,23-34,80,12,selected,28-32,33-26;28-24;30-30;30-27;35-33;23-38,28-24,5.18,76,-7,1095.58073893
GEMS215,2018_Mar_23_1055,George,SF,orientation,8,6,8,53-2;1-6;23-34;3-33,3,SimpleHill,23-34,80,13,selected,28-24,22-26;32-27;25-25;25-18;30-23;32-20,25-25,0.74,75,-1,1099.8699098
GEMS215,2018_Mar_23_1055,George,SF,orientation,8,6,8,53-2;1-6;23-34;3-33,3,SimpleHill,23-34,80,14,selected,25-25,27-18;31-25;21-25;24-22;31-27;22-26,22-26,1.81,72,-3,1105.24809465
GEMS215,2018_Mar_23_1055,George,SF,orientation,8,6,8,53-2;1-6;23-34;3-33,3,SimpleHill,23-34,80,15,selected,22-26,17-20;15-25;22-19;21-30;18-31;27-31,17-20,1.78,60,-12,1110.60385347
GEMS215,2018_Mar_23_1055,George,SF,orientation,8,6,8,53-2;1-6;23-34;3-33,3,SimpleHill,23-34,80,16,selected,17-20,22-15;14-26;14-14;18-25;21-16;22-24,18-25,0.81,67,7,1114.98396047
GEMS215,2018_Mar_23_1055,George,SF,orientation,8,6,8,53-2;1-6;23-34;3-33,3,SimpleHill,23-34,80,17,selected,18-25,10-25;23-21;18-20;15-30;17-26;14-29,23-21,0.95,68,1,1119.4860654
GEMS215,2018_Mar_23_1055,George,SF,orientation,8,6,8,53-2;1-6;23-34;3-33,3,SimpleHill,23-34,80,18,selected,23-21,18-22;29-20;18-24;24-17;24-18;23-21,18-24,2.92,66,-2,1125.99182835
GEMS215,2018_Mar_23_1055,George,SF,orientation,8,6,8,53-2;1-6;23-34;3-33,3,SimpleHill,23-34,80,19,selected,18-24,23-28;15-19;13-21;18-28;18-25;13-26,13-26,2.91,61,-5,1132.464551
GEMS215,2018_Mar_23_1055,George,SF,orientation,8,6,8,53-2;1-6;23-34;3-33,3,SimpleHill,23-34,80,20,selected,13-26,15-25;8-29;20-23;20-26;11-29;10-20,15-25,2.09,63,2,1138.13733069
GEMS215,2018_Mar_23_1055,George,SF,orientation,8,6,8,53-2;1-6;23-34;3-33,3,SimpleHill,23-34,80,21,selected,15-25,22-27;14-29;20-30;7-25;15-18;9-22,22-27,2.79,73,10,1144.49088632
GEMS215,2018_Mar_23_1055,George,SF,orientation,8,6,8,53-2;1-6;23-34;3-33,3,SimpleHill,23-34,80,22,selected,22-27,24-33;16-27;23-26;24-28;25-25;24-24,16-27,2.8,66,-7,1150.87277207
GEMS215,2018_Mar_23_1055,George,SF,orientation,8,6,8,53-2;1-6;23-34;3-33,3,SimpleHill,23-34,80,23,selected,16-27,16-35;14-24;18-23;10-31;16-32;22-30,16-32,2.27,70,4,1156.70562922
GEMS215,2018_Mar_23_1055,George,SF,orientation,8,6,8,53-2;1-6;23-34;3-33,3,SimpleHill,23-34,80,24,selected,16-32,21-32;11-36;20-31;10-29;9-32;20-27,9-32,3.25,59,-11,1163.52453863
GEMS215,2018_Mar_23_1055,George,SF,orientation,8,6,8,53-2;1-6;23-34;3-33,3,SimpleHill,23-34,80,25,selected,9-32,4-37;6-37;3-35;3-31;3-32;10-28,6-37,9.75,57,-2,1176.85412251
GEMS215,2018_Mar_23_1055,George,SF,orientation,8,6,8,53-2;1-6;23-34;3-33,3,SimpleHill,23-34,80,26,selected,6-37,3-35;5-33;7-35;9-35;6-41;10-33,7-35,1.33,58,1,1181.75527017
GEMS215,2018_Mar_23_1055,George,SF,orientation,8,6,8,53-2;1-6;23-34;3-33,3,SimpleHill,23-34,80,27,selected,7-35,8-33;10-30;12-41;13-36;9-31;8-30,8-30,0.68,56,-2,1185.990354
GEMS215,2018_Mar_23_1055,George,SF,orientation,8,6,8,53-2;1-6;23-34;3-33,3,SimpleHill,23-34,80,28,selected,8-30,4-29;2-34;5-24;12-27;5-25;3-27,12-27,1.76,60,4,1191.32694471
GEMS215,2018_Mar_23_1055,George,SF,orientation,8,6,8,53-2;1-6;23-34;3-33,3,SimpleHill,23-34,80,29,selected,12-27,16-23;18-29;16-29;16-30;10-30;16-24,18-29,1.78,70,10,1196.67653022
GEMS215,2018_Mar_23_1055,George,SF,orientation,8,6,8,53-2;1-6;23-34;3-33,3,SimpleHill,23-34,80,30,selected,18-29,15-32;20-34;20-32;22-28;18-23;12-24,22-28,2.11,74,4,1202.33857464
GEMS215,2018_Mar_23_1055,George,SF,orientation,8,6,8,53-2;1-6;23-34;3-33,3,SimpleHill,23-34,80,31,selected,22-28,17-26;25-32;24-30;25-34;20-23;26-23,17-26,2.7,66,-8,1208.5867237
GEMS215,2018_Mar_23_1055,George,SF,orientation,8,6,8,53-2;1-6;23-34;3-33,3,SimpleHill,23-34,80,32,selected,17-26,10-25;21-27;19-29;15-26;22-31;18-22,21-27,1.18,72,6,1213.32738227
GEMS215,2018_Mar_23_1055,George,SF,orientation,8,6,8,53-2;1-6;23-34;3-33,3,SimpleHill,23-34,80,33,selected,21-27,25-22;24-32;21-28;22-20;19-34;22-21,21-28,1.9,73,1,1218.80389995
GEMS215,2018_Mar_23_1055,George,SF,orientation,8,6,8,53-2;1-6;23-34;3-33,3,SimpleHill,23-34,80,34,selected,21-28,21-27;15-29;22-35;20-21;16-32;14-28,20-21,1.49,65,-8,1223.87077309
GEMS215,2018_Mar_23_1055,George,SF,orientation,8,6,8,53-2;1-6;23-34;3-33,3,SimpleHill,23-34,80,35,selected,20-21,25-17;15-25;15-20;13-23;27-19;18-28,15-25,1.99,63,-2,1229.42706397
GEMS215,2018_Mar_23_1055,George,SF,orientation,8,6,8,53-2;1-6;23-34;3-33,3,SimpleHill,23-34,80,36,selected,15-25,18-27;11-27;9-23;16-30;21-28;16-27,18-27,0.73,68,5,1233.71931062
GEMS215,2018_Mar_23_1055,George,SF,orientation,8,6,8,53-2;1-6;23-34;3-33,3,SimpleHill,23-34,80,37,selected,18-27,13-25;24-23;13-23;19-30;18-24;17-22,24-23,3.26,71,3,1240.558625
GEMS215,2018_Mar_23_1055,George,SF,orientation,8,6,8,53-2;1-6;23-34;3-33,3,SimpleHill,23-34,80,38,selected,24-23,21-23;29-17;22-19;24-15;29-24;20-21,22-19,9.74,65,-6,1253.88808115
GEMS215,2018_Mar_23_1055,George,SF,orientation,8,6,8,53-2;1-6;23-34;3-33,3,SimpleHill,23-34,80,39,selected,22-19,22-14;21-15;16-17;23-18;23-25;24-12,22-14,0.96,58,-7,1258.41963558
GEMS215,2018_Mar_23_1055,George,SF,orientation,8,6,8,53-2;1-6;23-34;3-33,4,SimpleHill,3-33,50,0,selected,3-33,5-40;3-38;4-29;5-35;7-27;6-29,7-27,3.47,52,2,1271.24519205
GEMS215,2018_Mar_23_1055,George,SF,orientation,8,6,8,53-2;1-6;23-34;3-33,4,SimpleHill,3-33,50,1,selected,7-27,5-26;5-25;5-30;11-22;11-21;10-33,5-25,2.01,47,-5,1276.82459203
GEMS215,2018_Mar_23_1055,George,SF,orientation,8,6,8,53-2;1-6;23-34;3-33,4,SimpleHill,3-33,50,2,selected,5-25,5-23;1-25;6-30;5-32;0-23;5-31,6-30,1.47,53,6,1281.86774374
GEMS215,2018_Mar_23_1055,George,SF,orientation,8,6,8,53-2;1-6;23-34;3-33,4,SimpleHill,3-33,50,3,selected,6-30,11-30;9-34;8-30;3-28;7-25;2-32,2-32,2.54,47,-6,1287.97582851
GEMS215,2018_Mar_23_1055,George,SF,orientation,8,6,8,53-2;1-6;23-34;3-33,4,SimpleHill,3-33,50,4,selected,2-32,1-26;1-32;3-27;1-33;0-29;7-38,0-29,1.42,41,-6,1292.96757748
GEMS215,2018_Mar_23_1055,George,SF,orientation,8,6,8,53-2;1-6;23-34;3-33,4,SimpleHill,3-33,50,5,selected,0-29,6-32;6-26;0-24;2-36;1-33;7-28,6-26,0.97,49,8,1297.50775329
GEMS215,2018_Mar_23_1055,George,SF,orientation,8,6,8,53-2;1-6;23-34;3-33,4,SimpleHill,3-33,50,6,selected,6-26,7-27;7-20;8-19;10-29;13-23;6-23,10-29,0.84,59,10,1301.92136248
GEMS215,2018_Mar_23_1055,George,SF,orientation,8,6,8,53-2;1-6;23-34;3-33,4,SimpleHill,3-33,50,7,selected,10-29,7-31;13-28;7-23;16-33;15-29;10-30,7-23,1.25,48,-11,1306.73493211
GEMS215,2018_Mar_23_1055,George,SF,orientation,8,6,8,53-2;1-6;23-34;3-33,4,SimpleHill,3-33,50,8,selected,7-23,7-17;13-20;6-28;5-24;3-23;11-18,7-17,0.49,41,-7,1310.7824835
GEMS215,2018_Mar_23_1055,George,SF,orientation,8,6,8,53-2;1-6;23-34;3-33,4,SimpleHill,3-33,50,9,selected,7-17,13-22;9-21;0-19;11-13;13-21;9-10,9-21,2.14,49,8,1316.46712455
GEMS215,2018_Mar_23_1055,George,SF,orientation,8,6,8,53-2;1-6;23-34;3-33,4,SimpleHill,3-33,50,10,selected,9-21,8-14;2-22;10-21;2-19;16-18;12-23,10-21,0.83,51,2,1320.86225222
GEMS215,2018_Mar_23_1055,George,SF,orientation,8,6,8,53-2;1-6;23-34;3-33,4,SimpleHill,3-33,50,11,selected,10-21,11-19;10-16;15-22;17-19;6-18;17-23,17-19,1.68,59,8,1326.11230904
GEMS215,2018_Mar_23_1055,George,SF,orientation,8,6,8,53-2;1-6;23-34;3-33,4,SimpleHill,3-33,50,12,selected,17-19,22-24;17-23;14-22;20-13;11-14;13-18,13-18,1.87,52,-7,1331.57409476
GEMS215,2018_Mar_23_1055,George,SF,orientation,8,6,8,53-2;1-6;23-34;3-33,4,SimpleHill,3-33,50,13,selected,13-18,10-13;19-13;7-22;19-21;21-18;17-12,7-22,2.27,47,-5,1337.40501374
GEMS215,2018_Mar_23_1055,George,SF,orientation,8,6,8,53-2;1-6;23-34;3-33,4,SimpleHill,3-33,50,14,selected,7-22,5-27;9-27;11-23;0-25;12-16;5-21,11-23,2.66,55,8,1343.62863889
GEMS215,2018_Mar_23_1055,George,SF,orientation,8,6,8,53-2;1-6;23-34;3-33,4,SimpleHill,3-33,50,15,selected,11-23,17-18;15-25;10-17;6-18;9-22;8-19,17-18,5.86,57,2,1353.05590933
GEMS215,2018_Mar_23_1055,George,SF,orientation,8,6,8,53-2;1-6;23-34;3-33,4,SimpleHill,3-33,50,16,selected,17-18,14-19;17-17;15-20;22-18;23-17;16-18,15-20,4.92,57,0,1361.53752864
GEMS215,2018_Mar_23_1055,George,SF,orientation,8,6,8,53-2;1-6;23-34;3-33,4,SimpleHill,3-33,50,17,selected,15-20,19-26;11-24;19-14;17-15;8-23;12-20,12-20,2.98,53,-4,1368.09876719
GEMS215,2018_Mar_23_1055,George,SF,orientation,8,6,8,53-2;1-6;23-34;3-33,4,SimpleHill,3-33,50,18,selected,12-20,18-15;14-26;11-19;7-15;11-22;15-27,11-22,1.92,53,0,1373.58462453
GEMS215,2018_Mar_23_1055,George,SF,orientation,8,6,8,53-2;1-6;23-34;3-33,4,SimpleHill,3-33,50,19,selected,11-22,14-28;7-16;3-22;10-29;12-21;13-16,3-22,2.68,40,-13,1379.82080533
GEMS215,2018_Mar_23_1055,George,SF,orientation,8,6,8,53-2;1-6;23-34;3-33,4,SimpleHill,3-33,50,20,selected,3-22,2-23;1-16;7-27;7-21;10-19;8-16,7-21,0.97,46,6,1384.34634681
GEMS215,2018_Mar_23_1055,George,SF,orientation,8,6,8,53-2;1-6;23-34;3-33,4,SimpleHill,3-33,50,21,selected,7-21,10-18;2-16;4-20;6-16;10-17;10-25,4-20,2.86,39,-7,1390.7656719
GEMS215,2018_Mar_23_1055,George,SF,orientation,8,6,8,53-2;1-6;23-34;3-33,4,SimpleHill,3-33,50,22,selected,4-20,10-22;3-26;5-27;2-14;6-15;3-18,3-18,3.24,35,-4,1397.58529929
GEMS215,2018_Mar_23_1055,George,SF,orientation,8,6,8,53-2;1-6;23-34;3-33,4,SimpleHill,3-33,50,23,selected,3-18,2-13;3-14;7-13;6-13;6-17;0-15,7-13,5.66,35,0,1406.82094713
GEMS215,2018_Mar_23_1055,George,SF,orientation,8,6,8,53-2;1-6;23-34;3-33,4,SimpleHill,3-33,50,24,selected,7-13,11-18;8-19;14-16;12-16;6-9;7-6,12-16,1.04,48,13,1411.43247354
GEMS215,2018_Mar_23_1055,George,SF,orientation,8,6,8,53-2;1-6;23-34;3-33,4,SimpleHill,3-33,50,25,selected,12-16,17-20;10-20;11-14;9-11;13-12;15-13,10-20,1.47,50,2,1416.47771098
GEMS215,2018_Mar_23_1055,George,SF,orientation,8,6,8,53-2;1-6;23-34;3-33,4,SimpleHill,3-33,50,26,selected,10-20,7-20;13-24;14-20;12-22;12-26;11-25,12-26,3.93,59,9,1423.9806187
GEMS215,2018_Mar_23_1055,George,SF,orientation,8,6,8,53-2;1-6;23-34;3-33,4,SimpleHill,3-33,50,27,selected,12-26,12-30;11-28;18-27;9-20;17-21;14-20,18-27,5.59,68,9,1433.1210655
GEMS215,2018_Mar_23_1055,George,SF,orientation,8,6,8,53-2;1-6;23-34;3-33,4,SimpleHill,3-33,50,28,selected,18-27,17-27;24-25;16-25;18-31;18-27;19-21,16-25,1.58,64,-4,1438.28903612
GEMS215,2018_Mar_23_1055,George,SF,orientation,8,6,8,53-2;1-6;23-34;3-33,4,SimpleHill,3-33,50,29,selected,16-25,13-24;16-30;20-22;19-24;15-31;19-22,16-30,7.65,68,4,1449.51127719
GEMS215,2018_Mar_23_1055,George,SF,orientation,8,6,8,53-2;1-6;23-34;3-33,4,SimpleHill,3-33,50,30,selected,16-30,23-29;18-35;19-26;18-31;21-26;15-34,18-31,2.31,72,4,1455.40232976
GEMS215,2018_Mar_23_1055,George,SF,orientation,8,6,8,53-2;1-6;23-34;3-33,4,SimpleHill,3-33,50,31,selected,18-31,15-31;23-33;21-26;20-24;15-25;22-36,23-33,1.11,79,7,1460.08675859
GEMS215,2018_Mar_23_1055,George,SF,orientation,8,6,8,53-2;1-6;23-34;3-33,4,SimpleHill,3-33,50,32,selected,23-33,23-28;26-36;24-39;28-31;20-27;22-32,22-32,1.29,77,-2,1464.95018908
GEMS215,2018_Mar_23_1055,George,SF,orientation,8,6,8,53-2;1-6;23-34;3-33,4,SimpleHill,3-33,50,33,selected,22-32,23-35;24-35;24-36;18-38;22-24;25-26,18-38,1.22,76,-1,1469.74500415
GEMS215,2018_Mar_23_1055,George,SF,orientation,8,6,8,53-2;1-6;23-34;3-33,4,SimpleHill,3-33,50,34,selected,18-38,15-37;17-38;12-35;16-41;17-34;15-36,17-34,1.16,73,-3,1474.4755798
GEMS215,2018_Mar_23_1055,George,SF,orientation,8,6,8,53-2;1-6;23-34;3-33,4,SimpleHill,3-33,50,35,selected,17-34,20-27;17-29;17-41;15-36;15-37;13-38,17-29,2.09,69,-4,1480.12802368
GEMS215,2018_Mar_23_1055,George,SF,orientation,8,6,8,53-2;1-6;23-34;3-33,4,SimpleHill,3-33,50,36,selected,17-29,17-25;12-23;14-34;22-34;16-24;14-32,17-25,1.22,65,-4,1484.91759499
GEMS215,2018_Mar_23_1055,George,SF,orientation,8,6,8,53-2;1-6;23-34;3-33,4,SimpleHill,3-33,50,37,selected,17-25,19-27;22-19;20-22;21-26;19-26;24-22,21-26,0.68,71,6,1489.16622707
GEMS215,2018_Mar_23_1055,George,SF,orientation,8,6,8,53-2;1-6;23-34;3-33,4,SimpleHill,3-33,50,38,selected,21-26,15-30;15-22;23-27;20-33;22-32;21-20,15-22,0.9,59,-12,1493.62978739
GEMS215,2018_Mar_23_1055,George,SF,orientation,8,6,8,53-2;1-6;23-34;3-33,4,SimpleHill,3-33,50,39,selected,15-22,20-23;9-25;16-27;15-17;18-17;13-20,9-25,1.89,53,-6,1499.08475193
