subj_id,date,computer,experimenter,instructions,sight_radius,n_gabors,landscape_ix,landscape_name,starting_pos,starting_score,trial,feedback,pos,stims,selected,rt,score,delta,exp_time
GEMS114,2018_Feb_27_1610,Elaine,GH,spatial_frequency,8,6,0,SpatialFrequencyBias,0-0,0,0,training,0-0,2-5;4-5;4-2;5-6;0-1;3-2,0-1,31.57,3,3,138.194291271
GEMS114,2018_Feb_27_1610,Elaine,GH,spatial_frequency,8,6,0,SpatialFrequencyBias,0-0,0,1,training,0-1,0-5;2-5;6-1;1-7;3-1;3-4,0-5,11.85,19,16,172.668818758
GEMS114,2018_Feb_27_1610,Elaine,GH,spatial_frequency,8,6,0,SpatialFrequencyBias,0-0,0,2,training,0-5,4-5;2-9;2-2;3-7;7-6;6-3,7-6,11.85,22,3,193.416342279
GEMS114,2018_Feb_27_1610,Elaine,GH,spatial_frequency,8,6,0,SpatialFrequencyBias,0-0,0,3,training,7-6,1-2;12-11;9-9;14-3;9-10;14-5,12-11,5.6,39,17,210.959022347
GEMS114,2018_Feb_27_1610,Elaine,GH,spatial_frequency,8,6,0,SpatialFrequencyBias,0-0,0,4,training,12-11,14-14;15-10;13-8;7-10;14-17;18-6,14-17,4.36,56,17,221.059375313
GEMS114,2018_Feb_27_1610,Elaine,GH,spatial_frequency,8,6,0,SpatialFrequencyBias,0-0,0,5,training,14-17,19-23;8-12;14-23;14-12;12-22;16-12,12-22,5.6,68,12,231.400330272
GEMS114,2018_Feb_27_1610,Elaine,GH,spatial_frequency,8,6,0,SpatialFrequencyBias,0-0,0,6,training,12-22,9-22;16-20;5-25;12-30;7-23;11-22,11-22,6.01,68,0,246.102530238
GEMS114,2018_Feb_27_1610,Elaine,GH,spatial_frequency,8,6,0,SpatialFrequencyBias,0-0,0,7,training,11-22,9-15;11-27;5-27;14-27;14-26;17-25,14-27,2.77,78,10,252.947658088
GEMS114,2018_Feb_27_1610,Elaine,GH,spatial_frequency,8,6,0,SpatialFrequencyBias,0-0,0,8,training,14-27,13-21;9-32;9-30;9-29;16-25;11-23,9-30,7.77,84,6,265.997042021
GEMS114,2018_Feb_27_1610,Elaine,GH,spatial_frequency,8,6,0,SpatialFrequencyBias,0-0,0,9,training,9-30,9-30;5-32;5-27;3-32;8-30;10-26,9-30,19.56,84,0,291.121080903
GEMS114,2018_Feb_27_1610,Elaine,GH,spatial_frequency,8,6,0,SpatialFrequencyBias,0-0,0,10,training,9-30,11-37;7-24;11-24;5-25;11-33;7-33,11-33,5.13,88,4,301.158472235
GEMS114,2018_Feb_27_1610,Elaine,GH,spatial_frequency,8,6,0,SpatialFrequencyBias,0-0,0,11,training,11-33,8-31;13-38;14-31;13-32;15-34;13-27,15-34,3.87,89,1,308.490684816
GEMS114,2018_Feb_27_1610,Elaine,GH,spatial_frequency,8,6,0,SpatialFrequencyBias,0-0,0,12,training,15-34,15-32;13-30;12-27;21-35;10-37;21-34,15-32,4.89,87,-2,316.667045123
GEMS114,2018_Feb_27_1610,Elaine,GH,spatial_frequency,8,6,0,SpatialFrequencyBias,0-0,0,13,training,15-32,17-35;13-35;11-33;16-36;12-26;9-32,13-35,5.01,91,4,327.36811068
GEMS114,2018_Feb_27_1610,Elaine,GH,spatial_frequency,8,6,0,SpatialFrequencyBias,0-0,0,14,training,13-35,15-39;13-28;16-30;17-34;10-41;12-34,15-39,7.05,95,4,337.794709697
GEMS114,2018_Feb_27_1610,Elaine,GH,spatial_frequency,8,6,0,SpatialFrequencyBias,0-0,0,15,training,15-39,8-39;14-43;11-35;16-40;13-32;14-45,14-43,19.27,98,3,360.010837385
GEMS114,2018_Feb_27_1610,Elaine,GH,spatial_frequency,8,6,0,SpatialFrequencyBias,0-0,0,16,training,14-43,18-48;12-45;14-47;8-40;19-41;11-44,19-41,2.58,96,-2,366.640478372
GEMS114,2018_Feb_27_1610,Elaine,GH,spatial_frequency,8,6,0,SpatialFrequencyBias,0-0,0,17,training,19-41,20-37;23-38;15-35;17-40;19-40;12-42,20-37,2.59,93,-3,373.542461764
GEMS114,2018_Feb_27_1610,Elaine,GH,spatial_frequency,8,6,0,SpatialFrequencyBias,0-0,0,18,training,20-37,15-38;17-42;22-38;20-35;26-42;18-34,26-42,6.11,97,4,383.709788729
GEMS114,2018_Feb_27_1610,Elaine,GH,spatial_frequency,8,6,0,SpatialFrequencyBias,0-0,0,19,training,26-42,29-39;32-41;31-43;19-45;27-35;28-45,27-35,4.24,91,-6,391.495323603
GEMS114,2018_Feb_27_1610,Elaine,GH,spatial_frequency,8,6,1,SimpleHill,0-0,0,0,selected,0-0,0-4;3-2;1-1;5-3;1-5;0-6,1-5,12.49,11,11,424.539305328
GEMS114,2018_Feb_27_1610,Elaine,GH,spatial_frequency,8,6,1,SimpleHill,0-0,0,1,selected,1-5,1-10;5-8;2-5;6-9;0-10;4-3,1-10,10.57,19,8,438.670966581
GEMS114,2018_Feb_27_1610,Elaine,GH,spatial_frequency,8,6,1,SimpleHill,0-0,0,2,selected,1-10,0-15;0-5;3-4;4-16;0-11;3-8,4-16,2.6,34,15,444.837585821
GEMS114,2018_Feb_27_1610,Elaine,GH,spatial_frequency,8,6,1,SimpleHill,0-0,0,3,selected,4-16,7-20;5-11;3-16;5-14;6-19;9-21,7-20,2.34,45,11,450.745561032
GEMS114,2018_Feb_27_1610,Elaine,GH,spatial_frequency,8,6,1,SimpleHill,0-0,0,4,selected,7-20,3-18;11-23;11-16;11-18;7-13;5-13,11-23,3.41,55,10,457.718093539
GEMS114,2018_Feb_27_1610,Elaine,GH,spatial_frequency,8,6,1,SimpleHill,0-0,0,5,selected,11-23,7-24;14-21;12-24;4-21;12-27;15-27,15-27,3.74,64,9,465.034346289
GEMS114,2018_Feb_27_1610,Elaine,GH,spatial_frequency,8,6,1,SimpleHill,0-0,0,6,selected,15-27,15-26;21-23;17-33;19-22;10-32;11-26,11-26,5.22,58,-6,473.823666901
GEMS114,2018_Feb_27_1610,Elaine,GH,spatial_frequency,8,6,1,SimpleHill,0-0,0,7,selected,11-26,7-22;4-26;11-31;5-22;5-21;5-25,5-22,2.98,43,-15,480.379172451
GEMS114,2018_Feb_27_1610,Elaine,GH,spatial_frequency,8,6,1,SimpleHill,0-0,0,8,selected,5-22,3-26;3-17;2-19;6-25;6-19;9-18,3-17,4.03,34,-9,487.967008985
GEMS114,2018_Feb_27_1610,Elaine,GH,spatial_frequency,8,6,1,SimpleHill,0-0,0,9,selected,3-17,7-22;5-19;1-24;5-17;3-18;2-18,1-24,7.3,38,4,498.848910388
GEMS114,2018_Feb_27_1610,Elaine,GH,spatial_frequency,8,6,1,SimpleHill,0-0,0,10,selected,1-24,1-27;5-19;8-22;1-31;5-28;8-21,1-27,4.62,41,3,507.045424384
GEMS114,2018_Feb_27_1610,Elaine,GH,spatial_frequency,8,6,1,SimpleHill,0-0,0,11,selected,1-27,2-34;1-19;2-22;3-21;1-26;6-25,1-26,19.52,40,-1,530.141095672
GEMS114,2018_Feb_27_1610,Elaine,GH,spatial_frequency,8,6,1,SimpleHill,0-0,0,12,selected,1-26,2-24;4-25;3-33;3-26;8-28;6-29,2-24,1.35,40,0,535.074804111
GEMS114,2018_Feb_27_1610,Elaine,GH,spatial_frequency,8,6,1,SimpleHill,0-0,0,13,selected,2-24,6-23;10-24;1-22;7-24;3-30;4-28,6-23,2.99,46,6,541.63447343
GEMS114,2018_Feb_27_1610,Elaine,GH,spatial_frequency,8,6,1,SimpleHill,0-0,0,14,selected,6-23,0-20;11-17;7-20;0-25;7-22;8-30,7-22,4.12,47,1,549.317135565
GEMS114,2018_Feb_27_1610,Elaine,GH,spatial_frequency,8,6,1,SimpleHill,0-0,0,15,selected,7-22,4-20;12-19;10-18;12-28;0-23;12-21,12-21,3.17,54,7,556.058249546
GEMS114,2018_Feb_27_1610,Elaine,GH,spatial_frequency,8,6,1,SimpleHill,0-0,0,16,selected,12-21,8-21;11-16;16-21;9-28;9-19;8-27,8-21,4.5,47,-7,564.131669576
GEMS114,2018_Feb_27_1610,Elaine,GH,spatial_frequency,8,6,1,SimpleHill,0-0,0,17,selected,8-21,10-17;8-21;7-26;10-19;1-21;11-28,1-21,7.83,35,-12,575.531295323
GEMS114,2018_Feb_27_1610,Elaine,GH,spatial_frequency,8,6,1,SimpleHill,0-0,0,18,selected,1-21,4-18;6-21;0-20;0-26;7-18;1-22,1-22,8.08,36,1,587.186301752
GEMS114,2018_Feb_27_1610,Elaine,GH,spatial_frequency,8,6,1,SimpleHill,0-0,0,19,selected,1-22,2-25;3-18;3-22;4-21;2-22;5-20,2-22,13.6,38,2,604.331077212
GEMS114,2018_Feb_27_1610,Elaine,GH,spatial_frequency,8,6,1,SimpleHill,0-0,0,20,selected,2-22,8-22;8-19;6-24;7-27;3-18;8-23,7-27,8.59,52,14,616.483330682
GEMS114,2018_Feb_27_1610,Elaine,GH,spatial_frequency,8,6,1,SimpleHill,0-0,0,21,selected,7-27,4-32;8-26;3-29;10-31;14-26;12-24,10-31,8.82,60,8,628.855608652
GEMS114,2018_Feb_27_1610,Elaine,GH,spatial_frequency,8,6,1,SimpleHill,0-0,0,22,selected,10-31,10-25;13-38;16-33;8-35;15-34;8-26,15-34,6.04,70,10,638.468421075
GEMS114,2018_Feb_27_1610,Elaine,GH,spatial_frequency,8,6,1,SimpleHill,0-0,0,23,selected,15-34,17-36;14-41;15-38;16-28;13-28;14-38,14-38,4.91,71,1,646.9623766
GEMS114,2018_Feb_27_1610,Elaine,GH,spatial_frequency,8,6,1,SimpleHill,0-0,0,24,selected,14-38,16-42;13-44;8-33;16-38;16-41;19-33,16-38,12.68,74,3,663.21330767
GEMS114,2018_Feb_27_1610,Elaine,GH,spatial_frequency,8,6,1,SimpleHill,0-0,0,25,selected,16-38,15-39;21-35;17-36;20-41;18-35;18-43,20-41,3.74,80,6,670.534119183
GEMS114,2018_Feb_27_1610,Elaine,GH,spatial_frequency,8,6,1,SimpleHill,0-0,0,26,selected,20-41,14-44;14-40;17-41;20-41;16-43;22-44,14-44,5.37,73,-7,679.470442461
GEMS114,2018_Feb_27_1610,Elaine,GH,spatial_frequency,8,6,1,SimpleHill,0-0,0,27,selected,14-44,11-49;17-42;12-50;15-49;21-42;18-40,17-42,3.22,76,3,686.279381568
GEMS114,2018_Feb_27_1610,Elaine,GH,spatial_frequency,8,6,1,SimpleHill,0-0,0,28,selected,17-42,23-42;14-37;22-39;22-47;16-39;18-37,22-39,4.05,81,5,693.898844241
GEMS114,2018_Feb_27_1610,Elaine,GH,spatial_frequency,8,6,1,SimpleHill,0-0,0,29,selected,22-39,29-39;21-32;22-37;28-43;29-37;15-39,28-43,2.8,89,8,700.278963206
GEMS114,2018_Feb_27_1610,Elaine,GH,spatial_frequency,8,6,1,SimpleHill,0-0,0,30,selected,28-43,28-41;28-44;29-38;26-46;30-44;32-42,29-38,2.85,88,-1,706.676218346
GEMS114,2018_Feb_27_1610,Elaine,GH,spatial_frequency,8,6,1,SimpleHill,0-0,0,31,selected,29-38,23-39;27-34;29-31;23-42;25-37;24-32,29-31,1.43,83,-5,711.699615536
GEMS114,2018_Feb_27_1610,Elaine,GH,spatial_frequency,8,6,1,SimpleHill,0-0,0,32,selected,29-31,32-31;22-33;29-34;31-25;22-30;24-31,29-34,5.27,86,3,720.545574347
GEMS114,2018_Feb_27_1610,Elaine,GH,spatial_frequency,8,6,1,SimpleHill,0-0,0,33,selected,29-34,32-27;31-35;31-28;35-33;33-39;31-34,35-33,4.11,89,3,728.216403289
GEMS114,2018_Feb_27_1610,Elaine,GH,spatial_frequency,8,6,1,SimpleHill,0-0,0,34,selected,35-33,40-33;41-32;38-26;40-35;34-39;28-35,41-32,3.18,91,2,734.963498526
GEMS114,2018_Feb_27_1610,Elaine,GH,spatial_frequency,8,6,1,SimpleHill,0-0,0,35,selected,41-32,44-30;46-32;34-34;38-31;39-25;46-35,44-30,2.15,91,0,740.690770089
GEMS114,2018_Feb_27_1610,Elaine,GH,spatial_frequency,8,6,1,SimpleHill,0-0,0,36,selected,44-30,40-28;38-31;44-35;52-30;48-35;44-29,48-35,4.31,95,4,748.565275746
GEMS114,2018_Feb_27_1610,Elaine,GH,spatial_frequency,8,6,1,SimpleHill,0-0,0,37,selected,48-35,42-36;54-36;52-29;52-37;46-32;41-33,52-37,4.36,96,1,756.49882926
GEMS114,2018_Feb_27_1610,Elaine,GH,spatial_frequency,8,6,1,SimpleHill,0-0,0,38,selected,52-37,49-35;48-35;46-32;46-33;50-34;49-34,48-35,3.53,95,-1,763.595692574
GEMS114,2018_Feb_27_1610,Elaine,GH,spatial_frequency,8,6,1,SimpleHill,0-0,0,39,selected,48-35,53-39;50-35;44-38;46-33;50-31;52-32,53-39,0.91,97,2,768.090035412
GEMS114,2018_Feb_27_1610,Elaine,GH,spatial_frequency,8,6,2,SimpleHill,0-0,0,0,selected,0-0,8-0;7-0;6-4;0-7;0-1;5-3,0-7,4.62,13,13,790.249923418
GEMS114,2018_Feb_27_1610,Elaine,GH,spatial_frequency,8,6,2,SimpleHill,0-0,0,1,selected,0-7,1-6;1-11;4-12;4-5;2-5;5-12,1-11,2.94,21,8,796.766196461
GEMS114,2018_Feb_27_1610,Elaine,GH,spatial_frequency,8,6,2,SimpleHill,0-0,0,2,selected,1-11,0-16;2-16;2-10;4-11;4-18;4-15,0-16,3.2,26,5,803.515725044
GEMS114,2018_Feb_27_1610,Elaine,GH,spatial_frequency,8,6,2,SimpleHill,0-0,0,3,selected,0-16,2-20;1-16;1-14;1-11;2-13;0-23,0-23,2.71,35,9,809.774560168
GEMS114,2018_Feb_27_1610,Elaine,GH,spatial_frequency,8,6,2,SimpleHill,0-0,0,4,selected,0-23,0-29;6-28;1-26;4-27;4-24;7-21,6-28,8.43,51,16,821.786457381
GEMS114,2018_Feb_27_1610,Elaine,GH,spatial_frequency,8,6,2,SimpleHill,0-0,0,5,selected,6-28,11-27;4-35;5-34;13-31;1-30;11-34,13-31,3.44,65,14,828.803343562
GEMS114,2018_Feb_27_1610,Elaine,GH,spatial_frequency,8,6,2,SimpleHill,0-0,0,6,selected,13-31,19-27;16-36;19-35;17-33;10-37;15-34,15-34,4.74,70,5,837.102902506
GEMS114,2018_Feb_27_1610,Elaine,GH,spatial_frequency,8,6,2,SimpleHill,0-0,0,7,selected,15-34,20-31;16-35;12-36;12-30;11-35;20-35,16-35,4.01,72,2,844.675594805
GEMS114,2018_Feb_27_1610,Elaine,GH,spatial_frequency,8,6,2,SimpleHill,0-0,0,8,selected,16-35,21-31;17-34;20-35;21-39;14-40;10-40,14-40,6.51,72,0,854.763691734
GEMS114,2018_Feb_27_1610,Elaine,GH,spatial_frequency,8,6,2,SimpleHill,0-0,0,9,selected,14-40,18-41;13-37;10-45;12-39;8-44;16-43,12-39,3.81,68,-4,862.140070094
GEMS114,2018_Feb_27_1610,Elaine,GH,spatial_frequency,8,6,2,SimpleHill,0-0,0,10,selected,12-39,13-42;7-43;13-45;14-37;10-37;11-38,13-42,4.02,71,3,869.70886206
GEMS114,2018_Feb_27_1610,Elaine,GH,spatial_frequency,8,6,2,SimpleHill,0-0,0,11,selected,13-42,13-47;16-47;11-45;16-46;18-46;13-38,13-47,10.28,72,1,883.571184981
GEMS114,2018_Feb_27_1610,Elaine,GH,spatial_frequency,8,6,2,SimpleHill,0-0,0,12,selected,13-47,12-48;14-44;16-47;7-51;10-41;8-42,7-51,7.06,63,-9,894.212137731
GEMS114,2018_Feb_27_1610,Elaine,GH,spatial_frequency,8,6,2,SimpleHill,0-0,0,13,selected,7-51,3-50;2-52;4-57;10-52;7-50;12-56,7-50,2.77,63,0,900.555028291
GEMS114,2018_Feb_27_1610,Elaine,GH,spatial_frequency,8,6,2,SimpleHill,0-0,0,14,selected,7-50,7-56;12-44;11-55;5-57;1-47;1-51,5-57,6.59,58,-5,910.710114904
GEMS114,2018_Feb_27_1610,Elaine,GH,spatial_frequency,8,6,2,SimpleHill,0-0,0,15,selected,5-57,9-59;5-60;2-56;0-63;11-58;7-52,2-56,0.94,53,-5,915.28411094
GEMS114,2018_Feb_27_1610,Elaine,GH,spatial_frequency,8,6,2,SimpleHill,0-0,0,16,selected,2-56,0-56;2-59;8-58;8-59;6-57;3-51,0-56,3.5,49,-4,922.370710155
GEMS114,2018_Feb_27_1610,Elaine,GH,spatial_frequency,8,6,2,SimpleHill,0-0,0,17,selected,0-56,2-59;0-50;6-51;1-61;4-54;6-57,1-61,3.26,49,0,929.211645748
GEMS114,2018_Feb_27_1610,Elaine,GH,spatial_frequency,8,6,2,SimpleHill,0-0,0,18,selected,1-61,5-60;6-64;3-55;2-66;1-58;4-56,6-64,4.21,57,8,936.995324723
GEMS114,2018_Feb_27_1610,Elaine,GH,spatial_frequency,8,6,2,SimpleHill,0-0,0,19,selected,6-64,7-64;11-63;9-69;6-64;11-65;5-68,7-64,12.15,59,2,952.71509747
GEMS114,2018_Feb_27_1610,Elaine,GH,spatial_frequency,8,6,2,SimpleHill,0-0,0,20,selected,7-64,7-63;6-70;10-66;3-64;10-58;0-61,3-64,5.61,51,-8,961.890106985
GEMS114,2018_Feb_27_1610,Elaine,GH,spatial_frequency,8,6,2,SimpleHill,0-0,0,21,selected,3-64,6-65;5-68;4-68;5-58;9-68;9-67,5-68,0.83,53,2,966.291336077
GEMS114,2018_Feb_27_1610,Elaine,GH,spatial_frequency,8,6,2,SimpleHill,0-0,0,22,selected,5-68,6-61;4-66;5-61;8-67;0-68;10-68,0-68,1.58,43,-10,971.44091037
GEMS114,2018_Feb_27_1610,Elaine,GH,spatial_frequency,8,6,2,SimpleHill,0-0,0,23,selected,0-68,0-65;0-66;2-68;0-69;2-62;3-69,0-65,0.55,45,2,975.55457504
GEMS114,2018_Feb_27_1610,Elaine,GH,spatial_frequency,8,6,2,SimpleHill,0-0,0,24,selected,0-65,5-62;4-68;2-65;5-66;2-64;1-68,5-62,3.52,56,11,982.635111375
GEMS114,2018_Feb_27_1610,Elaine,GH,spatial_frequency,8,6,2,SimpleHill,0-0,0,25,selected,5-62,10-67;5-69;0-58;3-60;2-56;6-62,3-60,3.3,53,-3,989.515706159
GEMS114,2018_Feb_27_1610,Elaine,GH,spatial_frequency,8,6,2,SimpleHill,0-0,0,26,selected,3-60,9-63;0-63;7-58;9-57;7-62;2-53,7-62,2.1,60,7,995.187614453
GEMS114,2018_Feb_27_1610,Elaine,GH,spatial_frequency,8,6,2,SimpleHill,0-0,0,27,selected,7-62,14-65;6-55;7-56;14-62;12-61;8-61,8-61,2.6,62,2,1001.33539975
GEMS114,2018_Feb_27_1610,Elaine,GH,spatial_frequency,8,6,2,SimpleHill,0-0,0,28,selected,8-61,7-55;3-67;10-59;8-68;5-62;5-58,5-58,3.55,58,-4,1008.45967678
GEMS114,2018_Feb_27_1610,Elaine,GH,spatial_frequency,8,6,2,SimpleHill,0-0,0,29,selected,5-58,10-52;4-51;6-53;5-65;6-65;2-59,2-59,3.13,52,-6,1015.16098592
GEMS114,2018_Feb_27_1610,Elaine,GH,spatial_frequency,8,6,2,SimpleHill,0-0,0,30,selected,2-59,7-54;8-57;6-55;9-56;4-63;5-64,9-56,2.21,65,13,1020.95396904
GEMS114,2018_Feb_27_1610,Elaine,GH,spatial_frequency,8,6,2,SimpleHill,0-0,0,31,selected,9-56,9-53;8-49;5-58;4-54;14-50;5-57,9-53,2.3,66,1,1026.84265449
GEMS114,2018_Feb_27_1610,Elaine,GH,spatial_frequency,8,6,2,SimpleHill,0-0,0,32,selected,9-53,4-47;9-60;3-57;2-54;13-51;11-48,9-60,3.52,64,-2,1033.94221299
GEMS114,2018_Feb_27_1610,Elaine,GH,spatial_frequency,8,6,2,SimpleHill,0-0,0,33,selected,9-60,9-53;8-65;16-60;11-57;2-57;9-57,2-57,4.5,52,-12,1042.02392246
GEMS114,2018_Feb_27_1610,Elaine,GH,spatial_frequency,8,6,2,SimpleHill,0-0,0,34,selected,2-57,8-58;1-60;3-56;3-64;3-61;2-53,3-56,3.07,55,3,1048.65804347
GEMS114,2018_Feb_27_1610,Elaine,GH,spatial_frequency,8,6,2,SimpleHill,0-0,0,35,selected,3-56,1-59;8-54;7-60;10-55;1-51;4-59,10-55,2.34,67,12,1054.63498078
GEMS114,2018_Feb_27_1610,Elaine,GH,spatial_frequency,8,6,2,SimpleHill,0-0,0,36,selected,10-55,8-59;9-59;7-57;12-56;14-53;8-62,8-59,3.34,63,-4,1061.54828041
GEMS114,2018_Feb_27_1610,Elaine,GH,spatial_frequency,8,6,2,SimpleHill,0-0,0,37,selected,8-59,2-64;8-51;7-64;3-53;6-61;12-60,12-60,4.21,69,6,1069.30730327
GEMS114,2018_Feb_27_1610,Elaine,GH,spatial_frequency,8,6,2,SimpleHill,0-0,0,38,selected,12-60,14-54;4-60;6-55;6-59;14-65;13-54,6-59,2.75,59,-10,1075.61164056
GEMS114,2018_Feb_27_1610,Elaine,GH,spatial_frequency,8,6,2,SimpleHill,0-0,0,39,selected,6-59,1-53;5-58;6-51;4-59;1-55;11-53,5-58,8.03,58,-1,1087.20687092
GEMS114,2018_Feb_27_1610,Elaine,GH,spatial_frequency,8,6,3,SimpleHill,0-0,0,0,selected,0-0,7-1;0-1;7-3;0-7;6-4;3-7,3-7,9.95,18,18,1107.26446524
GEMS114,2018_Feb_27_1610,Elaine,GH,spatial_frequency,8,6,3,SimpleHill,0-0,0,1,selected,3-7,2-14;2-13;5-3;7-5;10-5;10-7,2-14,2.66,28,10,1113.48466195
GEMS114,2018_Feb_27_1610,Elaine,GH,spatial_frequency,8,6,3,SimpleHill,0-0,0,2,selected,2-14,9-16;9-11;0-7;3-11;2-18;4-9,2-18,5.92,33,5,1122.97411825
GEMS114,2018_Feb_27_1610,Elaine,GH,spatial_frequency,8,6,3,SimpleHill,0-0,0,3,selected,2-18,1-14;1-15;5-12;8-13;0-24;6-14,0-24,2.47,36,3,1129.00998242
GEMS114,2018_Feb_27_1610,Elaine,GH,spatial_frequency,8,6,3,SimpleHill,0-0,0,4,selected,0-24,6-27;3-31;1-26;5-29;1-30;1-19,3-31,4.69,48,12,1137.28375084
GEMS114,2018_Feb_27_1610,Elaine,GH,spatial_frequency,8,6,3,SimpleHill,0-0,0,5,selected,3-31,5-29;6-32;0-27;3-32;6-26;2-25,6-32,6.49,54,6,1147.35991598
GEMS114,2018_Feb_27_1610,Elaine,GH,spatial_frequency,8,6,3,SimpleHill,0-0,0,6,selected,6-32,9-27;3-26;0-34;11-38;1-32;1-35,11-38,6.26,66,12,1157.19100424
GEMS114,2018_Feb_27_1610,Elaine,GH,spatial_frequency,8,6,3,SimpleHill,0-0,0,7,selected,11-38,16-41;6-41;12-36;18-40;8-44;15-32,6-41,8.69,59,-7,1169.46259442
GEMS114,2018_Feb_27_1610,Elaine,GH,spatial_frequency,8,6,3,SimpleHill,0-0,0,8,selected,6-41,3-39;11-45;4-47;2-47;11-43;0-39,11-45,8.08,69,10,1181.13035976
GEMS114,2018_Feb_27_1610,Elaine,GH,spatial_frequency,8,6,3,SimpleHill,0-0,0,9,selected,11-45,9-50;13-39;18-43;12-49;5-46;7-44,9-50,16.36,66,-3,1201.07503586
GEMS114,2018_Feb_27_1610,Elaine,GH,spatial_frequency,8,6,3,SimpleHill,0-0,0,10,selected,9-50,9-51;10-50;12-52;13-49;9-43;14-49,13-49,3.06,72,6,1207.70325051
GEMS114,2018_Feb_27_1610,Elaine,GH,spatial_frequency,8,6,3,SimpleHill,0-0,0,11,selected,13-49,12-56;16-43;5-49;17-51;16-51;7-46,12-56,5.42,70,-2,1216.67486691
GEMS114,2018_Feb_27_1610,Elaine,GH,spatial_frequency,8,6,3,SimpleHill,0-0,0,12,selected,12-56,10-56;11-59;15-55;17-50;15-52;11-62,11-62,8.45,66,-4,1228.68729036
GEMS114,2018_Feb_27_1610,Elaine,GH,spatial_frequency,8,6,3,SimpleHill,0-0,0,13,selected,11-62,13-67;9-69;13-66;17-65;9-68;17-62,9-68,5.21,59,-7,1237.4519142
GEMS114,2018_Feb_27_1610,Elaine,GH,spatial_frequency,8,6,3,SimpleHill,0-0,0,14,selected,9-68,10-61;15-70;5-66;5-67;6-63;7-68,15-70,1.19,67,8,1242.19572977
GEMS114,2018_Feb_27_1610,Elaine,GH,spatial_frequency,8,6,3,SimpleHill,0-0,0,15,selected,15-70,20-64;10-66;19-70;9-70;13-64;13-66,20-64,4.35,78,11,1250.12021345
GEMS114,2018_Feb_27_1610,Elaine,GH,spatial_frequency,8,6,3,SimpleHill,0-0,0,16,selected,20-64,18-63;23-67;15-67;18-57;23-59;25-59,15-67,5.86,69,-9,1259.5572747
GEMS114,2018_Feb_27_1610,Elaine,GH,spatial_frequency,8,6,3,SimpleHill,0-0,0,17,selected,15-67,16-61;20-64;15-66;9-68;16-66;19-66,16-61,1.7,74,5,1264.82314483
GEMS114,2018_Feb_27_1610,Elaine,GH,spatial_frequency,8,6,3,SimpleHill,0-0,0,18,selected,16-61,21-65;18-58;23-62;20-58;22-64;15-61,20-58,3.36,80,6,1271.75333033
GEMS114,2018_Feb_27_1610,Elaine,GH,spatial_frequency,8,6,3,SimpleHill,0-0,0,19,selected,20-58,25-58;19-57;16-55;15-64;17-52;23-59,23-59,3.28,83,3,1278.60604278
GEMS114,2018_Feb_27_1610,Elaine,GH,spatial_frequency,8,6,3,SimpleHill,0-0,0,20,selected,23-59,26-64;25-53;22-60;21-61;26-56;15-59,15-59,4.18,73,-10,1286.35586745
GEMS114,2018_Feb_27_1610,Elaine,GH,spatial_frequency,8,6,3,SimpleHill,0-0,0,21,selected,15-59,21-58;20-62;15-60;16-55;12-55;16-59,20-62,1.75,79,6,1291.67245245
GEMS114,2018_Feb_27_1610,Elaine,GH,spatial_frequency,8,6,3,SimpleHill,0-0,0,22,selected,20-62,16-58;20-66;17-55;19-65;17-68;21-58,19-65,6.48,76,-3,1301.71059792
GEMS114,2018_Feb_27_1610,Elaine,GH,spatial_frequency,8,6,3,SimpleHill,0-0,0,23,selected,19-65,26-68;12-65;26-62;13-63;26-63;23-70,26-68,1.03,82,6,1306.30320832
GEMS114,2018_Feb_27_1610,Elaine,GH,spatial_frequency,8,6,3,SimpleHill,0-0,0,24,selected,26-68,26-69;28-63;31-65;22-68;23-61;33-65,33-65,2.45,89,7,1312.31541763
GEMS114,2018_Feb_27_1610,Elaine,GH,spatial_frequency,8,6,3,SimpleHill,0-0,0,25,selected,33-65,27-60;33-58;32-64;34-66;34-69;36-69,34-69,3.31,87,-2,1319.18778154
GEMS114,2018_Feb_27_1610,Elaine,GH,spatial_frequency,8,6,3,SimpleHill,0-0,0,26,selected,34-69,30-67;37-63;34-62;31-65;29-66;39-63,31-65,2.19,88,1,1324.94762352
GEMS114,2018_Feb_27_1610,Elaine,GH,spatial_frequency,8,6,3,SimpleHill,0-0,0,27,selected,31-65,26-70;35-66;25-60;30-61;28-70;33-65,30-61,6.05,89,1,1334.55311606
GEMS114,2018_Feb_27_1610,Elaine,GH,spatial_frequency,8,6,3,SimpleHill,0-0,0,28,selected,30-61,24-64;32-63;28-65;27-66;35-55;31-61,32-63,1.69,90,1,1339.79255323
GEMS114,2018_Feb_27_1610,Elaine,GH,spatial_frequency,8,6,3,SimpleHill,0-0,0,29,selected,32-63,32-55;28-63;38-65;30-62;31-64;27-69,31-64,2.42,88,-2,1345.78148186
GEMS114,2018_Feb_27_1610,Elaine,GH,spatial_frequency,8,6,3,SimpleHill,0-0,0,30,selected,31-64,26-69;31-67;30-70;33-66;28-69;32-61,33-66,1.62,89,1,1350.97047079
GEMS114,2018_Feb_27_1610,Elaine,GH,spatial_frequency,8,6,3,SimpleHill,0-0,0,31,selected,33-66,32-62;39-64;34-65;29-69;38-62;30-63,32-62,1.68,90,1,1356.23702431
GEMS114,2018_Feb_27_1610,Elaine,GH,spatial_frequency,8,6,3,SimpleHill,0-0,0,32,selected,32-62,33-61;33-60;28-60;37-60;31-56;26-59,26-59,1.25,86,-4,1361.0537468
GEMS114,2018_Feb_27_1610,Elaine,GH,spatial_frequency,8,6,3,SimpleHill,0-0,0,33,selected,26-59,26-57;24-66;22-53;20-57;20-61;33-59,20-61,2.3,79,-7,1366.93402181
GEMS114,2018_Feb_27_1610,Elaine,GH,spatial_frequency,8,6,3,SimpleHill,0-0,0,34,selected,20-61,16-58;19-64;19-65;25-62;24-62;15-64,16-58,1.12,75,-4,1371.60394873
GEMS114,2018_Feb_27_1610,Elaine,GH,spatial_frequency,8,6,3,SimpleHill,0-0,0,35,selected,16-58,12-63;18-65;19-60;11-54;19-51;21-61,18-65,2.32,75,0,1377.49526887
GEMS114,2018_Feb_27_1610,Elaine,GH,spatial_frequency,8,6,3,SimpleHill,0-0,0,36,selected,18-65,25-63;12-64;22-62;24-69;24-65;18-65,25-63,1.84,84,9,1382.91308325
GEMS114,2018_Feb_27_1610,Elaine,GH,spatial_frequency,8,6,3,SimpleHill,0-0,0,37,selected,25-63,27-60;23-63;31-58;26-67;21-66;25-59,26-67,2.75,82,-2,1389.24816483
GEMS114,2018_Feb_27_1610,Elaine,GH,spatial_frequency,8,6,3,SimpleHill,0-0,0,38,selected,26-67,26-68;26-63;31-65;29-70;27-62;27-65,31-65,0.92,88,6,1393.72142891
GEMS114,2018_Feb_27_1610,Elaine,GH,spatial_frequency,8,6,3,SimpleHill,0-0,0,39,selected,31-65,37-70;32-59;30-68;28-60;26-59;31-69,26-59,3.33,86,-2,1400.62331371
GEMS114,2018_Feb_27_1610,Elaine,GH,spatial_frequency,8,6,4,SimpleHill,0-0,0,0,selected,0-0,0-2;2-0;0-4;4-2;3-0;3-5,0-4,6.17,7,7,1416.40277002
GEMS114,2018_Feb_27_1610,Elaine,GH,spatial_frequency,8,6,4,SimpleHill,0-0,0,1,selected,0-4,5-8;3-7;1-1;3-2;3-5;1-6,3-7,6.14,18,11,1426.11534292
GEMS114,2018_Feb_27_1610,Elaine,GH,spatial_frequency,8,6,4,SimpleHill,0-0,0,2,selected,3-7,6-6;6-7;6-0;7-1;4-13;9-3,4-13,3.31,30,12,1433.00899813
GEMS114,2018_Feb_27_1610,Elaine,GH,spatial_frequency,8,6,4,SimpleHill,0-0,0,3,selected,4-13,8-19;7-8;10-17;5-17;3-20;4-12,8-19,4.5,45,15,1441.08397637
GEMS114,2018_Feb_27_1610,Elaine,GH,spatial_frequency,8,6,4,SimpleHill,0-0,0,4,selected,8-19,3-23;12-21;5-26;14-23;8-14;10-21,3-23,4.76,41,-4,1449.41309014
GEMS114,2018_Feb_27_1610,Elaine,GH,spatial_frequency,8,6,4,SimpleHill,0-0,0,5,selected,3-23,5-21;8-29;8-27;9-25;8-21;4-22,9-25,5.39,53,12,1458.36332145
GEMS114,2018_Feb_27_1610,Elaine,GH,spatial_frequency,8,6,4,SimpleHill,0-0,0,6,selected,9-25,14-23;13-30;6-28;6-22;10-21;14-31,14-31,5.73,66,13,1467.65782709
GEMS114,2018_Feb_27_1610,Elaine,GH,spatial_frequency,8,6,4,SimpleHill,0-0,0,7,selected,14-31,19-28;9-36;8-27;8-26;20-29;16-32,20-29,5.35,73,7,1476.59569962
GEMS114,2018_Feb_27_1610,Elaine,GH,spatial_frequency,8,6,4,SimpleHill,0-0,0,8,selected,20-29,13-28;24-29;21-27;18-23;14-28;27-28,24-29,9.88,77,4,1490.0414674
GEMS114,2018_Feb_27_1610,Elaine,GH,spatial_frequency,8,6,4,SimpleHill,0-0,0,9,selected,24-29,27-27;23-31;19-24;24-33;19-23;19-25,23-31,3.06,78,1,1496.66007094
GEMS114,2018_Feb_27_1610,Elaine,GH,spatial_frequency,8,6,4,SimpleHill,0-0,0,10,selected,23-31,24-26;29-35;27-35;19-31;21-32;25-30,29-35,4.2,86,8,1504.4347361
GEMS114,2018_Feb_27_1610,Elaine,GH,spatial_frequency,8,6,4,SimpleHill,0-0,0,11,selected,29-35,34-40;32-29;29-34;23-31;27-28;32-39,32-39,3.85,91,5,1511.86337283
GEMS114,2018_Feb_27_1610,Elaine,GH,spatial_frequency,8,6,4,SimpleHill,0-0,0,12,selected,32-39,27-38;31-42;29-46;31-38;40-39;34-43,34-43,3.91,93,2,1519.35369018
GEMS114,2018_Feb_27_1610,Elaine,GH,spatial_frequency,8,6,4,SimpleHill,0-0,0,13,selected,34-43,33-40;33-44;34-49;37-50;32-45;39-39,34-49,12.9,94,1,1535.83278379
GEMS114,2018_Feb_27_1610,Elaine,GH,spatial_frequency,8,6,4,SimpleHill,0-0,0,14,selected,34-49,39-46;38-48;34-43;33-54;40-49;32-56,33-54,7.86,93,-1,1547.2722611
GEMS114,2018_Feb_27_1610,Elaine,GH,spatial_frequency,8,6,4,SimpleHill,0-0,0,15,selected,33-54,31-55;28-52;31-47;30-57;34-49;34-55,31-55,4.46,92,-1,1555.29861723
GEMS114,2018_Feb_27_1610,Elaine,GH,spatial_frequency,8,6,4,SimpleHill,0-0,0,16,selected,31-55,37-57;24-58;27-58;36-52;28-49;37-52,28-49,2.65,90,-2,1561.50507139
GEMS114,2018_Feb_27_1610,Elaine,GH,spatial_frequency,8,6,4,SimpleHill,0-0,0,17,selected,28-49,24-50;35-49;29-49;28-41;28-55;28-45,24-50,1.92,86,-4,1566.99814154
GEMS114,2018_Feb_27_1610,Elaine,GH,spatial_frequency,8,6,4,SimpleHill,0-0,0,18,selected,24-50,18-45;25-53;23-50;28-45;27-57;24-44,27-57,2.64,88,2,1573.20373625
GEMS114,2018_Feb_27_1610,Elaine,GH,spatial_frequency,8,6,4,SimpleHill,0-0,0,19,selected,27-57,24-57;30-62;31-55;22-58;35-57;23-61,23-61,6.65,83,-5,1583.41148167
GEMS114,2018_Feb_27_1610,Elaine,GH,spatial_frequency,8,6,4,SimpleHill,0-0,0,20,selected,23-61,23-59;19-58;23-65;18-65;22-65;26-62,23-59,1.01,83,0,1587.98441788
GEMS114,2018_Feb_27_1610,Elaine,GH,spatial_frequency,8,6,4,SimpleHill,0-0,0,21,selected,23-59,24-62;27-55;30-57;19-58;25-56;26-59,26-59,2.06,86,3,1593.61546983
GEMS114,2018_Feb_27_1610,Elaine,GH,spatial_frequency,8,6,4,SimpleHill,0-0,0,22,selected,26-59,32-57;30-60;29-57;31-56;30-56;32-54,30-60,2.36,90,4,1599.55550203
GEMS114,2018_Feb_27_1610,Elaine,GH,spatial_frequency,8,6,4,SimpleHill,0-0,0,23,selected,30-60,34-64;30-56;35-55;35-60;23-60;26-58,26-58,2.95,87,-3,1606.07120723
GEMS114,2018_Feb_27_1610,Elaine,GH,spatial_frequency,8,6,4,SimpleHill,0-0,0,24,selected,26-58,21-59;23-53;19-55;33-56;20-60;21-57,21-59,1.85,81,-6,1611.48821434
GEMS114,2018_Feb_27_1610,Elaine,GH,spatial_frequency,8,6,4,SimpleHill,0-0,0,25,selected,21-59,28-57;19-57;21-60;25-62;17-65;26-61,26-61,2.28,86,5,1617.35443055
GEMS114,2018_Feb_27_1610,Elaine,GH,spatial_frequency,8,6,4,SimpleHill,0-0,0,26,selected,26-61,24-56;28-67;22-63;31-60;23-56;20-60,20-60,2.01,80,-6,1622.94003796
GEMS114,2018_Feb_27_1610,Elaine,GH,spatial_frequency,8,6,4,SimpleHill,0-0,0,27,selected,20-60,19-59;18-66;25-66;26-58;15-58;25-61,19-59,5.61,79,-1,1632.11077519
GEMS114,2018_Feb_27_1610,Elaine,GH,spatial_frequency,8,6,4,SimpleHill,0-0,0,28,selected,19-59,20-57;14-59;23-57;15-63;22-60;24-64,24-64,1.19,82,3,1636.86766207
GEMS114,2018_Feb_27_1610,Elaine,GH,spatial_frequency,8,6,4,SimpleHill,0-0,0,29,selected,24-64,27-65;24-62;28-61;20-63;27-69;29-63,20-63,3.32,78,-4,1643.7411652
GEMS114,2018_Feb_27_1610,Elaine,GH,spatial_frequency,8,6,4,SimpleHill,0-0,0,30,selected,20-63,22-61;14-59;16-67;23-65;14-61;17-65,22-61,1.56,81,3,1648.86035531
GEMS114,2018_Feb_27_1610,Elaine,GH,spatial_frequency,8,6,4,SimpleHill,0-0,0,31,selected,22-61,24-67;18-60;26-56;16-59;18-67;27-66,24-67,2.41,80,-1,1654.83372198
GEMS114,2018_Feb_27_1610,Elaine,GH,spatial_frequency,8,6,4,SimpleHill,0-0,0,32,selected,24-67,18-69;17-69;28-62;30-68;17-66;26-68,30-68,1.73,85,5,1660.1309308
GEMS114,2018_Feb_27_1610,Elaine,GH,spatial_frequency,8,6,4,SimpleHill,0-0,0,33,selected,30-68,34-67;35-69;34-69;31-65;23-67;29-69,23-67,1.94,79,-6,1665.62392573
GEMS114,2018_Feb_27_1610,Elaine,GH,spatial_frequency,8,6,4,SimpleHill,0-0,0,34,selected,23-67,19-63;19-65;29-70;23-62;23-61;26-66,29-70,2.42,83,4,1671.60532545
GEMS114,2018_Feb_27_1610,Elaine,GH,spatial_frequency,8,6,4,SimpleHill,0-0,0,35,selected,29-70,24-66;25-64;27-69;31-64;23-70;28-63,23-70,2.82,77,-6,1677.99928843
GEMS114,2018_Feb_27_1610,Elaine,GH,spatial_frequency,8,6,4,SimpleHill,0-0,0,36,selected,23-70,21-67;27-67;18-68;27-69;20-63;23-69,23-69,1.36,78,1,1682.92253496
GEMS114,2018_Feb_27_1610,Elaine,GH,spatial_frequency,8,6,4,SimpleHill,0-0,0,37,selected,23-69,24-62;28-63;25-64;26-68;23-65;26-69,26-68,1.44,82,4,1687.94042399
GEMS114,2018_Feb_27_1610,Elaine,GH,spatial_frequency,8,6,4,SimpleHill,0-0,0,38,selected,26-68,26-65;23-61;32-63;21-68;22-70;22-68,26-65,2.04,83,1,1693.54815718
GEMS114,2018_Feb_27_1610,Elaine,GH,spatial_frequency,8,6,4,SimpleHill,0-0,0,39,selected,26-65,29-70;30-70;23-61;25-63;23-67;31-63,25-63,1.79,84,1,1698.91467059
