subj_id,date,computer,experimenter,instructions,sight_radius,n_gabors,start_pos_list_ix,start_pos_list,landscape_ix,landscape_name,starting_pos,starting_score,trial,feedback,pos,stims,selected,rt,score,delta,exp_time
GEMS233,2018_Apr_23_1531,Kramer,EG,spatial_frequency,8,6,17,3-50;4-39;34-49;9-48,0,SpatialFrequencyBias,0-0,0,0,training,0-0,3-4;7-2;6-5;1-6;7-1;0-7,0-7,10.74,26,26,250.789778614
GEMS233,2018_Apr_23_1531,Kramer,EG,spatial_frequency,8,6,17,3-50;4-39;34-49;9-48,0,SpatialFrequencyBias,0-0,0,1,training,0-7,3-4;2-6;6-9;5-8;4-6;1-9,6-9,7.7,32,6,264.954290792
GEMS233,2018_Apr_23_1531,Kramer,EG,spatial_frequency,8,6,17,3-50;4-39;34-49;9-48,0,SpatialFrequencyBias,0-0,0,2,training,6-9,13-7;3-8;5-7;5-10;7-16;0-10,3-8,11.94,29,-3,283.155277829
GEMS233,2018_Apr_23_1531,Kramer,EG,spatial_frequency,8,6,17,3-50;4-39;34-49;9-48,0,SpatialFrequencyBias,0-0,0,3,training,3-8,5-8;7-9;6-13;6-7;1-1;9-6,6-13,4.66,45,16,294.125085425
GEMS233,2018_Apr_23_1531,Kramer,EG,spatial_frequency,8,6,17,3-50;4-39;34-49;9-48,0,SpatialFrequencyBias,0-0,0,4,training,6-13,11-9;6-18;10-18;4-14;3-20;13-10,3-20,6.0,64,19,303.571242186
GEMS233,2018_Apr_23_1531,Kramer,EG,spatial_frequency,8,6,17,3-50;4-39;34-49;9-48,0,SpatialFrequencyBias,0-0,0,5,training,3-20,8-20;10-23;5-26;0-19;4-17;8-14,5-26,4.28,76,12,310.674377908
GEMS233,2018_Apr_23_1531,Kramer,EG,spatial_frequency,8,6,17,3-50;4-39;34-49;9-48,0,SpatialFrequencyBias,0-0,0,6,training,5-26,2-21;5-30;12-28;0-27;11-24;11-25,12-28,3.68,80,4,317.670517593
GEMS233,2018_Apr_23_1531,Kramer,EG,spatial_frequency,8,6,17,3-50;4-39;34-49;9-48,0,SpatialFrequencyBias,0-0,0,7,training,12-28,12-22;10-29;14-23;11-27;12-29;12-31,12-31,7.51,85,5,332.667493999
GEMS233,2018_Apr_23_1531,Kramer,EG,spatial_frequency,8,6,17,3-50;4-39;34-49;9-48,0,SpatialFrequencyBias,0-0,0,8,training,12-31,11-34;9-34;17-37;9-32;17-35;19-32,17-37,9.12,93,8,345.210044694
GEMS233,2018_Apr_23_1531,Kramer,EG,spatial_frequency,8,6,17,3-50;4-39;34-49;9-48,0,SpatialFrequencyBias,0-0,0,9,training,17-37,22-38;18-34;19-42;13-41;21-38;23-37,19-42,7.16,97,4,355.429623664
GEMS233,2018_Apr_23_1531,Kramer,EG,spatial_frequency,8,6,17,3-50;4-39;34-49;9-48,0,SpatialFrequencyBias,0-0,0,10,training,19-42,24-39;18-47;17-38;15-44;14-46;24-40,18-47,10.81,99,2,369.389345145
GEMS233,2018_Apr_23_1531,Kramer,EG,spatial_frequency,8,6,17,3-50;4-39;34-49;9-48,0,SpatialFrequencyBias,0-0,0,11,training,18-47,15-47;21-54;16-40;20-47;17-47;18-44,21-54,8.05,99,0,380.870906697
GEMS233,2018_Apr_23_1531,Kramer,EG,spatial_frequency,8,6,17,3-50;4-39;34-49;9-48,0,SpatialFrequencyBias,0-0,0,12,training,21-54,18-54;23-54;22-55;25-56;22-48;16-57,22-55,10.41,99,0,396.395332795
GEMS233,2018_Apr_23_1531,Kramer,EG,spatial_frequency,8,6,17,3-50;4-39;34-49;9-48,0,SpatialFrequencyBias,0-0,0,13,training,22-55,27-52;28-58;17-60;24-54;23-48;24-55,17-60,4.18,96,-3,403.172189916
GEMS233,2018_Apr_23_1531,Kramer,EG,spatial_frequency,8,6,17,3-50;4-39;34-49;9-48,0,SpatialFrequencyBias,0-0,0,14,training,17-60,11-56;21-62;17-66;19-67;18-63;14-59,11-56,3.18,98,2,414.305723542
GEMS233,2018_Apr_23_1531,Kramer,EG,spatial_frequency,8,6,17,3-50;4-39;34-49;9-48,0,SpatialFrequencyBias,0-0,0,15,training,11-56,10-49;6-54;8-62;12-56;6-53;13-52,6-53,3.35,99,1,422.423813985
GEMS233,2018_Apr_23_1531,Kramer,EG,spatial_frequency,8,6,17,3-50;4-39;34-49;9-48,0,SpatialFrequencyBias,0-0,0,16,training,6-53,9-52;10-49;3-52;5-47;3-56;5-55,5-47,2.3,99,0,427.662878585
GEMS233,2018_Apr_23_1531,Kramer,EG,spatial_frequency,8,6,17,3-50;4-39;34-49;9-48,0,SpatialFrequencyBias,0-0,0,17,training,5-47,6-51;11-52;6-46;7-46;0-44;8-52,8-52,5.62,99,0,435.96660379
GEMS233,2018_Apr_23_1531,Kramer,EG,spatial_frequency,8,6,17,3-50;4-39;34-49;9-48,0,SpatialFrequencyBias,0-0,0,18,training,8-52,10-45;1-54;5-51;11-57;6-55;9-57,1-54,3.84,99,0,443.632809737
GEMS233,2018_Apr_23_1531,Kramer,EG,spatial_frequency,8,6,17,3-50;4-39;34-49;9-48,0,SpatialFrequencyBias,0-0,0,19,training,1-54,6-57;2-52;3-51;6-52;5-56;5-58,6-52,1.85,99,0,448.206674761
GEMS233,2018_Apr_23_1531,Kramer,EG,spatial_frequency,8,6,17,3-50;4-39;34-49;9-48,0,SpatialFrequencyBias,0-0,0,20,training,6-52,1-52;11-52;3-52;1-56;13-54;9-52,1-52,4.48,99,0,455.264048459
GEMS233,2018_Apr_23_1531,Kramer,EG,spatial_frequency,8,6,17,3-50;4-39;34-49;9-48,0,SpatialFrequencyBias,0-0,0,21,training,1-52,3-51;3-46;2-47;4-55;6-56;8-54,2-47,3.78,99,0,461.53550514
GEMS233,2018_Apr_23_1531,Kramer,EG,spatial_frequency,8,6,17,3-50;4-39;34-49;9-48,0,SpatialFrequencyBias,0-0,0,22,training,2-47,6-46;7-41;0-49;2-49;4-42;6-42,2-49,3.99,99,0,468.115893649
GEMS233,2018_Apr_23_1531,Kramer,EG,spatial_frequency,8,6,17,3-50;4-39;34-49;9-48,0,SpatialFrequencyBias,0-0,0,23,training,2-49,7-48;3-56;5-51;7-53;3-54;1-46,7-53,1.96,99,0,473.098409876
GEMS233,2018_Apr_23_1531,Kramer,EG,spatial_frequency,8,6,17,3-50;4-39;34-49;9-48,0,SpatialFrequencyBias,0-0,0,24,training,7-53,3-55;4-58;0-51;10-53;7-53;9-47,0-51,3.6,99,0,479.262655097
GEMS233,2018_Apr_23_1531,Kramer,EG,spatial_frequency,8,6,17,3-50;4-39;34-49;9-48,0,SpatialFrequencyBias,0-0,0,25,training,0-51,6-56;7-51;6-50;3-46;3-44;2-55,7-51,2.25,99,0,483.970942003
GEMS233,2018_Apr_23_1531,Kramer,EG,spatial_frequency,8,6,17,3-50;4-39;34-49;9-48,0,SpatialFrequencyBias,0-0,0,26,training,7-51,9-57;10-45;4-55;4-56;11-48;5-52,11-48,2.18,99,0,492.421048386
GEMS233,2018_Apr_23_1531,Kramer,EG,spatial_frequency,8,6,17,3-50;4-39;34-49;9-48,0,SpatialFrequencyBias,0-0,0,27,training,11-48,6-52;8-44;18-49;10-45;17-50;8-46,18-49,2.59,99,0,497.858059465
GEMS233,2018_Apr_23_1531,Kramer,EG,spatial_frequency,8,6,17,3-50;4-39;34-49;9-48,0,SpatialFrequencyBias,0-0,0,28,training,18-49,17-53;19-49;20-49;22-55;11-50;14-49,17-53,3.55,99,0,504.674115752
GEMS233,2018_Apr_23_1531,Kramer,EG,spatial_frequency,8,6,17,3-50;4-39;34-49;9-48,0,SpatialFrequencyBias,0-0,0,29,training,17-53,10-50;16-48;16-58;22-49;21-49;17-48,16-48,3.39,99,0,512.905694669
GEMS233,2018_Apr_23_1531,Kramer,EG,spatial_frequency,8,6,17,3-50;4-39;34-49;9-48,1,SimpleHill,3-50,55,0,selected,3-50,9-48;0-53;8-49;5-53;7-49;7-50,0-53,3.66,49,-6,544.076730652
GEMS233,2018_Apr_23_1531,Kramer,EG,spatial_frequency,8,6,17,3-50;4-39;34-49;9-48,1,SimpleHill,3-50,55,1,selected,0-53,3-59;4-53;2-53;3-49;6-54;3-58,4-53,2.4,57,8,550.039724439
GEMS233,2018_Apr_23_1531,Kramer,EG,spatial_frequency,8,6,17,3-50;4-39;34-49;9-48,1,SimpleHill,3-50,55,2,selected,4-53,5-50;2-56;8-58;3-54;0-49;1-47,0-49,2.05,49,-8,555.645196036
GEMS233,2018_Apr_23_1531,Kramer,EG,spatial_frequency,8,6,17,3-50;4-39;34-49;9-48,1,SimpleHill,3-50,55,3,selected,0-49,0-52;6-54;2-43;3-56;4-54;2-46,0-52,3.08,49,0,562.299123875
GEMS233,2018_Apr_23_1531,Kramer,EG,spatial_frequency,8,6,17,3-50;4-39;34-49;9-48,1,SimpleHill,3-50,55,4,selected,0-52,6-53;5-54;4-50;4-57;1-48;2-51,5-54,3.03,59,10,568.902329217
GEMS233,2018_Apr_23_1531,Kramer,EG,spatial_frequency,8,6,17,3-50;4-39;34-49;9-48,1,SimpleHill,3-50,55,5,selected,5-54,0-55;7-50;9-60;3-55;7-47;7-48,3-55,2.68,55,-4,575.149514564
GEMS233,2018_Apr_23_1531,Kramer,EG,spatial_frequency,8,6,17,3-50;4-39;34-49;9-48,1,SimpleHill,3-50,55,6,selected,3-55,5-57;3-47;3-53;6-58;4-56;8-55,3-53,9.3,55,0,588.017458805
GEMS233,2018_Apr_23_1531,Kramer,EG,spatial_frequency,8,6,17,3-50;4-39;34-49;9-48,1,SimpleHill,3-50,55,7,selected,3-53,6-56;1-51;7-48;7-51;2-55;5-49,1-51,2.67,51,-4,594.259804033
GEMS233,2018_Apr_23_1531,Kramer,EG,spatial_frequency,8,6,17,3-50;4-39;34-49;9-48,1,SimpleHill,3-50,55,8,selected,1-51,4-49;2-52;5-56;9-51;2-44;0-50,9-51,1.65,66,15,599.463798339
GEMS233,2018_Apr_23_1531,Kramer,EG,spatial_frequency,8,6,17,3-50;4-39;34-49;9-48,1,SimpleHill,3-50,55,9,selected,9-51,11-45;3-55;4-53;9-44;11-56;3-48,3-55,1.83,55,-11,604.863403409
GEMS233,2018_Apr_23_1531,Kramer,EG,spatial_frequency,8,6,17,3-50;4-39;34-49;9-48,1,SimpleHill,3-50,55,10,selected,3-55,4-58;10-55;8-56;1-57;5-61;2-59,8-56,3.35,64,9,611.804823922
GEMS233,2018_Apr_23_1531,Kramer,EG,spatial_frequency,8,6,17,3-50;4-39;34-49;9-48,1,SimpleHill,3-50,55,11,selected,8-56,13-51;11-56;5-57;15-54;12-51;11-63,12-51,2.6,71,7,617.984818653
GEMS233,2018_Apr_23_1531,Kramer,EG,spatial_frequency,8,6,17,3-50;4-39;34-49;9-48,1,SimpleHill,3-50,55,12,selected,12-51,5-48;11-57;14-56;14-44;9-48;12-43,5-48,1.35,59,-12,622.911626303
GEMS233,2018_Apr_23_1531,Kramer,EG,spatial_frequency,8,6,17,3-50;4-39;34-49;9-48,1,SimpleHill,3-50,55,13,selected,5-48,12-45;0-44;9-50;5-49;10-43;9-44,5-49,3.45,59,0,629.937497779
GEMS233,2018_Apr_23_1531,Kramer,EG,spatial_frequency,8,6,17,3-50;4-39;34-49;9-48,1,SimpleHill,3-50,55,14,selected,5-49,6-48;10-50;8-54;4-53;10-48;3-42,8-54,1.49,64,5,634.990773654
GEMS233,2018_Apr_23_1531,Kramer,EG,spatial_frequency,8,6,17,3-50;4-39;34-49;9-48,1,SimpleHill,3-50,55,15,selected,8-54,4-52;4-54;14-59;8-52;9-55;6-59,14-59,3.8,72,8,642.363013696
GEMS233,2018_Apr_23_1531,Kramer,EG,spatial_frequency,8,6,17,3-50;4-39;34-49;9-48,1,SimpleHill,3-50,55,16,selected,14-59,13-64;17-61;11-64;9-58;6-59;15-55,6-59,2.44,59,-13,648.360502891
GEMS233,2018_Apr_23_1531,Kramer,EG,spatial_frequency,8,6,17,3-50;4-39;34-49;9-48,1,SimpleHill,3-50,55,17,selected,6-59,5-57;11-56;1-53;1-56;10-56;3-59,5-57,11.07,58,-1,662.994482246
GEMS233,2018_Apr_23_1531,Kramer,EG,spatial_frequency,8,6,17,3-50;4-39;34-49;9-48,1,SimpleHill,3-50,55,18,selected,5-57,11-58;9-53;11-53;8-55;6-56;11-56,6-56,3.08,60,2,669.628482086
GEMS233,2018_Apr_23_1531,Kramer,EG,spatial_frequency,8,6,17,3-50;4-39;34-49;9-48,1,SimpleHill,3-50,55,19,selected,6-56,0-58;3-62;7-57;11-58;10-57;2-58,11-58,2.76,68,8,675.943444778
GEMS233,2018_Apr_23_1531,Kramer,EG,spatial_frequency,8,6,17,3-50;4-39;34-49;9-48,1,SimpleHill,3-50,55,20,selected,11-58,14-63;7-52;5-54;15-63;5-55;17-53,5-55,4.26,59,-9,683.775107175
GEMS233,2018_Apr_23_1531,Kramer,EG,spatial_frequency,8,6,17,3-50;4-39;34-49;9-48,1,SimpleHill,3-50,55,21,selected,5-55,12-52;5-53;5-55;4-51;10-57;11-51,5-55,1.5,59,0,688.843118187
GEMS233,2018_Apr_23_1531,Kramer,EG,spatial_frequency,8,6,17,3-50;4-39;34-49;9-48,1,SimpleHill,3-50,55,22,selected,5-55,9-50;4-54;2-60;5-59;3-51;2-52,5-59,4.09,57,-2,696.5100373
GEMS233,2018_Apr_23_1531,Kramer,EG,spatial_frequency,8,6,17,3-50;4-39;34-49;9-48,1,SimpleHill,3-50,55,23,selected,5-59,6-56;1-61;4-55;7-59;3-62;8-57,4-55,5.3,57,0,705.388699198
GEMS233,2018_Apr_23_1531,Kramer,EG,spatial_frequency,8,6,17,3-50;4-39;34-49;9-48,1,SimpleHill,3-50,55,24,selected,4-55,11-57;5-48;10-54;7-57;9-61;3-50,7-57,3.87,62,5,712.825386023
GEMS233,2018_Apr_23_1531,Kramer,EG,spatial_frequency,8,6,17,3-50;4-39;34-49;9-48,1,SimpleHill,3-50,55,25,selected,7-57,3-59;4-55;9-52;6-56;10-60;2-56,6-56,1.89,60,-2,718.277387034
GEMS233,2018_Apr_23_1531,Kramer,EG,spatial_frequency,8,6,17,3-50;4-39;34-49;9-48,1,SimpleHill,3-50,55,26,selected,6-56,13-57;7-63;6-56;3-51;3-56;0-57,3-56,1.31,55,-5,723.153906873
GEMS233,2018_Apr_23_1531,Kramer,EG,spatial_frequency,8,6,17,3-50;4-39;34-49;9-48,1,SimpleHill,3-50,55,27,selected,3-56,8-53;7-60;5-59;6-50;3-64;5-57,7-60,1.86,61,6,728.561501131
GEMS233,2018_Apr_23_1531,Kramer,EG,spatial_frequency,8,6,17,3-50;4-39;34-49;9-48,1,SimpleHill,3-50,55,28,selected,7-60,9-56;5-59;7-68;9-64;11-58;1-59,5-59,1.29,57,-4,733.404146862
GEMS233,2018_Apr_23_1531,Kramer,EG,spatial_frequency,8,6,17,3-50;4-39;34-49;9-48,1,SimpleHill,3-50,55,29,selected,5-59,6-65;4-52;7-56;9-63;4-64;10-58,4-64,2.59,53,-4,739.56911133
GEMS233,2018_Apr_23_1531,Kramer,EG,spatial_frequency,8,6,17,3-50;4-39;34-49;9-48,1,SimpleHill,3-50,55,30,selected,4-64,11-66;4-62;0-62;4-67;1-69;8-68,4-62,1.74,54,1,744.88296106
GEMS233,2018_Apr_23_1531,Kramer,EG,spatial_frequency,8,6,17,3-50;4-39;34-49;9-48,1,SimpleHill,3-50,55,31,selected,4-62,2-58;10-61;1-63;2-61;6-60;2-69,10-61,2.58,65,11,751.026730924
GEMS233,2018_Apr_23_1531,Kramer,EG,spatial_frequency,8,6,17,3-50;4-39;34-49;9-48,1,SimpleHill,3-50,55,32,selected,10-61,7-60;9-64;9-68;14-65;4-61;12-62,7-60,1.21,61,-4,755.817312651
GEMS233,2018_Apr_23_1531,Kramer,EG,spatial_frequency,8,6,17,3-50;4-39;34-49;9-48,1,SimpleHill,3-50,55,33,selected,7-60,14-63;7-60;4-64;6-56;6-65;4-57,14-63,2.79,70,9,762.176368083
GEMS233,2018_Apr_23_1531,Kramer,EG,spatial_frequency,8,6,17,3-50;4-39;34-49;9-48,1,SimpleHill,3-50,55,34,selected,14-63,16-56;12-65;12-68;13-69;8-67;14-55,8-67,8.16,58,-12,773.907344746
GEMS233,2018_Apr_23_1531,Kramer,EG,spatial_frequency,8,6,17,3-50;4-39;34-49;9-48,1,SimpleHill,3-50,55,35,selected,8-67,7-70;2-65;13-68;5-66;12-68;3-61,5-66,2.39,54,-4,779.868650685
GEMS233,2018_Apr_23_1531,Kramer,EG,spatial_frequency,8,6,17,3-50;4-39;34-49;9-48,1,SimpleHill,3-50,55,36,selected,5-66,4-69;4-60;7-65;4-62;11-67;2-62,7-65,2.96,58,4,786.396741202
GEMS233,2018_Apr_23_1531,Kramer,EG,spatial_frequency,8,6,17,3-50;4-39;34-49;9-48,1,SimpleHill,3-50,55,37,selected,7-65,7-66;5-63;12-70;1-62;13-70;2-59,5-63,2.2,56,-2,792.16535146
GEMS233,2018_Apr_23_1531,Kramer,EG,spatial_frequency,8,6,17,3-50;4-39;34-49;9-48,1,SimpleHill,3-50,55,38,selected,5-63,4-60;11-66;10-67;12-61;1-69;0-60,12-61,3.01,68,12,798.763719244
GEMS233,2018_Apr_23_1531,Kramer,EG,spatial_frequency,8,6,17,3-50;4-39;34-49;9-48,1,SimpleHill,3-50,55,39,selected,12-61,10-54;8-58;14-63;12-64;14-64;9-58,14-63,7.32,70,2,809.65625075
GEMS233,2018_Apr_23_1531,Kramer,EG,spatial_frequency,8,6,17,3-50;4-39;34-49;9-48,2,SimpleHill,4-39,55,0,selected,4-39,9-39;4-34;3-32;12-39;0-44;6-34,0-44,3.81,49,-6,824.788264257
GEMS233,2018_Apr_23_1531,Kramer,EG,spatial_frequency,8,6,17,3-50;4-39;34-49;9-48,2,SimpleHill,4-39,55,1,selected,0-44,6-39;1-48;7-44;4-42;5-42;2-41,1-48,4.29,51,2,832.656587808
GEMS233,2018_Apr_23_1531,Kramer,EG,spatial_frequency,8,6,17,3-50;4-39;34-49;9-48,2,SimpleHill,4-39,55,2,selected,1-48,3-46;2-44;6-52;1-54;3-43;6-43,6-52,3.36,61,10,839.595691491
GEMS233,2018_Apr_23_1531,Kramer,EG,spatial_frequency,8,6,17,3-50;4-39;34-49;9-48,2,SimpleHill,4-39,55,3,selected,6-52,5-52;14-52;11-54;0-51;2-52;8-52,14-52,4.76,74,13,847.916346707
GEMS233,2018_Apr_23_1531,Kramer,EG,spatial_frequency,8,6,17,3-50;4-39;34-49;9-48,2,SimpleHill,4-39,55,4,selected,14-52,8-52;19-56;19-51;20-52;11-53;19-57,8-52,4.32,64,-10,855.810590388
GEMS233,2018_Apr_23_1531,Kramer,EG,spatial_frequency,8,6,17,3-50;4-39;34-49;9-48,2,SimpleHill,4-39,55,5,selected,8-52,8-54;3-46;11-51;2-55;14-50;15-50,2-55,2.92,53,-11,862.307245902
GEMS233,2018_Apr_23_1531,Kramer,EG,spatial_frequency,8,6,17,3-50;4-39;34-49;9-48,2,SimpleHill,4-39,55,6,selected,2-55,0-49;5-60;3-50;4-51;8-54;7-49,0-49,2.7,49,-4,868.580102987
GEMS233,2018_Apr_23_1531,Kramer,EG,spatial_frequency,8,6,17,3-50;4-39;34-49;9-48,2,SimpleHill,4-39,55,7,selected,0-49,7-52;5-55;4-51;3-43;2-53;3-53,2-53,1.04,53,4,873.195589638
GEMS233,2018_Apr_23_1531,Kramer,EG,spatial_frequency,8,6,17,3-50;4-39;34-49;9-48,2,SimpleHill,4-39,55,8,selected,2-53,7-59;5-58;3-57;0-48;1-51;7-57,1-51,2.58,51,-2,879.332014019
GEMS233,2018_Apr_23_1531,Kramer,EG,spatial_frequency,8,6,17,3-50;4-39;34-49;9-48,2,SimpleHill,4-39,55,9,selected,1-51,2-56;3-47;4-58;7-47;0-50;7-52,2-56,2.87,53,2,885.771860797
GEMS233,2018_Apr_23_1531,Kramer,EG,spatial_frequency,8,6,17,3-50;4-39;34-49;9-48,2,SimpleHill,4-39,55,10,selected,2-56,0-59;2-50;0-49;8-61;3-63;5-51,0-59,5.77,48,-5,895.13150616
GEMS233,2018_Apr_23_1531,Kramer,EG,spatial_frequency,8,6,17,3-50;4-39;34-49;9-48,2,SimpleHill,4-39,55,11,selected,0-59,5-56;4-54;3-60;2-64;5-59;3-53,3-53,2.1,55,7,900.788525452
GEMS233,2018_Apr_23_1531,Kramer,EG,spatial_frequency,8,6,17,3-50;4-39;34-49;9-48,2,SimpleHill,4-39,55,12,selected,3-53,3-53;3-52;7-53;0-46;4-56;6-51,3-53,6.85,55,0,911.201173331
GEMS233,2018_Apr_23_1531,Kramer,EG,spatial_frequency,8,6,17,3-50;4-39;34-49;9-48,2,SimpleHill,4-39,55,13,selected,3-53,3-54;3-57;8-50;4-60;0-49;4-56,3-54,3.76,55,0,918.531753015
GEMS233,2018_Apr_23_1531,Kramer,EG,spatial_frequency,8,6,17,3-50;4-39;34-49;9-48,2,SimpleHill,4-39,55,14,selected,3-54,6-57;0-54;6-52;5-52;7-59;5-54,5-54,6.04,59,4,928.156651986
GEMS233,2018_Apr_23_1531,Kramer,EG,spatial_frequency,8,6,17,3-50;4-39;34-49;9-48,2,SimpleHill,4-39,55,15,selected,5-54,7-52;8-58;7-61;0-48;6-53;2-49,6-53,3.64,61,2,935.361425077
GEMS233,2018_Apr_23_1531,Kramer,EG,spatial_frequency,8,6,17,3-50;4-39;34-49;9-48,2,SimpleHill,4-39,55,16,selected,6-53,10-55;10-52;5-48;12-56;11-55;6-56,11-55,10.85,69,8,949.789299436
GEMS233,2018_Apr_23_1531,Kramer,EG,spatial_frequency,8,6,17,3-50;4-39;34-49;9-48,2,SimpleHill,4-39,55,17,selected,11-55,15-49;10-62;11-63;18-58;6-61;3-55,18-58,11.68,78,9,965.038975742
GEMS233,2018_Apr_23_1531,Kramer,EG,spatial_frequency,8,6,17,3-50;4-39;34-49;9-48,2,SimpleHill,4-39,55,18,selected,18-58,16-63;17-53;20-54;24-62;22-64;21-60,24-62,3.88,83,5,972.476389498
GEMS233,2018_Apr_23_1531,Kramer,EG,spatial_frequency,8,6,17,3-50;4-39;34-49;9-48,2,SimpleHill,4-39,55,19,selected,24-62,31-60;29-65;23-63;21-68;22-67;28-57,28-57,2.85,89,6,978.88662868
GEMS233,2018_Apr_23_1531,Kramer,EG,spatial_frequency,8,6,17,3-50;4-39;34-49;9-48,2,SimpleHill,4-39,55,20,selected,28-57,25-60;31-53;25-64;23-54;27-51;34-54,34-54,4.66,94,5,987.109194753
GEMS233,2018_Apr_23_1531,Kramer,EG,spatial_frequency,8,6,17,3-50;4-39;34-49;9-48,2,SimpleHill,4-39,55,21,selected,34-54,32-50;34-48;31-60;37-48;33-60;38-60,31-60,5.92,90,-4,996.595498155
GEMS233,2018_Apr_23_1531,Kramer,EG,spatial_frequency,8,6,17,3-50;4-39;34-49;9-48,2,SimpleHill,4-39,55,22,selected,31-60,29-66;35-58;35-62;30-66;32-56;36-60,32-56,4.31,92,2,1004.47410404
GEMS233,2018_Apr_23_1531,Kramer,EG,spatial_frequency,8,6,17,3-50;4-39;34-49;9-48,2,SimpleHill,4-39,55,23,selected,32-56,37-60;34-54;38-56;31-63;34-53;28-50,34-54,8.5,94,2,1016.54368926
GEMS233,2018_Apr_23_1531,Kramer,EG,spatial_frequency,8,6,17,3-50;4-39;34-49;9-48,2,SimpleHill,4-39,55,24,selected,34-54,34-62;36-49;40-54;32-53;40-53;32-54,40-53,4.55,97,3,1024.64197943
GEMS233,2018_Apr_23_1531,Kramer,EG,spatial_frequency,8,6,17,3-50;4-39;34-49;9-48,2,SimpleHill,4-39,55,25,selected,40-53,37-46;34-50;47-53;40-60;39-52;44-53,47-53,8.55,99,2,1036.75857216
GEMS233,2018_Apr_23_1531,Kramer,EG,spatial_frequency,8,6,17,3-50;4-39;34-49;9-48,2,SimpleHill,4-39,55,26,selected,47-53,48-46;44-57;45-58;47-56;49-60;47-49,47-56,6.9,99,0,1047.22083085
GEMS233,2018_Apr_23_1531,Kramer,EG,spatial_frequency,8,6,17,3-50;4-39;34-49;9-48,2,SimpleHill,4-39,55,27,selected,47-56,46-61;49-49;41-55;51-58;48-61;47-61,51-58,2.22,98,-1,1053.00462566
GEMS233,2018_Apr_23_1531,Kramer,EG,spatial_frequency,8,6,17,3-50;4-39;34-49;9-48,2,SimpleHill,4-39,55,28,selected,51-58,49-63;58-59;46-62;56-57;49-57;59-58,49-57,8.55,99,1,1065.1199377
GEMS233,2018_Apr_23_1531,Kramer,EG,spatial_frequency,8,6,17,3-50;4-39;34-49;9-48,2,SimpleHill,4-39,55,29,selected,49-57,52-60;50-62;43-55;56-54;52-55;46-63,52-60,2.56,97,-2,1071.25989878
GEMS233,2018_Apr_23_1531,Kramer,EG,spatial_frequency,8,6,17,3-50;4-39;34-49;9-48,2,SimpleHill,4-39,55,30,selected,52-60,55-59;53-55;54-67;48-56;48-66;57-57,57-57,3.4,98,1,1078.23246045
GEMS233,2018_Apr_23_1531,Kramer,EG,spatial_frequency,8,6,17,3-50;4-39;34-49;9-48,2,SimpleHill,4-39,55,31,selected,57-57,55-58;54-62;57-54;60-53;50-56;56-64,54-62,6.01,96,-2,1087.7974746
GEMS233,2018_Apr_23_1531,Kramer,EG,spatial_frequency,8,6,17,3-50;4-39;34-49;9-48,2,SimpleHill,4-39,55,32,selected,54-62,49-63;60-67;53-56;53-58;61-62;52-56,52-56,5.37,99,3,1096.71689483
GEMS233,2018_Apr_23_1531,Kramer,EG,spatial_frequency,8,6,17,3-50;4-39;34-49;9-48,2,SimpleHill,4-39,55,33,selected,52-56,48-52;55-61;57-57;48-50;50-55;54-52,57-57,5.84,98,-1,1106.10679214
GEMS233,2018_Apr_23_1531,Kramer,EG,spatial_frequency,8,6,17,3-50;4-39;34-49;9-48,2,SimpleHill,4-39,55,34,selected,57-57,57-62;54-52;64-60;63-54;50-54;52-54,52-54,8.81,99,1,1118.47189764
GEMS233,2018_Apr_23_1531,Kramer,EG,spatial_frequency,8,6,17,3-50;4-39;34-49;9-48,2,SimpleHill,4-39,55,35,selected,52-54,54-57;57-51;52-59;46-56;51-58;51-55,51-55,4.34,99,0,1126.38909515
GEMS233,2018_Apr_23_1531,Kramer,EG,spatial_frequency,8,6,17,3-50;4-39;34-49;9-48,2,SimpleHill,4-39,55,36,selected,51-55,49-48;53-50;57-53;53-54;45-55;58-55,58-55,10.21,98,-1,1140.17051583
GEMS233,2018_Apr_23_1531,Kramer,EG,spatial_frequency,8,6,17,3-50;4-39;34-49;9-48,2,SimpleHill,4-39,55,37,selected,58-55,59-50;60-48;59-55;52-52;60-53;64-57,59-55,13.95,97,-1,1157.68551329
GEMS233,2018_Apr_23_1531,Kramer,EG,spatial_frequency,8,6,17,3-50;4-39;34-49;9-48,2,SimpleHill,4-39,55,38,selected,59-55,57-60;64-57;65-53;55-52;59-48;55-53,55-53,6.52,99,2,1167.75706484
GEMS233,2018_Apr_23_1531,Kramer,EG,spatial_frequency,8,6,17,3-50;4-39;34-49;9-48,2,SimpleHill,4-39,55,39,selected,55-53,63-53;57-53;57-59;55-55;57-51;54-49,63-53,10.8,96,-3,1182.13371736
GEMS233,2018_Apr_23_1531,Kramer,EG,spatial_frequency,8,6,17,3-50;4-39;34-49;9-48,3,SimpleHill,34-49,94,0,selected,34-49,37-43;31-48;38-43;40-47;28-54;34-41,37-43,4.21,95,1,1196.41442503
GEMS233,2018_Apr_23_1531,Kramer,EG,spatial_frequency,8,6,17,3-50;4-39;34-49;9-48,3,SimpleHill,34-49,94,1,selected,37-43,31-39;39-46;37-50;44-41;43-41;32-47,32-47,6.11,93,-2,1206.08787915
GEMS233,2018_Apr_23_1531,Kramer,EG,spatial_frequency,8,6,17,3-50;4-39;34-49;9-48,3,SimpleHill,34-49,94,2,selected,32-47,34-45;32-49;31-41;29-49;35-46;31-49,35-46,6.56,95,2,1216.22371777
GEMS233,2018_Apr_23_1531,Kramer,EG,spatial_frequency,8,6,17,3-50;4-39;34-49;9-48,3,SimpleHill,34-49,94,3,selected,35-46,32-50;30-42;36-40;42-46;41-46;30-45,30-45,3.08,91,-4,1222.87995475
GEMS233,2018_Apr_23_1531,Kramer,EG,spatial_frequency,8,6,17,3-50;4-39;34-49;9-48,3,SimpleHill,34-49,94,4,selected,30-45,28-41;30-47;34-40;29-50;26-50;27-42,30-47,1.72,91,0,1228.17376989
GEMS233,2018_Apr_23_1531,Kramer,EG,spatial_frequency,8,6,17,3-50;4-39;34-49;9-48,3,SimpleHill,34-49,94,5,selected,30-47,26-43;37-45;32-45;32-44;35-42;26-48,37-45,3.38,96,5,1235.11579474
GEMS233,2018_Apr_23_1531,Kramer,EG,spatial_frequency,8,6,17,3-50;4-39;34-49;9-48,3,SimpleHill,34-49,94,6,selected,37-45,37-50;42-47;38-51;34-42;30-46;38-44,42-47,8.67,98,2,1247.35133064
GEMS233,2018_Apr_23_1531,Kramer,EG,spatial_frequency,8,6,17,3-50;4-39;34-49;9-48,3,SimpleHill,34-49,94,7,selected,42-47,40-54;45-45;44-45;42-54;44-42;48-48,42-54,4.79,98,0,1255.70798058
GEMS233,2018_Apr_23_1531,Kramer,EG,spatial_frequency,8,6,17,3-50;4-39;34-49;9-48,3,SimpleHill,34-49,94,8,selected,42-54,44-53;44-57;47-60;46-59;47-51;40-51,40-51,3.51,97,-1,1262.77557739
GEMS233,2018_Apr_23_1531,Kramer,EG,spatial_frequency,8,6,17,3-50;4-39;34-49;9-48,3,SimpleHill,34-49,94,9,selected,40-51,42-50;43-57;45-51;34-48;42-46;44-51,42-50,7.15,98,1,1273.5026851
GEMS233,2018_Apr_23_1531,Kramer,EG,spatial_frequency,8,6,17,3-50;4-39;34-49;9-48,3,SimpleHill,34-49,94,10,selected,42-50,36-45;40-55;50-50;48-49;42-54;37-53,40-55,3.67,97,-1,1280.73524574
GEMS233,2018_Apr_23_1531,Kramer,EG,spatial_frequency,8,6,17,3-50;4-39;34-49;9-48,3,SimpleHill,34-49,94,11,selected,40-55,37-61;40-56;38-60;33-53;40-53;45-58,40-53,2.28,97,0,1286.59684478
GEMS233,2018_Apr_23_1531,Kramer,EG,spatial_frequency,8,6,17,3-50;4-39;34-49;9-48,3,SimpleHill,34-49,94,12,selected,40-53,40-52;39-57;44-59;34-54;38-46;38-54,34-54,2.94,94,-3,1293.09630015
GEMS233,2018_Apr_23_1531,Kramer,EG,spatial_frequency,8,6,17,3-50;4-39;34-49;9-48,3,SimpleHill,34-49,94,13,selected,34-54,37-47;28-49;39-48;32-59;33-47;27-54,28-49,1.54,90,-4,1298.19603553
GEMS233,2018_Apr_23_1531,Kramer,EG,spatial_frequency,8,6,17,3-50;4-39;34-49;9-48,3,SimpleHill,34-49,94,14,selected,28-49,33-53;34-49;25-42;27-50;27-54;29-42,33-53,2.63,94,4,1304.40655524
GEMS233,2018_Apr_23_1531,Kramer,EG,spatial_frequency,8,6,17,3-50;4-39;34-49;9-48,3,SimpleHill,34-49,94,15,selected,33-53,29-57;27-49;39-54;34-57;32-57;38-56,32-57,2.48,92,-2,1310.45787183
GEMS233,2018_Apr_23_1531,Kramer,EG,spatial_frequency,8,6,17,3-50;4-39;34-49;9-48,3,SimpleHill,34-49,94,16,selected,32-57,38-53;26-54;39-56;26-57;38-56;37-60,38-56,2.02,96,4,1316.04393846
GEMS233,2018_Apr_23_1531,Kramer,EG,spatial_frequency,8,6,17,3-50;4-39;34-49;9-48,3,SimpleHill,34-49,94,17,selected,38-56,44-61;34-62;32-54;33-55;41-53;44-57,34-62,2.8,92,-4,1322.40384886
GEMS233,2018_Apr_23_1531,Kramer,EG,spatial_frequency,8,6,17,3-50;4-39;34-49;9-48,3,SimpleHill,34-49,94,18,selected,34-62,38-66;39-66;28-60;32-66;35-66;29-59,32-66,13.82,88,-4,1339.81225583
GEMS233,2018_Apr_23_1531,Kramer,EG,spatial_frequency,8,6,17,3-50;4-39;34-49;9-48,3,SimpleHill,34-49,94,19,selected,32-66,32-66;37-62;31-63;35-60;31-69;30-66,35-60,4.31,93,5,1347.68256171
GEMS233,2018_Apr_23_1531,Kramer,EG,spatial_frequency,8,6,17,3-50;4-39;34-49;9-48,3,SimpleHill,34-49,94,20,selected,35-60,31-66;33-66;35-64;35-52;32-65;32-62,35-52,3.37,95,2,1354.60974195
GEMS233,2018_Apr_23_1531,Kramer,EG,spatial_frequency,8,6,17,3-50;4-39;34-49;9-48,3,SimpleHill,34-49,94,21,selected,35-52,42-53;35-56;36-52;42-54;41-50;34-57,42-53,4.26,98,3,1362.4488369
GEMS233,2018_Apr_23_1531,Kramer,EG,spatial_frequency,8,6,17,3-50;4-39;34-49;9-48,3,SimpleHill,34-49,94,22,selected,42-53,48-52;39-55;46-51;45-48;39-57;46-56,39-55,1.25,97,-1,1367.28061741
GEMS233,2018_Apr_23_1531,Kramer,EG,spatial_frequency,8,6,17,3-50;4-39;34-49;9-48,3,SimpleHill,34-49,94,23,selected,39-55,37-49;44-56;34-54;41-51;34-58;37-52,34-54,1.51,94,-3,1372.34407414
GEMS233,2018_Apr_23_1531,Kramer,EG,spatial_frequency,8,6,17,3-50;4-39;34-49;9-48,3,SimpleHill,34-49,94,24,selected,34-54,38-51;32-55;34-60;36-59;36-49;35-57,38-51,2.22,97,3,1378.13014001
GEMS233,2018_Apr_23_1531,Kramer,EG,spatial_frequency,8,6,17,3-50;4-39;34-49;9-48,3,SimpleHill,34-49,94,25,selected,38-51,37-53;44-50;40-52;37-46;40-45;37-45,37-46,3.08,96,-1,1384.78176254
GEMS233,2018_Apr_23_1531,Kramer,EG,spatial_frequency,8,6,17,3-50;4-39;34-49;9-48,3,SimpleHill,34-49,94,26,selected,37-46,42-42;30-49;34-43;39-40;43-43;43-41,30-49,2.85,91,-5,1391.20608227
GEMS233,2018_Apr_23_1531,Kramer,EG,spatial_frequency,8,6,17,3-50;4-39;34-49;9-48,3,SimpleHill,34-49,94,27,selected,30-49,28-42;35-53;36-45;24-54;33-52;26-49,33-52,1.65,94,3,1396.43923924
GEMS233,2018_Apr_23_1531,Kramer,EG,spatial_frequency,8,6,17,3-50;4-39;34-49;9-48,3,SimpleHill,34-49,94,28,selected,33-52,30-58;28-50;28-53;27-57;32-50;28-54,32-50,3.42,93,-1,1403.43784876
GEMS233,2018_Apr_23_1531,Kramer,EG,spatial_frequency,8,6,17,3-50;4-39;34-49;9-48,3,SimpleHill,34-49,94,29,selected,32-50,38-46;40-50;37-44;35-49;24-50;30-48,35-49,4.32,95,2,1411.32780768
GEMS233,2018_Apr_23_1531,Kramer,EG,spatial_frequency,8,6,17,3-50;4-39;34-49;9-48,3,SimpleHill,34-49,94,30,selected,35-49,35-46;40-47;33-43;37-51;36-45;30-54,35-46,1.49,95,0,1416.37983744
GEMS233,2018_Apr_23_1531,Kramer,EG,spatial_frequency,8,6,17,3-50;4-39;34-49;9-48,3,SimpleHill,34-49,94,31,selected,35-46,37-39;34-45;40-47;35-41;31-48;30-40,40-47,2.45,97,2,1422.39824116
GEMS233,2018_Apr_23_1531,Kramer,EG,spatial_frequency,8,6,17,3-50;4-39;34-49;9-48,3,SimpleHill,34-49,94,32,selected,40-47,35-52;45-49;47-50;45-50;41-44;38-46,45-50,7.48,99,2,1433.44528483
GEMS233,2018_Apr_23_1531,Kramer,EG,spatial_frequency,8,6,17,3-50;4-39;34-49;9-48,3,SimpleHill,34-49,94,33,selected,45-50,37-50;49-51;52-47;45-43;47-50;41-52,49-51,3.73,99,0,1440.74757122
GEMS233,2018_Apr_23_1531,Kramer,EG,spatial_frequency,8,6,17,3-50;4-39;34-49;9-48,3,SimpleHill,34-49,94,34,selected,49-51,47-55;51-52;47-46;49-46;46-47;49-56,51-52,7.16,99,0,1451.48520452
GEMS233,2018_Apr_23_1531,Kramer,EG,spatial_frequency,8,6,17,3-50;4-39;34-49;9-48,3,SimpleHill,34-49,94,35,selected,51-52,45-50;50-53;50-56;57-48;47-55;48-57,47-55,3.71,99,0,1458.77407424
GEMS233,2018_Apr_23_1531,Kramer,EG,spatial_frequency,8,6,17,3-50;4-39;34-49;9-48,3,SimpleHill,34-49,94,36,selected,47-55,51-55;49-59;40-56;47-53;52-61;55-55,51-55,7.76,99,0,1470.11336428
GEMS233,2018_Apr_23_1531,Kramer,EG,spatial_frequency,8,6,17,3-50;4-39;34-49;9-48,3,SimpleHill,34-49,94,37,selected,51-55,49-52;51-62;58-54;50-55;46-57;54-55,49-52,2.48,99,0,1476.16306056
GEMS233,2018_Apr_23_1531,Kramer,EG,spatial_frequency,8,6,17,3-50;4-39;34-49;9-48,3,SimpleHill,34-49,94,38,selected,49-52,50-47;52-48;46-47;44-46;43-48;55-47,50-47,7.49,99,0,1487.22089711
GEMS233,2018_Apr_23_1531,Kramer,EG,spatial_frequency,8,6,17,3-50;4-39;34-49;9-48,3,SimpleHill,34-49,94,39,selected,50-47,53-48;57-44;54-53;54-48;48-47;45-46,54-48,2.87,99,0,1493.66221183
GEMS233,2018_Apr_23_1531,Kramer,EG,spatial_frequency,8,6,17,3-50;4-39;34-49;9-48,4,SimpleHill,9-48,66,0,selected,9-48,7-44;12-51;5-46;13-45;11-55;4-46,12-51,2.68,71,5,1505.70191258
GEMS233,2018_Apr_23_1531,Kramer,EG,spatial_frequency,8,6,17,3-50;4-39;34-49;9-48,4,SimpleHill,9-48,66,1,selected,12-51,17-53;10-47;16-49;16-55;12-43;9-47,16-55,6.62,76,5,1515.89159011
GEMS233,2018_Apr_23_1531,Kramer,EG,spatial_frequency,8,6,17,3-50;4-39;34-49;9-48,4,SimpleHill,9-48,66,2,selected,16-55,16-48;17-51;13-52;16-50;19-48;12-50,16-50,3.18,76,0,1522.64480392
GEMS233,2018_Apr_23_1531,Kramer,EG,spatial_frequency,8,6,17,3-50;4-39;34-49;9-48,4,SimpleHill,9-48,66,3,selected,16-50,20-56;11-44;11-47;22-46;12-56;17-44,22-46,3.57,84,8,1529.7813621
GEMS233,2018_Apr_23_1531,Kramer,EG,spatial_frequency,8,6,17,3-50;4-39;34-49;9-48,4,SimpleHill,9-48,66,4,selected,22-46,23-45;21-45;27-52;28-45;19-49;28-44,28-45,1.06,89,5,1534.4224043
GEMS233,2018_Apr_23_1531,Kramer,EG,spatial_frequency,8,6,17,3-50;4-39;34-49;9-48,4,SimpleHill,9-48,66,5,selected,28-45,24-41;25-46;26-43;29-46;25-52;29-44,29-46,0.53,90,1,1538.53764944
GEMS233,2018_Apr_23_1531,Kramer,EG,spatial_frequency,8,6,17,3-50;4-39;34-49;9-48,4,SimpleHill,9-48,66,6,selected,29-46,22-48;34-46;36-43;31-53;34-52;24-43,22-48,2.5,84,-6,1544.59822886
GEMS233,2018_Apr_23_1531,Kramer,EG,spatial_frequency,8,6,17,3-50;4-39;34-49;9-48,4,SimpleHill,9-48,66,7,selected,22-48,28-53;24-46;20-43;20-51;20-50;20-46,24-46,0.97,86,2,1549.13976167
GEMS233,2018_Apr_23_1531,Kramer,EG,spatial_frequency,8,6,17,3-50;4-39;34-49;9-48,4,SimpleHill,9-48,66,8,selected,24-46,21-41;24-45;23-45;18-43;31-49;29-46,24-45,2.46,85,-1,1555.1557839
GEMS233,2018_Apr_23_1531,Kramer,EG,spatial_frequency,8,6,17,3-50;4-39;34-49;9-48,4,SimpleHill,9-48,66,9,selected,24-45,24-42;25-51;31-46;21-46;18-40;21-48,31-46,0.8,92,7,1559.5208369
GEMS233,2018_Apr_23_1531,Kramer,EG,spatial_frequency,8,6,17,3-50;4-39;34-49;9-48,4,SimpleHill,9-48,66,10,selected,31-46,32-41;37-50;31-42;36-46;30-39;32-53,36-46,3.15,95,3,1566.24130109
GEMS233,2018_Apr_23_1531,Kramer,EG,spatial_frequency,8,6,17,3-50;4-39;34-49;9-48,4,SimpleHill,9-48,66,11,selected,36-46,39-43;31-47;35-48;34-42;41-52;41-50,39-43,11.34,96,1,1581.14526021
GEMS233,2018_Apr_23_1531,Kramer,EG,spatial_frequency,8,6,17,3-50;4-39;34-49;9-48,4,SimpleHill,9-48,66,12,selected,39-43,42-36;46-43;39-37;44-42;34-49;35-37,39-37,5.39,94,-2,1590.09455276
GEMS233,2018_Apr_23_1531,Kramer,EG,spatial_frequency,8,6,17,3-50;4-39;34-49;9-48,4,SimpleHill,9-48,66,13,selected,39-37,39-30;41-39;42-34;39-29;44-37;32-37,44-37,4.55,95,1,1598.21779669
GEMS233,2018_Apr_23_1531,Kramer,EG,spatial_frequency,8,6,17,3-50;4-39;34-49;9-48,4,SimpleHill,9-48,66,14,selected,44-37,37-40;50-39;40-34;45-44;39-35;43-32,39-35,5.47,93,-2,1607.26300208
GEMS233,2018_Apr_23_1531,Kramer,EG,spatial_frequency,8,6,17,3-50;4-39;34-49;9-48,4,SimpleHill,9-48,66,15,selected,39-35,33-39;38-37;38-40;35-35;42-39;41-34,38-40,1.34,95,2,1612.16196136
GEMS233,2018_Apr_23_1531,Kramer,EG,spatial_frequency,8,6,17,3-50;4-39;34-49;9-48,4,SimpleHill,9-48,66,16,selected,38-40,37-45;42-46;42-43;43-35;44-36;32-35,44-36,3.52,95,0,1619.2519925
GEMS233,2018_Apr_23_1531,Kramer,EG,spatial_frequency,8,6,17,3-50;4-39;34-49;9-48,4,SimpleHill,9-48,66,17,selected,44-36,47-31;46-43;42-34;49-38;41-29;46-42,49-38,2.74,97,2,1625.57388807
GEMS233,2018_Apr_23_1531,Kramer,EG,spatial_frequency,8,6,17,3-50;4-39;34-49;9-48,4,SimpleHill,9-48,66,18,selected,49-38,54-35;51-42;49-42;54-43;53-35;43-39,54-43,1.3,98,1,1630.4560457
GEMS233,2018_Apr_23_1531,Kramer,EG,spatial_frequency,8,6,17,3-50;4-39;34-49;9-48,4,SimpleHill,9-48,66,19,selected,54-43,58-38;49-42;61-45;56-36;54-50;60-42,56-36,0.99,95,-3,1635.00633015
GEMS233,2018_Apr_23_1531,Kramer,EG,spatial_frequency,8,6,17,3-50;4-39;34-49;9-48,4,SimpleHill,9-48,66,20,selected,56-36,50-35;55-40;56-31;53-41;52-37;54-43,55-40,2.32,97,2,1640.89533776
GEMS233,2018_Apr_23_1531,Kramer,EG,spatial_frequency,8,6,17,3-50;4-39;34-49;9-48,4,SimpleHill,9-48,66,21,selected,55-40,55-45;60-35;54-40;56-34;55-37;60-46,55-37,4.88,96,-1,1649.33575238
GEMS233,2018_Apr_23_1531,Kramer,EG,spatial_frequency,8,6,17,3-50;4-39;34-49;9-48,4,SimpleHill,9-48,66,22,selected,55-37,54-32;52-39;52-32;51-43;62-35;51-38,51-43,1.34,99,3,1654.24023006
GEMS233,2018_Apr_23_1531,Kramer,EG,spatial_frequency,8,6,17,3-50;4-39;34-49;9-48,4,SimpleHill,9-48,66,23,selected,51-43,50-48;51-44;54-47;46-43;50-49;48-37,54-47,1.81,99,0,1659.63855444
GEMS233,2018_Apr_23_1531,Kramer,EG,spatial_frequency,8,6,17,3-50;4-39;34-49;9-48,4,SimpleHill,9-48,66,24,selected,54-47,49-47;60-45;59-46;49-45;53-47;47-45,49-45,1.49,99,0,1664.69355017
GEMS233,2018_Apr_23_1531,Kramer,EG,spatial_frequency,8,6,17,3-50;4-39;34-49;9-48,4,SimpleHill,9-48,66,25,selected,49-45,54-49;54-42;53-39;46-43;48-52;54-45,46-43,4.04,98,-1,1672.3149294
GEMS233,2018_Apr_23_1531,Kramer,EG,spatial_frequency,8,6,17,3-50;4-39;34-49;9-48,4,SimpleHill,9-48,66,26,selected,46-43,45-38;45-49;41-49;42-43;49-46;41-46,42-43,0.83,97,-1,1676.72131787
GEMS233,2018_Apr_23_1531,Kramer,EG,spatial_frequency,8,6,17,3-50;4-39;34-49;9-48,4,SimpleHill,9-48,66,27,selected,42-43,42-48;40-36;42-50;39-38;37-37;39-47,39-47,1.97,97,0,1682.26275497
GEMS233,2018_Apr_23_1531,Kramer,EG,spatial_frequency,8,6,17,3-50;4-39;34-49;9-48,4,SimpleHill,9-48,66,28,selected,39-47,40-44;41-53;46-46;32-45;38-45;33-49,32-45,2.38,93,-4,1688.21311566
GEMS233,2018_Apr_23_1531,Kramer,EG,spatial_frequency,8,6,17,3-50;4-39;34-49;9-48,4,SimpleHill,9-48,66,29,selected,32-45,33-42;31-52;36-43;36-41;30-52;33-38,36-41,3.59,94,1,1695.36422045
GEMS233,2018_Apr_23_1531,Kramer,EG,spatial_frequency,8,6,17,3-50;4-39;34-49;9-48,4,SimpleHill,9-48,66,30,selected,36-41,34-41;33-35;29-41;29-39;39-42;42-46,29-39,1.91,88,-6,1700.8492518
GEMS233,2018_Apr_23_1531,Kramer,EG,spatial_frequency,8,6,17,3-50;4-39;34-49;9-48,4,SimpleHill,9-48,66,31,selected,29-39,35-42;35-39;32-44;33-40;26-34;30-44,35-42,1.31,94,6,1705.73347146
GEMS233,2018_Apr_23_1531,Kramer,EG,spatial_frequency,8,6,17,3-50;4-39;34-49;9-48,4,SimpleHill,9-48,66,32,selected,35-42,38-45;34-35;35-39;37-40;37-39;41-43,35-39,1.45,93,-1,1710.72977632
GEMS233,2018_Apr_23_1531,Kramer,EG,spatial_frequency,8,6,17,3-50;4-39;34-49;9-48,4,SimpleHill,9-48,66,33,selected,35-39,40-35;36-36;35-32;32-38;29-35;32-39,32-38,3.28,90,-3,1717.58310225
GEMS233,2018_Apr_23_1531,Kramer,EG,spatial_frequency,8,6,17,3-50;4-39;34-49;9-48,4,SimpleHill,9-48,66,34,selected,32-38,39-36;26-40;27-44;29-43;28-38;33-41,27-44,1.44,88,-2,1722.60213463
GEMS233,2018_Apr_23_1531,Kramer,EG,spatial_frequency,8,6,17,3-50;4-39;34-49;9-48,4,SimpleHill,9-48,66,35,selected,27-44,27-38;29-45;23-40;26-43;24-49;20-47,27-38,0.69,86,-2,1726.87728294
GEMS233,2018_Apr_23_1531,Kramer,EG,spatial_frequency,8,6,17,3-50;4-39;34-49;9-48,4,SimpleHill,9-48,66,36,selected,27-38,25-44;30-42;33-43;25-35;21-34;30-41,30-41,1.65,90,4,1732.1069317
GEMS233,2018_Apr_23_1531,Kramer,EG,spatial_frequency,8,6,17,3-50;4-39;34-49;9-48,4,SimpleHill,9-48,66,37,selected,30-41,34-39;27-42;26-47;30-33;28-37;27-34,27-42,0.72,88,-2,1736.3899642
GEMS233,2018_Apr_23_1531,Kramer,EG,spatial_frequency,8,6,17,3-50;4-39;34-49;9-48,4,SimpleHill,9-48,66,38,selected,27-42,34-42;30-39;33-42;22-42;34-44;25-35,34-42,1.15,93,5,1741.10588052
GEMS233,2018_Apr_23_1531,Kramer,EG,spatial_frequency,8,6,17,3-50;4-39;34-49;9-48,4,SimpleHill,9-48,66,39,selected,34-42,30-39;34-45;40-42;35-40;27-41;30-41,27-41,2.03,87,-6,1746.70586573
