subj_id,date,computer,experimenter,instructions,sight_radius,n_gabors,start_pos_list_ix,start_pos_list,landscape_ix,landscape_name,starting_pos,starting_score,trial,feedback,pos,stims,selected,rt,score,delta,exp_time
GEMS125,2018_Mar_07_1228,Jerry,sf,orientation,8,6,0,0-0;0-0;0-0;0-0,0,OrientationBias,0-0,0,0,training,0-0,1-2;4-5;8-0;1-4;2-6;4-0,8-0,15.01,29,29,275.375408799
GEMS125,2018_Mar_07_1228,Jerry,sf,orientation,8,6,0,0-0;0-0;0-0;0-0,0,OrientationBias,0-0,0,1,training,8-0,7-6;5-6;4-0;11-2;8-1;3-2,11-2,6.65,39,10,305.623768242
GEMS125,2018_Mar_07_1228,Jerry,sf,orientation,8,6,0,0-0;0-0;0-0;0-0,0,OrientationBias,0-0,0,2,training,11-2,8-2;6-8;8-1;17-1;15-5;14-3,17-1,2.74,56,17,316.32183709
GEMS125,2018_Mar_07_1228,Jerry,sf,orientation,8,6,0,0-0;0-0;0-0;0-0,0,OrientationBias,0-0,0,3,training,17-1,15-5;17-3;17-2;12-7;20-1;22-3,20-1,5.77,64,8,328.563079908
GEMS125,2018_Mar_07_1228,Jerry,sf,orientation,8,6,0,0-0;0-0;0-0;0-0,0,OrientationBias,0-0,0,4,training,20-1,24-0;24-6;25-2;23-6;25-3;24-2,24-0,6.93,72,8,344.433403551
GEMS125,2018_Mar_07_1228,Jerry,sf,orientation,8,6,0,0-0;0-0;0-0;0-0,0,OrientationBias,0-0,0,5,training,24-0,22-5;21-7;23-1;21-3;24-8;23-6,21-3,4.29,66,-6,358.335734244
GEMS125,2018_Mar_07_1228,Jerry,sf,orientation,8,6,0,0-0;0-0;0-0;0-0,0,OrientationBias,0-0,0,6,training,21-3,16-0;23-3;23-8;22-5;18-6;23-0,23-8,4.85,70,4,370.783606634
GEMS125,2018_Mar_07_1228,Jerry,sf,orientation,8,6,0,0-0;0-0;0-0;0-0,0,OrientationBias,0-0,0,7,training,23-8,21-9;21-15;22-1;18-12;18-9;23-16,22-1,5.67,68,-2,380.270322618
GEMS125,2018_Mar_07_1228,Jerry,sf,orientation,8,6,0,0-0;0-0;0-0;0-0,0,OrientationBias,0-0,0,8,training,22-1,19-4;22-0;22-1;25-0;19-1;26-0,25-0,7.8,75,7,392.902930867
GEMS125,2018_Mar_07_1228,Jerry,sf,orientation,8,6,0,0-0;0-0;0-0;0-0,0,OrientationBias,0-0,0,9,training,25-0,28-2;27-5;23-6;32-3;26-7;22-7,32-3,1.89,87,12,398.337532525
GEMS125,2018_Mar_07_1228,Jerry,sf,orientation,8,6,0,0-0;0-0;0-0;0-0,0,OrientationBias,0-0,0,10,training,32-3,28-6;31-2;37-0;32-11;32-5;33-8,37-0,3.44,93,6,405.369395213
GEMS125,2018_Mar_07_1228,Jerry,sf,orientation,8,6,0,0-0;0-0;0-0;0-0,0,OrientationBias,0-0,0,11,training,37-0,31-5;39-5;37-8;43-4;33-2;33-5,43-4,2.97,98,5,412.295946696
GEMS125,2018_Mar_07_1228,Jerry,sf,orientation,8,6,0,0-0;0-0;0-0;0-0,0,OrientationBias,0-0,0,12,training,43-4,39-3;48-10;44-4;40-8;40-3;46-2,44-4,4.06,98,0,419.365665491
GEMS125,2018_Mar_07_1228,Jerry,sf,orientation,8,6,0,0-0;0-0;0-0;0-0,0,OrientationBias,0-0,0,13,training,44-4,51-2;50-1;38-3;49-2;49-1;46-1,50-1,3.12,100,2,432.798406129
GEMS125,2018_Mar_07_1228,Jerry,sf,orientation,8,6,0,0-0;0-0;0-0;0-0,0,OrientationBias,0-0,0,14,training,50-1,51-6;55-0;42-1;50-9;54-2;51-5,55-0,2.34,99,-1,438.383170091
GEMS125,2018_Mar_07_1228,Jerry,sf,orientation,8,6,0,0-0;0-0;0-0;0-0,0,OrientationBias,0-0,0,15,training,55-0,56-0;52-7;59-5;54-3;56-2;59-2,52-7,3.35,99,0,446.853542772
GEMS125,2018_Mar_07_1228,Jerry,sf,orientation,8,6,0,0-0;0-0;0-0;0-0,0,OrientationBias,0-0,0,16,training,52-7,59-9;54-1;46-6;48-6;50-0;51-6,48-6,2.6,99,0,452.185344995
GEMS125,2018_Mar_07_1228,Jerry,sf,orientation,8,6,0,0-0;0-0;0-0;0-0,0,OrientationBias,0-0,0,17,training,48-6,44-10;52-5;44-1;54-3;55-9;51-11,52-5,3.46,99,0,460.49814106
GEMS125,2018_Mar_07_1228,Jerry,sf,orientation,8,6,0,0-0;0-0;0-0;0-0,0,OrientationBias,0-0,0,18,training,52-5,47-0;57-2;59-3;58-5;57-3;48-11,47-0,5.1,99,0,468.75303104
GEMS125,2018_Mar_07_1228,Jerry,sf,orientation,8,6,0,0-0;0-0;0-0;0-0,0,OrientationBias,0-0,0,19,training,47-0,42-1;54-3;47-3;46-1;47-4;45-6,46-1,5.19,99,0,477.267160421
GEMS125,2018_Mar_07_1228,Jerry,sf,orientation,8,6,0,0-0;0-0;0-0;0-0,0,OrientationBias,0-0,0,20,training,46-1,45-6;44-2;50-1;49-0;50-5;45-0,50-1,2.5,100,1,487.709065959
GEMS125,2018_Mar_07_1228,Jerry,sf,orientation,8,6,0,0-0;0-0;0-0;0-0,0,OrientationBias,0-0,0,21,training,50-1,45-4;54-0;45-7;55-6;46-2;45-5,55-6,2.29,99,-1,494.840217945
GEMS125,2018_Mar_07_1228,Jerry,sf,orientation,8,6,0,0-0;0-0;0-0;0-0,0,OrientationBias,0-0,0,22,training,55-6,59-3;50-3;62-5;57-10;54-7;56-11,50-3,3.02,100,1,500.80902041
GEMS125,2018_Mar_07_1228,Jerry,sf,orientation,8,6,0,0-0;0-0;0-0;0-0,0,OrientationBias,0-0,0,23,training,50-3,45-4;56-7;54-0;55-3;50-10;48-7,54-0,4.25,99,-1,507.734070337
GEMS125,2018_Mar_07_1228,Jerry,sf,orientation,8,6,0,0-0;0-0;0-0;0-0,0,OrientationBias,0-0,0,24,training,54-0,54-4;58-1;54-0;59-3;53-7;51-2,54-0,1.76,99,0,512.277117231
GEMS125,2018_Mar_07_1228,Jerry,sf,orientation,8,6,0,0-0;0-0;0-0;0-0,0,OrientationBias,0-0,0,25,training,54-0,49-2;57-2;54-0;61-2;56-3;62-0,54-0,2.61,99,0,517.721461557
GEMS125,2018_Mar_07_1228,Jerry,sf,orientation,8,6,0,0-0;0-0;0-0;0-0,0,OrientationBias,0-0,0,26,training,54-0,52-0;57-6;50-1;59-4;59-1;61-0,50-1,2.22,100,1,522.536602464
GEMS125,2018_Mar_07_1228,Jerry,sf,orientation,8,6,0,0-0;0-0;0-0;0-0,0,OrientationBias,0-0,0,27,training,50-1,51-4;53-0;54-2;43-3;45-6;45-5,45-6,4.41,99,-1,529.584672095
GEMS125,2018_Mar_07_1228,Jerry,sf,orientation,8,6,0,0-0;0-0;0-0;0-0,0,OrientationBias,0-0,0,28,training,45-6,41-9;48-12;40-2;46-9;39-10;38-9,48-12,7.04,99,0,540.561188479
GEMS125,2018_Mar_07_1228,Jerry,sf,orientation,8,6,0,0-0;0-0;0-0;0-0,0,OrientationBias,0-0,0,29,training,48-12,54-16;49-11;44-10;53-16;52-6;46-7,53-16,5.12,99,0,550.199709804
GEMS125,2018_Mar_07_1228,Jerry,sf,orientation,8,6,0,0-0;0-0;0-0;0-0,1,SimpleHill,0-0,0,0,selected,0-0,4-5;4-4;7-1;6-4;4-3;4-1,7-1,8.66,15,15,575.727063183
GEMS125,2018_Mar_07_1228,Jerry,sf,orientation,8,6,0,0-0;0-0;0-0;0-0,1,SimpleHill,0-0,0,1,selected,7-1,2-5;5-6;8-8;7-5;13-4;2-2,13-4,3.87,30,15,583.180412043
GEMS125,2018_Mar_07_1228,Jerry,sf,orientation,8,6,0,0-0;0-0;0-0;0-0,1,SimpleHill,0-0,0,2,selected,13-4,12-11;11-11;16-9;10-11;11-3;12-6,16-9,4.46,43,13,591.222468729
GEMS125,2018_Mar_07_1228,Jerry,sf,orientation,8,6,0,0-0;0-0;0-0;0-0,1,SimpleHill,0-0,0,3,selected,16-9,24-9;16-10;20-11;21-5;13-4;13-7,24-9,5.5,52,9,600.29789062
GEMS125,2018_Mar_07_1228,Jerry,sf,orientation,8,6,0,0-0;0-0;0-0;0-0,1,SimpleHill,0-0,0,4,selected,24-9,17-8;25-3;21-5;29-12;26-9;25-16,25-3,3.24,43,-9,607.097133792
GEMS125,2018_Mar_07_1228,Jerry,sf,orientation,8,6,0,0-0;0-0;0-0;0-0,1,SimpleHill,0-0,0,5,selected,25-3,23-6;32-4;32-1;29-1;20-8;27-7,32-1,1.95,45,2,612.619513888
GEMS125,2018_Mar_07_1228,Jerry,sf,orientation,8,6,0,0-0;0-0;0-0;0-0,1,SimpleHill,0-0,0,6,selected,32-1,36-5;26-0;31-6;27-2;38-5;28-1,38-5,2.37,56,11,618.556939246
GEMS125,2018_Mar_07_1228,Jerry,sf,orientation,8,6,0,0-0;0-0;0-0;0-0,1,SimpleHill,0-0,0,7,selected,38-5,37-8;43-5;44-0;36-6;33-7;35-8,44-0,3.17,49,-7,625.310623915
GEMS125,2018_Mar_07_1228,Jerry,sf,orientation,8,6,0,0-0;0-0;0-0;0-0,1,SimpleHill,0-0,0,8,selected,44-0,41-5;47-1;42-4;49-1;48-2;50-1,47-1,3.67,51,2,632.555035974
GEMS125,2018_Mar_07_1228,Jerry,sf,orientation,8,6,0,0-0;0-0;0-0;0-0,1,SimpleHill,0-0,0,9,selected,47-1,53-3;43-1;46-2;43-2;44-1;45-0,53-3,3.22,55,4,639.353163302
GEMS125,2018_Mar_07_1228,Jerry,sf,orientation,8,6,0,0-0;0-0;0-0;0-0,1,SimpleHill,0-0,0,10,selected,53-3,48-6;48-7;47-1;52-6;55-1;48-2,47-1,1.71,51,-4,644.646253489
GEMS125,2018_Mar_07_1228,Jerry,sf,orientation,8,6,0,0-0;0-0;0-0;0-0,1,SimpleHill,0-0,0,11,selected,47-1,52-3;49-2;46-3;48-6;45-5;39-1,52-3,5.46,55,4,653.693658287
GEMS125,2018_Mar_07_1228,Jerry,sf,orientation,8,6,0,0-0;0-0;0-0;0-0,1,SimpleHill,0-0,0,12,selected,52-3,59-2;52-4;56-9;54-4;47-6;50-0,52-4,1.9,57,2,659.161220873
GEMS125,2018_Mar_07_1228,Jerry,sf,orientation,8,6,0,0-0;0-0;0-0;0-0,1,SimpleHill,0-0,0,13,selected,52-4,55-1;45-3;53-1;54-11;53-5;49-4,53-1,1.8,51,-6,664.537150463
GEMS125,2018_Mar_07_1228,Jerry,sf,orientation,8,6,0,0-0;0-0;0-0;0-0,1,SimpleHill,0-0,0,14,selected,53-1,53-4;58-7;48-5;52-0;47-0;51-1,47-0,2.42,49,-2,670.517353677
GEMS125,2018_Mar_07_1228,Jerry,sf,orientation,8,6,0,0-0;0-0;0-0;0-0,1,SimpleHill,0-0,0,15,selected,47-0,46-4;52-6;48-0;45-2;50-5;39-0,48-0,1.86,49,0,675.937606211
GEMS125,2018_Mar_07_1228,Jerry,sf,orientation,8,6,0,0-0;0-0;0-0;0-0,1,SimpleHill,0-0,0,16,selected,48-0,55-3;52-0;48-5;56-0;49-2;53-0,48-5,1.73,59,10,681.232626878
GEMS125,2018_Mar_07_1228,Jerry,sf,orientation,8,6,0,0-0;0-0;0-0;0-0,1,SimpleHill,0-0,0,17,selected,48-5,53-9;42-10;49-8;54-5;49-6;52-10,49-8,2.6,64,5,687.407094475
GEMS125,2018_Mar_07_1228,Jerry,sf,orientation,8,6,0,0-0;0-0;0-0;0-0,1,SimpleHill,0-0,0,18,selected,49-8,49-1;53-6;47-6;50-3;55-3;51-7,55-3,2.87,55,-9,693.860054102
GEMS125,2018_Mar_07_1228,Jerry,sf,orientation,8,6,0,0-0;0-0;0-0;0-0,1,SimpleHill,0-0,0,19,selected,55-3,51-8;48-5;53-2;54-3;58-2;59-7,53-2,0.97,53,-2,698.41279789
GEMS125,2018_Mar_07_1228,Jerry,sf,orientation,8,6,0,0-0;0-0;0-0;0-0,1,SimpleHill,0-0,0,20,selected,53-2,48-4;58-2;50-1;52-4;51-4;52-6,50-1,1.69,51,-2,703.685400531
GEMS125,2018_Mar_07_1228,Jerry,sf,orientation,8,6,0,0-0;0-0;0-0;0-0,1,SimpleHill,0-0,0,21,selected,50-1,43-0;47-6;50-0;57-2;49-2;49-6,57-2,2.5,52,1,709.756495725
GEMS125,2018_Mar_07_1228,Jerry,sf,orientation,8,6,0,0-0;0-0;0-0;0-0,1,SimpleHill,0-0,0,22,selected,57-2,51-6;64-5;54-2;62-6;58-8;51-4,58-8,3.77,63,11,717.106903988
GEMS125,2018_Mar_07_1228,Jerry,sf,orientation,8,6,0,0-0;0-0;0-0;0-0,1,SimpleHill,0-0,0,23,selected,58-8,52-7;57-7;60-10;55-3;62-6;59-7,52-7,2.12,62,-1,722.793321774
GEMS125,2018_Mar_07_1228,Jerry,sf,orientation,8,6,0,0-0;0-0;0-0;0-0,1,SimpleHill,0-0,0,24,selected,52-7,58-6;52-5;51-6;57-3;50-0;52-8,52-8,1.77,64,2,728.13419991
GEMS125,2018_Mar_07_1228,Jerry,sf,orientation,8,6,0,0-0;0-0;0-0;0-0,1,SimpleHill,0-0,0,25,selected,52-8,50-14;54-8;57-10;56-11;56-6;57-4,50-14,4.82,74,10,736.536041341
GEMS125,2018_Mar_07_1228,Jerry,sf,orientation,8,6,0,0-0;0-0;0-0;0-0,1,SimpleHill,0-0,0,26,selected,50-14,53-9;46-10;43-14;48-11;55-10;46-18,46-10,5.89,67,-7,746.008810237
GEMS125,2018_Mar_07_1228,Jerry,sf,orientation,8,6,0,0-0;0-0;0-0;0-0,1,SimpleHill,0-0,0,27,selected,46-10,41-14;51-7;52-5;52-15;50-8;41-4,41-14,1.82,72,5,751.417536546
GEMS125,2018_Mar_07_1228,Jerry,sf,orientation,8,6,0,0-0;0-0;0-0;0-0,1,SimpleHill,0-0,0,28,selected,41-14,47-18;42-14;46-12;46-9;45-9;35-15,35-15,2.16,71,-1,757.167828871
GEMS125,2018_Mar_07_1228,Jerry,sf,orientation,8,6,0,0-0;0-0;0-0;0-0,1,SimpleHill,0-0,0,29,selected,35-15,38-12;32-9;32-11;38-16;29-13;31-21,38-16,2.73,74,3,763.480554836
GEMS125,2018_Mar_07_1228,Jerry,sf,orientation,8,6,0,0-0;0-0;0-0;0-0,1,SimpleHill,0-0,0,30,selected,38-16,34-18;35-14;39-10;43-13;45-14;44-21,44-21,2.35,82,8,769.425399628
GEMS125,2018_Mar_07_1228,Jerry,sf,orientation,8,6,0,0-0;0-0;0-0;0-0,1,SimpleHill,0-0,0,31,selected,44-21,44-25;40-25;48-21;41-24;44-27;37-18,44-27,4.64,88,6,777.6487723
GEMS125,2018_Mar_07_1228,Jerry,sf,orientation,8,6,0,0-0;0-0;0-0;0-0,1,SimpleHill,0-0,0,32,selected,44-27,42-34;41-33;43-24;39-29;40-32;42-30,40-32,8.51,91,3,789.712520722
GEMS125,2018_Mar_07_1228,Jerry,sf,orientation,8,6,0,0-0;0-0;0-0;0-0,1,SimpleHill,0-0,0,33,selected,40-32,34-32;40-40;36-26;44-28;40-26;41-36,44-28,3.1,89,-2,796.394349656
GEMS125,2018_Mar_07_1228,Jerry,sf,orientation,8,6,0,0-0;0-0;0-0;0-0,1,SimpleHill,0-0,0,34,selected,44-28,49-34;41-22;50-30;45-31;49-28;42-29,49-28,2.67,90,1,802.648178847
GEMS125,2018_Mar_07_1228,Jerry,sf,orientation,8,6,0,0-0;0-0;0-0;0-0,1,SimpleHill,0-0,0,35,selected,49-28,52-22;45-22;45-27;54-26;55-27;49-20,55-27,1.92,88,-2,808.143837267
GEMS125,2018_Mar_07_1228,Jerry,sf,orientation,8,6,0,0-0;0-0;0-0;0-0,1,SimpleHill,0-0,0,36,selected,55-27,59-22;51-30;57-29;53-27;61-32;60-33,51-30,2.13,91,3,813.855331131
GEMS125,2018_Mar_07_1228,Jerry,sf,orientation,8,6,0,0-0;0-0;0-0;0-0,1,SimpleHill,0-0,0,37,selected,51-30,52-28;49-36;49-30;53-36;58-28;51-23,53-36,2.01,95,4,819.442120961
GEMS125,2018_Mar_07_1228,Jerry,sf,orientation,8,6,0,0-0;0-0;0-0;0-0,1,SimpleHill,0-0,0,38,selected,53-36,61-36;51-40;51-35;46-36;48-34;50-40,51-40,2.54,97,2,825.568488838
GEMS125,2018_Mar_07_1228,Jerry,sf,orientation,8,6,0,0-0;0-0;0-0;0-0,1,SimpleHill,0-0,0,39,selected,51-40,53-36;49-37;46-39;49-39;52-33;52-42,46-39,1.22,97,0,830.342044555
GEMS125,2018_Mar_07_1228,Jerry,sf,orientation,8,6,0,0-0;0-0;0-0;0-0,2,SimpleHill,0-0,0,0,selected,0-0,4-2;3-4;1-5;1-3;4-1;6-5,1-5,4.39,11,11,849.257323966
GEMS125,2018_Mar_07_1228,Jerry,sf,orientation,8,6,0,0-0;0-0;0-0;0-0,2,SimpleHill,0-0,0,1,selected,1-5,8-6;0-12;0-8;1-0;0-2;5-6,0-12,3.37,21,10,856.21750953
GEMS125,2018_Mar_07_1228,Jerry,sf,orientation,8,6,0,0-0;0-0;0-0;0-0,2,SimpleHill,0-0,0,2,selected,0-12,3-6;2-17;6-13;1-9;3-18;5-16,1-9,2.74,18,-3,862.552489635
GEMS125,2018_Mar_07_1228,Jerry,sf,orientation,8,6,0,0-0;0-0;0-0;0-0,2,SimpleHill,0-0,0,3,selected,1-9,0-14;6-4;3-14;3-9;1-1;1-11,3-14,2.04,29,11,868.169683489
GEMS125,2018_Mar_07_1228,Jerry,sf,orientation,8,6,0,0-0;0-0;0-0;0-0,2,SimpleHill,0-0,0,4,selected,3-14,1-19;8-9;4-14;5-17;5-16;0-19,4-14,2.15,31,2,873.883686881
GEMS125,2018_Mar_07_1228,Jerry,sf,orientation,8,6,0,0-0;0-0;0-0;0-0,2,SimpleHill,0-0,0,5,selected,4-14,4-21;4-8;2-10;9-15;5-21;7-14,2-10,3.45,21,-10,880.905881483
GEMS125,2018_Mar_07_1228,Jerry,sf,orientation,8,6,0,0-0;0-0;0-0;0-0,2,SimpleHill,0-0,0,6,selected,2-10,2-14;0-4;8-7;3-13;5-9;2-15,0-4,4.76,7,-14,889.244370766
GEMS125,2018_Mar_07_1228,Jerry,sf,orientation,8,6,0,0-0;0-0;0-0;0-0,2,SimpleHill,0-0,0,7,selected,0-4,0-0;7-1;4-10;7-6;0-2;8-4,4-10,0.95,25,18,893.755530325
GEMS125,2018_Mar_07_1228,Jerry,sf,orientation,8,6,0,0-0;0-0;0-0;0-0,2,SimpleHill,0-0,0,8,selected,4-10,6-4;4-18;3-6;3-15;6-3;1-14,3-15,1.73,31,6,899.055215706
GEMS125,2018_Mar_07_1228,Jerry,sf,orientation,8,6,0,0-0;0-0;0-0;0-0,2,SimpleHill,0-0,0,9,selected,3-15,9-15;4-18;6-15;4-9;6-9;0-14,4-9,3.06,24,-7,905.706280831
GEMS125,2018_Mar_07_1228,Jerry,sf,orientation,8,6,0,0-0;0-0;0-0;0-0,2,SimpleHill,0-0,0,10,selected,4-9,3-15;7-6;6-4;3-10;4-16;7-14,4-16,3.79,34,10,913.081785657
GEMS125,2018_Mar_07_1228,Jerry,sf,orientation,8,6,0,0-0;0-0;0-0;0-0,2,SimpleHill,0-0,0,11,selected,4-16,7-23;5-21;11-18;2-10;4-19;4-16,2-10,1.72,21,-13,918.368723658
GEMS125,2018_Mar_07_1228,Jerry,sf,orientation,8,6,0,0-0;0-0;0-0;0-0,2,SimpleHill,0-0,0,12,selected,2-10,0-16;1-9;8-5;2-16;6-15;2-13,8-5,1.18,24,3,923.136839396
GEMS125,2018_Mar_07_1228,Jerry,sf,orientation,8,6,0,0-0;0-0;0-0;0-0,2,SimpleHill,0-0,0,13,selected,8-5,3-4;9-1;6-2;15-2;14-1;10-0,6-2,1.08,15,-9,927.803620123
GEMS125,2018_Mar_07_1228,Jerry,sf,orientation,8,6,0,0-0;0-0;0-0;0-0,2,SimpleHill,0-0,0,14,selected,6-2,9-3;5-6;3-0;4-2;7-8;0-0,4-2,1.78,11,-4,933.146928725
GEMS125,2018_Mar_07_1228,Jerry,sf,orientation,8,6,0,0-0;0-0;0-0;0-0,2,SimpleHill,0-0,0,15,selected,4-2,7-3;3-2;4-0;9-4;11-5;1-6,4-0,1.22,7,-4,937.92778512
GEMS125,2018_Mar_07_1228,Jerry,sf,orientation,8,6,0,0-0;0-0;0-0;0-0,2,SimpleHill,0-0,0,16,selected,4-0,0-1;7-4;2-0;1-5;7-6;10-0,7-6,1.63,24,17,943.121492222
GEMS125,2018_Mar_07_1228,Jerry,sf,orientation,8,6,0,0-0;0-0;0-0;0-0,2,SimpleHill,0-0,0,17,selected,7-6,8-11;6-3;13-8;7-9;14-9;3-7,6-3,2.04,17,-7,948.734239666
GEMS125,2018_Mar_07_1228,Jerry,sf,orientation,8,6,0,0-0;0-0;0-0;0-0,2,SimpleHill,0-0,0,18,selected,6-3,13-4;2-7;13-6;10-5;1-9;1-0,1-9,2.31,18,1,954.630853179
GEMS125,2018_Mar_07_1228,Jerry,sf,orientation,8,6,0,0-0;0-0;0-0;0-0,2,SimpleHill,0-0,0,19,selected,1-9,3-14;6-11;6-7;3-5;1-6;2-5,1-6,1.46,13,-5,959.669229757
GEMS125,2018_Mar_07_1228,Jerry,sf,orientation,8,6,0,0-0;0-0;0-0;0-0,2,SimpleHill,0-0,0,20,selected,1-6,0-8;5-4;7-11;8-3;3-2;5-10,3-2,1.91,9,-4,965.152592448
GEMS125,2018_Mar_07_1228,Jerry,sf,orientation,8,6,0,0-0;0-0;0-0;0-0,2,SimpleHill,0-0,0,21,selected,3-2,9-6;3-7;7-6;5-1;6-8;9-0,6-8,2.15,26,17,970.879598015
GEMS125,2018_Mar_07_1228,Jerry,sf,orientation,8,6,0,0-0;0-0;0-0;0-0,2,SimpleHill,0-0,0,22,selected,6-8,5-11;0-9;7-5;5-10;6-4;7-12,7-5,2.6,22,-4,977.054488135
GEMS125,2018_Mar_07_1228,Jerry,sf,orientation,8,6,0,0-0;0-0;0-0;0-0,2,SimpleHill,0-0,0,23,selected,7-5,15-5;8-6;12-5;1-10;2-3;7-12,2-3,1.25,9,-13,981.87579147
GEMS125,2018_Mar_07_1228,Jerry,sf,orientation,8,6,0,0-0;0-0;0-0;0-0,2,SimpleHill,0-0,0,24,selected,2-3,7-4;7-3;3-10;5-5;8-8;1-1,3-10,1.37,23,14,986.821021653
GEMS125,2018_Mar_07_1228,Jerry,sf,orientation,8,6,0,0-0;0-0;0-0;0-0,2,SimpleHill,0-0,0,25,selected,3-10,5-17;8-8;9-12;3-17;4-8;5-4,3-17,1.63,34,11,992.015977757
GEMS125,2018_Mar_07_1228,Jerry,sf,orientation,8,6,0,0-0;0-0;0-0;0-0,2,SimpleHill,0-0,0,26,selected,3-17,7-21;4-15;0-14;0-15;9-22;2-10,0-15,0.89,25,-9,996.48907795
GEMS125,2018_Mar_07_1228,Jerry,sf,orientation,8,6,0,0-0;0-0;0-0;0-0,2,SimpleHill,0-0,0,27,selected,0-15,2-16;1-13;2-13;7-17;4-18;5-21,2-13,0.81,26,1,1000.87594479
GEMS125,2018_Mar_07_1228,Jerry,sf,orientation,8,6,0,0-0;0-0;0-0;0-0,2,SimpleHill,0-0,0,28,selected,2-13,9-15;5-14;6-9;1-19;7-17;1-13,1-19,1.91,32,6,1006.37224084
GEMS125,2018_Mar_07_1228,Jerry,sf,orientation,8,6,0,0-0;0-0;0-0;0-0,2,SimpleHill,0-0,0,29,selected,1-19,0-24;4-22;0-23;7-21;1-14;1-23,0-23,2.11,35,3,1012.07332496
GEMS125,2018_Mar_07_1228,Jerry,sf,orientation,8,6,0,0-0;0-0;0-0;0-0,2,SimpleHill,0-0,0,30,selected,0-23,5-26;2-26;2-29;0-31;5-18;1-19,0-31,3.04,42,7,1018.68843661
GEMS125,2018_Mar_07_1228,Jerry,sf,orientation,8,6,0,0-0;0-0;0-0;0-0,2,SimpleHill,0-0,0,31,selected,0-31,1-35;4-26;1-28;0-33;7-31;0-30,0-33,1.06,44,2,1023.32725114
GEMS125,2018_Mar_07_1228,Jerry,sf,orientation,8,6,0,0-0;0-0;0-0;0-0,2,SimpleHill,0-0,0,32,selected,0-33,5-30;1-33;4-30;0-39;2-33;0-25,0-39,0.95,47,3,1027.85946385
GEMS125,2018_Mar_07_1228,Jerry,sf,orientation,8,6,0,0-0;0-0;0-0;0-0,2,SimpleHill,0-0,0,33,selected,0-39,4-41;4-37;1-33;7-36;1-37;7-39,1-33,0.78,46,-1,1032.22127798
GEMS125,2018_Mar_07_1228,Jerry,sf,orientation,8,6,0,0-0;0-0;0-0;0-0,2,SimpleHill,0-0,0,34,selected,1-33,1-32;7-37;2-28;1-41;4-31;7-29,2-28,2.71,44,-2,1038.50839108
GEMS125,2018_Mar_07_1228,Jerry,sf,orientation,8,6,0,0-0;0-0;0-0;0-0,2,SimpleHill,0-0,0,35,selected,2-28,1-33;0-27;3-31;1-28;8-29;0-28,1-28,3.29,42,-2,1045.37335636
GEMS125,2018_Mar_07_1228,Jerry,sf,orientation,8,6,0,0-0;0-0;0-0;0-0,2,SimpleHill,0-0,0,36,selected,1-28,0-24;1-28;8-31;0-28;6-32;1-21,0-28,0.77,40,-2,1049.72997987
GEMS125,2018_Mar_07_1228,Jerry,sf,orientation,8,6,0,0-0;0-0;0-0;0-0,2,SimpleHill,0-0,0,37,selected,0-28,5-30;4-32;2-34;2-27;3-26;1-26,4-32,2.33,51,11,1055.62698966
GEMS125,2018_Mar_07_1228,Jerry,sf,orientation,8,6,0,0-0;0-0;0-0;0-0,2,SimpleHill,0-0,0,38,selected,4-32,8-27;6-39;8-30;7-27;9-38;5-35,6-39,3.71,58,7,1062.9122014
GEMS125,2018_Mar_07_1228,Jerry,sf,orientation,8,6,0,0-0;0-0;0-0;0-0,2,SimpleHill,0-0,0,39,selected,6-39,7-35;4-38;4-36;9-43;4-45;3-40,4-38,1.96,54,-4,1068.43993633
GEMS125,2018_Mar_07_1228,Jerry,sf,orientation,8,6,0,0-0;0-0;0-0;0-0,3,SimpleHill,0-0,0,0,selected,0-0,2-2;5-3;3-2;0-1;0-2;7-2,0-1,2.45,1,1,1082.5744304
GEMS125,2018_Mar_07_1228,Jerry,sf,orientation,8,6,0,0-0;0-0;0-0;0-0,3,SimpleHill,0-0,0,1,selected,0-1,4-1;0-4;2-0;2-7;0-8;4-4,0-8,2.6,14,13,1088.74881254
GEMS125,2018_Mar_07_1228,Jerry,sf,orientation,8,6,0,0-0;0-0;0-0;0-0,3,SimpleHill,0-0,0,2,selected,0-8,4-7;1-7;0-11;4-11;1-11;4-13,0-11,1.6,19,5,1093.9125615
GEMS125,2018_Mar_07_1228,Jerry,sf,orientation,8,6,0,0-0;0-0;0-0;0-0,3,SimpleHill,0-0,0,3,selected,0-11,1-6;3-12;4-12;1-12;4-14;6-14,3-12,3.17,26,7,1100.68163304
GEMS125,2018_Mar_07_1228,Jerry,sf,orientation,8,6,0,0-0;0-0;0-0;0-0,3,SimpleHill,0-0,0,4,selected,3-12,3-13;2-10;4-17;6-17;6-16;4-14,2-10,2.22,21,-5,1106.47598295
GEMS125,2018_Mar_07_1228,Jerry,sf,orientation,8,6,0,0-0;0-0;0-0;0-0,3,SimpleHill,0-0,0,5,selected,2-10,6-12;1-11;0-16;2-11;9-9;10-10,0-16,1.87,26,5,1111.91770379
GEMS125,2018_Mar_07_1228,Jerry,sf,orientation,8,6,0,0-0;0-0;0-0;0-0,3,SimpleHill,0-0,0,6,selected,0-16,2-19;6-12;5-13;0-15;7-14;2-13,2-13,1.81,26,0,1117.30768258
GEMS125,2018_Mar_07_1228,Jerry,sf,orientation,8,6,0,0-0;0-0;0-0;0-0,3,SimpleHill,0-0,0,7,selected,2-13,2-18;7-12;4-16;1-13;2-21;6-15,2-21,1.22,37,11,1122.0887544
GEMS125,2018_Mar_07_1228,Jerry,sf,orientation,8,6,0,0-0;0-0;0-0;0-0,3,SimpleHill,0-0,0,8,selected,2-21,5-20;10-21;6-25;1-18;3-27;5-19,6-25,2.61,48,11,1128.28390608
GEMS125,2018_Mar_07_1228,Jerry,sf,orientation,8,6,0,0-0;0-0;0-0;0-0,3,SimpleHill,0-0,0,9,selected,6-25,11-23;2-25;8-19;5-29;10-31;13-27,2-25,2.83,41,-7,1134.70575364
GEMS125,2018_Mar_07_1228,Jerry,sf,orientation,8,6,0,0-0;0-0;0-0;0-0,3,SimpleHill,0-0,0,10,selected,2-25,2-30;8-29;3-19;4-29;4-21;5-25,8-29,1.87,55,14,1140.15964249
GEMS125,2018_Mar_07_1228,Jerry,sf,orientation,8,6,0,0-0;0-0;0-0;0-0,3,SimpleHill,0-0,0,11,selected,8-29,5-33;5-26;11-23;13-27;6-27;6-34,6-27,2.41,50,-5,1146.14444672
GEMS125,2018_Mar_07_1228,Jerry,sf,orientation,8,6,0,0-0;0-0;0-0;0-0,3,SimpleHill,0-0,0,12,selected,6-27,4-21;11-30;0-31;7-22;8-20;10-32,0-31,3.57,42,-8,1153.27386285
GEMS125,2018_Mar_07_1228,Jerry,sf,orientation,8,6,0,0-0;0-0;0-0;0-0,3,SimpleHill,0-0,0,13,selected,0-31,4-28;0-31;0-27;7-31;1-35;3-24,7-31,2.53,55,13,1159.37185225
GEMS125,2018_Mar_07_1228,Jerry,sf,orientation,8,6,0,0-0;0-0;0-0;0-0,3,SimpleHill,0-0,0,14,selected,7-31,6-29;12-37;2-30;1-34;7-34;14-30,14-30,2.32,66,11,1165.26862421
GEMS125,2018_Mar_07_1228,Jerry,sf,orientation,8,6,0,0-0;0-0;0-0;0-0,3,SimpleHill,0-0,0,15,selected,14-30,18-32;8-27;19-33;14-29;18-33;16-23,14-29,3.08,65,-1,1171.9242052
GEMS125,2018_Mar_07_1228,Jerry,sf,orientation,8,6,0,0-0;0-0;0-0;0-0,3,SimpleHill,0-0,0,16,selected,14-29,11-35;12-22;18-26;16-23;20-28;16-28,16-28,2.64,67,2,1178.14022662
GEMS125,2018_Mar_07_1228,Jerry,sf,orientation,8,6,0,0-0;0-0;0-0;0-0,3,SimpleHill,0-0,0,17,selected,16-28,19-23;17-25;14-26;11-29;22-25;14-25,14-26,5.33,62,-5,1187.04945083
GEMS125,2018_Mar_07_1228,Jerry,sf,orientation,8,6,0,0-0;0-0;0-0;0-0,3,SimpleHill,0-0,0,18,selected,14-26,19-21;7-26;9-24;9-29;9-28;21-27,21-27,2.94,72,10,1193.57829296
GEMS125,2018_Mar_07_1228,Jerry,sf,orientation,8,6,0,0-0;0-0;0-0;0-0,3,SimpleHill,0-0,0,19,selected,21-27,21-30;23-34;19-33;14-30;16-24;23-21,23-34,3.02,80,8,1200.18194305
GEMS125,2018_Mar_07_1228,Jerry,sf,orientation,8,6,0,0-0;0-0;0-0;0-0,3,SimpleHill,0-0,0,20,selected,23-34,20-38;28-35;17-35;20-37;19-40;21-33,19-40,3.84,78,-2,1207.59723862
GEMS125,2018_Mar_07_1228,Jerry,sf,orientation,8,6,0,0-0;0-0;0-0;0-0,3,SimpleHill,0-0,0,21,selected,19-40,20-43;13-35;23-40;17-44;16-39;25-35,23-40,1.72,83,5,1212.88623386
GEMS125,2018_Mar_07_1228,Jerry,sf,orientation,8,6,0,0-0;0-0;0-0;0-0,3,SimpleHill,0-0,0,22,selected,23-40,29-38;19-37;16-43;25-41;28-37;16-38,28-37,2.77,86,3,1219.25756083
GEMS125,2018_Mar_07_1228,Jerry,sf,orientation,8,6,0,0-0;0-0;0-0;0-0,3,SimpleHill,0-0,0,23,selected,28-37,26-37;34-40;30-36;23-34;26-43;32-40,26-43,1.24,87,1,1224.07927229
GEMS125,2018_Mar_07_1228,Jerry,sf,orientation,8,6,0,0-0;0-0;0-0;0-0,3,SimpleHill,0-0,0,24,selected,26-43,33-43;19-41;20-47;23-36;28-41;33-41,28-41,2.61,88,1,1230.28082775
GEMS125,2018_Mar_07_1228,Jerry,sf,orientation,8,6,0,0-0;0-0;0-0;0-0,3,SimpleHill,0-0,0,25,selected,28-41,33-41;22-40;32-47;25-38;33-46;32-45,22-40,1.51,82,-6,1235.38416046
GEMS125,2018_Mar_07_1228,Jerry,sf,orientation,8,6,0,0-0;0-0;0-0;0-0,3,SimpleHill,0-0,0,26,selected,22-40,27-35;27-40;20-46;18-36;18-34;16-43,27-35,3.68,84,2,1242.63749735
GEMS125,2018_Mar_07_1228,Jerry,sf,orientation,8,6,0,0-0;0-0;0-0;0-0,3,SimpleHill,0-0,0,27,selected,27-35,28-37;22-31;27-40;26-39;22-33;24-32,28-37,1.66,86,2,1247.87600593
GEMS125,2018_Mar_07_1228,Jerry,sf,orientation,8,6,0,0-0;0-0;0-0;0-0,3,SimpleHill,0-0,0,28,selected,28-37,26-43;25-35;30-38;22-41;31-38;26-33,30-38,2.09,89,3,1253.53347868
GEMS125,2018_Mar_07_1228,Jerry,sf,orientation,8,6,0,0-0;0-0;0-0;0-0,3,SimpleHill,0-0,0,29,selected,30-38,33-41;25-43;29-39;31-40;30-32;27-32,31-40,1.01,90,1,1258.12553051
GEMS125,2018_Mar_07_1228,Jerry,sf,orientation,8,6,0,0-0;0-0;0-0;0-0,3,SimpleHill,0-0,0,30,selected,31-40,31-41;34-38;28-42;35-36;25-43;34-44,35-36,0.73,91,1,1262.42624179
GEMS125,2018_Mar_07_1228,Jerry,sf,orientation,8,6,0,0-0;0-0;0-0;0-0,3,SimpleHill,0-0,0,31,selected,35-36,36-43;37-40;33-40;32-30;29-34;31-39,33-40,1.13,92,1,1267.1368362
GEMS125,2018_Mar_07_1228,Jerry,sf,orientation,8,6,0,0-0;0-0;0-0;0-0,3,SimpleHill,0-0,0,32,selected,33-40,39-44;36-45;32-37;33-46;26-38;28-34,36-45,0.95,95,3,1271.68063755
GEMS125,2018_Mar_07_1228,Jerry,sf,orientation,8,6,0,0-0;0-0;0-0;0-0,3,SimpleHill,0-0,0,33,selected,36-45,33-50;36-42;36-43;33-48;32-44;32-45,32-45,1.55,93,-2,1276.81648306
GEMS125,2018_Mar_07_1228,Jerry,sf,orientation,8,6,0,0-0;0-0;0-0;0-0,3,SimpleHill,0-0,0,34,selected,32-45,35-52;34-51;33-38;40-45;36-50;36-43,36-50,1.26,96,3,1281.65076456
GEMS125,2018_Mar_07_1228,Jerry,sf,orientation,8,6,0,0-0;0-0;0-0;0-0,3,SimpleHill,0-0,0,35,selected,36-50,39-54;41-51;41-49;29-52;39-49;30-52,41-49,3.29,98,2,1288.521077
GEMS125,2018_Mar_07_1228,Jerry,sf,orientation,8,6,0,0-0;0-0;0-0;0-0,3,SimpleHill,0-0,0,36,selected,41-49,39-50;43-48;48-48;35-48;42-42;43-56,48-48,1.24,99,1,1293.33043479
GEMS125,2018_Mar_07_1228,Jerry,sf,orientation,8,6,0,0-0;0-0;0-0;0-0,3,SimpleHill,0-0,0,37,selected,48-48,40-48;42-50;48-54;55-46;51-46;48-52,40-48,2.88,97,-2,1299.79317613
GEMS125,2018_Mar_07_1228,Jerry,sf,orientation,8,6,0,0-0;0-0;0-0;0-0,3,SimpleHill,0-0,0,38,selected,40-48,44-43;40-51;37-49;34-51;47-50;41-48,47-50,3.26,99,2,1306.6332846
GEMS125,2018_Mar_07_1228,Jerry,sf,orientation,8,6,0,0-0;0-0;0-0;0-0,3,SimpleHill,0-0,0,39,selected,47-50,44-57;42-46;50-43;41-53;46-50;44-46,46-50,2.97,99,0,1313.17586256
GEMS125,2018_Mar_07_1228,Jerry,sf,orientation,8,6,0,0-0;0-0;0-0;0-0,4,SimpleHill,0-0,0,0,selected,0-0,4-4;1-7;3-7;0-7;0-2;2-3,3-7,2.27,18,18,1325.08127319
GEMS125,2018_Mar_07_1228,Jerry,sf,orientation,8,6,0,0-0;0-0;0-0;0-0,4,SimpleHill,0-0,0,1,selected,3-7,7-9;2-11;9-2;4-9;2-8;3-9,2-11,1.33,23,5,1329.93892819
GEMS125,2018_Mar_07_1228,Jerry,sf,orientation,8,6,0,0-0;0-0;0-0;0-0,4,SimpleHill,0-0,0,2,selected,2-11,5-12;4-7;8-11;6-16;5-16;4-8,4-8,4.88,22,-1,1338.3933436
GEMS125,2018_Mar_07_1228,Jerry,sf,orientation,8,6,0,0-0;0-0;0-0;0-0,4,SimpleHill,0-0,0,3,selected,4-8,3-5;2-9;4-9;6-2;9-14;0-2,4-9,1.0,24,2,1342.96569404
GEMS125,2018_Mar_07_1228,Jerry,sf,orientation,8,6,0,0-0;0-0;0-0;0-0,4,SimpleHill,0-0,0,4,selected,4-9,3-5;8-11;11-8;5-14;7-8;8-7,3-5,2.72,15,-9,1349.25007418
GEMS125,2018_Mar_07_1228,Jerry,sf,orientation,8,6,0,0-0;0-0;0-0;0-0,4,SimpleHill,0-0,0,5,selected,3-5,10-3;0-2;3-4;7-3;5-0;1-0,5-0,1.36,9,-6,1354.19442443
GEMS125,2018_Mar_07_1228,Jerry,sf,orientation,8,6,0,0-0;0-0;0-0;0-0,4,SimpleHill,0-0,0,6,selected,5-0,9-0;6-7;0-4;6-1;8-6;4-3,0-4,0.73,7,-2,1358.49483002
GEMS125,2018_Mar_07_1228,Jerry,sf,orientation,8,6,0,0-0;0-0;0-0;0-0,4,SimpleHill,0-0,0,7,selected,0-4,4-8;5-9;1-1;3-1;8-4;4-0,3-1,1.07,7,0,1363.1364412
GEMS125,2018_Mar_07_1228,Jerry,sf,orientation,8,6,0,0-0;0-0;0-0;0-0,4,SimpleHill,0-0,0,8,selected,3-1,3-6;10-2;4-1;4-8;6-8;4-4,4-8,1.83,22,15,1368.52496453
GEMS125,2018_Mar_07_1228,Jerry,sf,orientation,8,6,0,0-0;0-0;0-0;0-0,4,SimpleHill,0-0,0,9,selected,4-8,2-15;2-8;7-12;10-6;3-11;3-4,2-8,2.97,18,-4,1375.08518152
GEMS125,2018_Mar_07_1228,Jerry,sf,orientation,8,6,0,0-0;0-0;0-0;0-0,4,SimpleHill,0-0,0,10,selected,2-8,7-6;4-14;8-3;4-13;3-10;0-5,0-5,3.68,9,-9,1382.33047544
GEMS125,2018_Mar_07_1228,Jerry,sf,orientation,8,6,0,0-0;0-0;0-0;0-0,4,SimpleHill,0-0,0,11,selected,0-5,6-5;2-5;5-10;1-12;5-3;5-6,2-5,1.22,13,4,1387.10445784
GEMS125,2018_Mar_07_1228,Jerry,sf,orientation,8,6,0,0-0;0-0;0-0;0-0,4,SimpleHill,0-0,0,12,selected,2-5,1-5;9-3;8-4;0-10;5-2;7-9,0-10,0.97,18,5,1391.65322511
GEMS125,2018_Mar_07_1228,Jerry,sf,orientation,8,6,0,0-0;0-0;0-0;0-0,4,SimpleHill,0-0,0,13,selected,0-10,6-12;3-17;5-14;0-8;1-16;5-7,1-16,3.0,28,10,1398.22308619
GEMS125,2018_Mar_07_1228,Jerry,sf,orientation,8,6,0,0-0;0-0;0-0;0-0,4,SimpleHill,0-0,0,14,selected,1-16,5-11;3-11;0-14;1-23;1-9;6-18,1-23,2.95,37,9,1404.74842298
GEMS125,2018_Mar_07_1228,Jerry,sf,orientation,8,6,0,0-0;0-0;0-0;0-0,4,SimpleHill,0-0,0,15,selected,1-23,7-21;1-30;4-18;3-21;0-19;1-26,1-26,4.98,40,3,1413.30991427
GEMS125,2018_Mar_07_1228,Jerry,sf,orientation,8,6,0,0-0;0-0;0-0;0-0,4,SimpleHill,0-0,0,16,selected,1-26,2-29;6-29;3-25;0-32;7-24;7-22,0-32,1.57,43,3,1418.45664166
GEMS125,2018_Mar_07_1228,Jerry,sf,orientation,8,6,0,0-0;0-0;0-0;0-0,4,SimpleHill,0-0,0,17,selected,0-32,6-37;0-40;3-33;5-27;6-31;2-35,0-40,2.04,48,5,1424.08750636
GEMS125,2018_Mar_07_1228,Jerry,sf,orientation,8,6,0,0-0;0-0;0-0;0-0,4,SimpleHill,0-0,0,18,selected,0-40,6-43;2-35;3-42;2-39;0-42;3-43,2-39,2.04,51,3,1429.70384909
GEMS125,2018_Mar_07_1228,Jerry,sf,orientation,8,6,0,0-0;0-0;0-0;0-0,4,SimpleHill,0-0,0,19,selected,2-39,0-33;9-41;8-34;1-34;5-41;3-33,3-33,2.96,50,-1,1436.22545712
GEMS125,2018_Mar_07_1228,Jerry,sf,orientation,8,6,0,0-0;0-0;0-0;0-0,4,SimpleHill,0-0,0,20,selected,3-33,2-31;5-28;3-37;4-31;6-30;9-35,3-37,2.44,52,2,1442.23759696
GEMS125,2018_Mar_07_1228,Jerry,sf,orientation,8,6,0,0-0;0-0;0-0;0-0,4,SimpleHill,0-0,0,21,selected,3-37,4-33;5-32;5-31;5-34;4-41;0-34,0-34,1.71,44,-8,1447.52144799
GEMS125,2018_Mar_07_1228,Jerry,sf,orientation,8,6,0,0-0;0-0;0-0;0-0,4,SimpleHill,0-0,0,22,selected,0-34,3-39;0-38;1-39;2-41;8-34;6-38,1-39,1.7,49,5,1452.77797684
GEMS125,2018_Mar_07_1228,Jerry,sf,orientation,8,6,0,0-0;0-0;0-0;0-0,4,SimpleHill,0-0,0,23,selected,1-39,1-46;5-38;1-32;1-47;6-36;2-39,1-47,3.56,51,2,1459.91258199
GEMS125,2018_Mar_07_1228,Jerry,sf,orientation,8,6,0,0-0;0-0;0-0;0-0,4,SimpleHill,0-0,0,24,selected,1-47,6-49;2-52;1-51;7-49;7-51;4-45,1-51,1.34,51,0,1464.80958409
GEMS125,2018_Mar_07_1228,Jerry,sf,orientation,8,6,0,0-0;0-0;0-0;0-0,4,SimpleHill,0-0,0,25,selected,1-51,1-53;4-57;1-50;4-52;5-53;1-54,1-50,1.65,51,0,1470.0465207
GEMS125,2018_Mar_07_1228,Jerry,sf,orientation,8,6,0,0-0;0-0;0-0;0-0,4,SimpleHill,0-0,0,26,selected,1-50,7-48;6-47;3-48;3-47;2-45;2-51,3-48,1.39,55,4,1475.01792136
GEMS125,2018_Mar_07_1228,Jerry,sf,orientation,8,6,0,0-0;0-0;0-0;0-0,4,SimpleHill,0-0,0,27,selected,3-48,7-43;8-50;4-41;0-41;9-51;2-54,4-41,1.39,56,1,1479.99308887
GEMS125,2018_Mar_07_1228,Jerry,sf,orientation,8,6,0,0-0;0-0;0-0;0-0,4,SimpleHill,0-0,0,28,selected,4-41,1-39;0-45;4-40;5-41;3-44;0-38,4-40,2.2,55,-1,1485.7898126
GEMS125,2018_Mar_07_1228,Jerry,sf,orientation,8,6,0,0-0;0-0;0-0;0-0,4,SimpleHill,0-0,0,29,selected,4-40,1-45;7-33;7-44;4-32;6-46;0-36,0-36,3.12,46,-9,1492.48989259
GEMS125,2018_Mar_07_1228,Jerry,sf,orientation,8,6,0,0-0;0-0;0-0;0-0,4,SimpleHill,0-0,0,30,selected,0-36,2-39;5-30;6-39;1-36;0-43;6-40,0-43,2.2,49,3,1498.25792382
GEMS125,2018_Mar_07_1228,Jerry,sf,orientation,8,6,0,0-0;0-0;0-0;0-0,4,SimpleHill,0-0,0,31,selected,0-43,4-38;1-49;4-46;5-39;1-37;0-37,1-49,3.81,51,2,1505.64767854
GEMS125,2018_Mar_07_1228,Jerry,sf,orientation,8,6,0,0-0;0-0;0-0;0-0,4,SimpleHill,0-0,0,32,selected,1-49,4-49;6-45;5-52;1-51;0-51;2-42,1-51,2.95,51,0,1512.16906475
GEMS125,2018_Mar_07_1228,Jerry,sf,orientation,8,6,0,0-0;0-0;0-0;0-0,4,SimpleHill,0-0,0,33,selected,1-51,5-50;2-57;1-54;5-45;7-53;2-45,2-45,2.27,53,2,1518.01854554
GEMS125,2018_Mar_07_1228,Jerry,sf,orientation,8,6,0,0-0;0-0;0-0;0-0,4,SimpleHill,0-0,0,34,selected,2-45,0-43;1-38;9-42;5-51;1-39;2-45,0-43,3.88,49,-4,1525.48530309
GEMS125,2018_Mar_07_1228,Jerry,sf,orientation,8,6,0,0-0;0-0;0-0;0-0,4,SimpleHill,0-0,0,35,selected,0-43,3-39;0-48;6-39;0-37;0-51;1-44,0-37,0.91,46,-3,1529.97943339
GEMS125,2018_Mar_07_1228,Jerry,sf,orientation,8,6,0,0-0;0-0;0-0;0-0,4,SimpleHill,0-0,0,36,selected,0-37,6-32;6-37;5-32;8-37;0-43;3-32,0-43,1.03,49,3,1534.58328353
GEMS125,2018_Mar_07_1228,Jerry,sf,orientation,8,6,0,0-0;0-0;0-0;0-0,4,SimpleHill,0-0,0,37,selected,0-43,6-39;4-48;3-48;5-38;7-43;1-47,4-48,2.38,57,8,1540.53722408
GEMS125,2018_Mar_07_1228,Jerry,sf,orientation,8,6,0,0-0;0-0;0-0;0-0,4,SimpleHill,0-0,0,38,selected,4-48,2-54;7-50;5-47;6-47;9-52;3-54,7-50,2.43,63,6,1546.54545175
GEMS125,2018_Mar_07_1228,Jerry,sf,orientation,8,6,0,0-0;0-0;0-0;0-0,4,SimpleHill,0-0,0,39,selected,7-50,10-50;11-51;6-57;7-50;10-48;9-50,6-57,1.76,60,-3,1551.87291992
