subj_id,date,computer,experimenter,instructions,sight_radius,n_gabors,start_pos_list_ix,start_pos_list,landscape_ix,landscape_name,starting_pos,starting_score,trial,feedback,pos,stims,selected,rt,score,delta,exp_time
GEMS212,2018_Mar_21_1306,Jerry,SF,spatial_frequency,8,6,6,13-43;12-34;2-35;10-36,0,SpatialFrequencyBias,0-0,0,0,training,0-0,4-5;7-3;1-7;1-2;0-8;5-1,4-5,6.14,19,19,125.033431122
GEMS212,2018_Mar_21_1306,Jerry,SF,spatial_frequency,8,6,6,13-43;12-34;2-35;10-36,0,SpatialFrequencyBias,0-0,0,1,training,4-5,4-8;7-0;10-2;11-4;11-6;11-2,4-8,9.66,29,10,156.65521247
GEMS212,2018_Mar_21_1306,Jerry,SF,spatial_frequency,8,6,6,13-43;12-34;2-35;10-36,0,SpatialFrequencyBias,0-0,0,2,training,4-8,7-13;6-6;2-13;6-14;9-8;5-6,2-13,24.08,45,16,194.463033294
GEMS212,2018_Mar_21_1306,Jerry,SF,spatial_frequency,8,6,6,13-43;12-34;2-35;10-36,0,SpatialFrequencyBias,0-0,0,3,training,2-13,1-7;7-12;1-19;5-18;8-10;1-11,7-12,16.08,42,-3,225.747096359
GEMS212,2018_Mar_21_1306,Jerry,SF,spatial_frequency,8,6,6,13-43;12-34;2-35;10-36,0,SpatialFrequencyBias,0-0,0,4,training,7-12,10-16;9-18;3-6;13-12;11-16;6-12,9-18,31.24,59,17,269.946843166
GEMS212,2018_Mar_21_1306,Jerry,SF,spatial_frequency,8,6,6,13-43;12-34;2-35;10-36,0,SpatialFrequencyBias,0-0,0,5,training,9-18,6-12;16-18;5-20;8-21;13-13;6-17,6-17,26.31,56,-3,304.869121137
GEMS212,2018_Mar_21_1306,Jerry,SF,spatial_frequency,8,6,6,13-43;12-34;2-35;10-36,0,SpatialFrequencyBias,0-0,0,6,training,6-17,6-24;13-20;4-13;13-19;4-15;4-21,13-19,11.77,61,5,328.938237153
GEMS212,2018_Mar_21_1306,Jerry,SF,spatial_frequency,8,6,6,13-43;12-34;2-35;10-36,0,SpatialFrequencyBias,0-0,0,7,training,13-19,12-24;17-24;19-19;15-18;12-12;12-21,15-18,24.88,59,-2,369.296501867
GEMS212,2018_Mar_21_1306,Jerry,SF,spatial_frequency,8,6,6,13-43;12-34;2-35;10-36,0,SpatialFrequencyBias,0-0,0,8,training,15-18,11-21;14-18;17-12;19-13;18-23;18-18,18-23,17.5,70,11,426.058280878
GEMS212,2018_Mar_21_1306,Jerry,SF,spatial_frequency,8,6,6,13-43;12-34;2-35;10-36,0,SpatialFrequencyBias,0-0,0,9,training,18-23,16-29;21-30;13-21;21-19;22-21;19-19,22-21,7.29,66,-4,441.946671916
GEMS212,2018_Mar_21_1306,Jerry,SF,spatial_frequency,8,6,6,13-43;12-34;2-35;10-36,0,SpatialFrequencyBias,0-0,0,10,training,22-21,24-23;18-25;20-16;29-22;26-23;18-22,18-22,17.7,68,2,463.022316223
GEMS212,2018_Mar_21_1306,Jerry,SF,spatial_frequency,8,6,6,13-43;12-34;2-35;10-36,0,SpatialFrequencyBias,0-0,0,11,training,18-22,16-18;16-29;13-18;18-30;16-26;16-27,16-18,38.29,59,-9,507.933636781
GEMS212,2018_Mar_21_1306,Jerry,SF,spatial_frequency,8,6,6,13-43;12-34;2-35;10-36,0,SpatialFrequencyBias,0-0,0,12,training,16-18,14-17;20-22;13-20;12-24;12-15;18-11,13-20,6.9,64,5,521.956818855
GEMS212,2018_Mar_21_1306,Jerry,SF,spatial_frequency,8,6,6,13-43;12-34;2-35;10-36,0,SpatialFrequencyBias,0-0,0,13,training,13-20,8-16;13-19;8-17;19-22;16-21;10-15,8-17,10.58,56,-8,538.515594116
GEMS212,2018_Mar_21_1306,Jerry,SF,spatial_frequency,8,6,6,13-43;12-34;2-35;10-36,0,SpatialFrequencyBias,0-0,0,14,training,8-17,8-10;5-14;4-11;12-15;10-11;6-15,10-11,44.0,39,-17,589.445385304
GEMS212,2018_Mar_21_1306,Jerry,SF,spatial_frequency,8,6,6,13-43;12-34;2-35;10-36,0,SpatialFrequencyBias,0-0,0,15,training,10-11,7-12;3-12;8-9;17-9;16-10;7-8,16-10,4.06,36,-3,602.35369507
GEMS212,2018_Mar_21_1306,Jerry,SF,spatial_frequency,8,6,6,13-43;12-34;2-35;10-36,0,SpatialFrequencyBias,0-0,0,16,training,16-10,12-4;10-13;19-7;11-14;22-12;19-8,10-13,6.84,45,9,613.054619978
GEMS212,2018_Mar_21_1306,Jerry,SF,spatial_frequency,8,6,6,13-43;12-34;2-35;10-36,0,SpatialFrequencyBias,0-0,0,17,training,10-13,12-16;10-20;13-16;12-12;3-11;11-20,13-16,3.01,53,8,620.315006746
GEMS212,2018_Mar_21_1306,Jerry,SF,spatial_frequency,8,6,6,13-43;12-34;2-35;10-36,0,SpatialFrequencyBias,0-0,0,18,training,13-16,15-10;8-17;14-15;18-12;16-22;7-20,8-17,4.3,56,3,629.116296079
GEMS212,2018_Mar_21_1306,Jerry,SF,spatial_frequency,8,6,6,13-43;12-34;2-35;10-36,0,SpatialFrequencyBias,0-0,0,19,training,8-17,5-23;12-12;7-14;3-21;7-17;9-22,7-17,6.4,56,0,639.214978418
GEMS212,2018_Mar_21_1306,Jerry,SF,spatial_frequency,8,6,6,13-43;12-34;2-35;10-36,0,SpatialFrequencyBias,0-0,0,20,training,7-17,8-22;2-23;10-15;2-12;4-15;8-23,8-22,6.65,68,12,651.26636866
GEMS212,2018_Mar_21_1306,Jerry,SF,spatial_frequency,8,6,6,13-43;12-34;2-35;10-36,0,SpatialFrequencyBias,0-0,0,21,training,8-22,4-22;9-27;8-18;8-26;10-15;7-25,7-25,3.12,75,7,658.193054949
GEMS212,2018_Mar_21_1306,Jerry,SF,spatial_frequency,8,6,6,13-43;12-34;2-35;10-36,0,SpatialFrequencyBias,0-0,0,22,training,7-25,13-22;4-23;3-20;14-24;10-31;7-23,7-23,2.1,70,-5,664.417975446
GEMS212,2018_Mar_21_1306,Jerry,SF,spatial_frequency,8,6,6,13-43;12-34;2-35;10-36,0,SpatialFrequencyBias,0-0,0,23,training,7-23,7-22;7-16;7-28;12-29;9-20;8-28,12-29,2.21,82,12,669.643978496
GEMS212,2018_Mar_21_1306,Jerry,SF,spatial_frequency,8,6,6,13-43;12-34;2-35;10-36,0,SpatialFrequencyBias,0-0,0,24,training,12-29,9-32;18-32;12-32;7-30;10-27;15-28,9-32,4.4,87,5,677.739578022
GEMS212,2018_Mar_21_1306,Jerry,SF,spatial_frequency,8,6,6,13-43;12-34;2-35;10-36,0,SpatialFrequencyBias,0-0,0,25,training,9-32,4-35;5-32;5-37;11-35;4-34;8-28,5-37,4.19,93,6,684.788270523
GEMS212,2018_Mar_21_1306,Jerry,SF,spatial_frequency,8,6,6,13-43;12-34;2-35;10-36,0,SpatialFrequencyBias,0-0,0,26,training,5-37,1-37;3-31;8-42;3-34;3-38;5-39,8-42,13.03,97,4,700.552811614
GEMS212,2018_Mar_21_1306,Jerry,SF,spatial_frequency,8,6,6,13-43;12-34;2-35;10-36,0,SpatialFrequencyBias,0-0,0,27,training,8-42,10-49;8-42;1-45;14-47;12-37;13-42,10-49,5.03,99,2,709.175632943
GEMS212,2018_Mar_21_1306,Jerry,SF,spatial_frequency,8,6,6,13-43;12-34;2-35;10-36,0,SpatialFrequencyBias,0-0,0,28,training,10-49,7-48;14-54;9-53;3-51;14-51;13-48,3-51,9.37,99,0,722.218963892
GEMS212,2018_Mar_21_1306,Jerry,SF,spatial_frequency,8,6,6,13-43;12-34;2-35;10-36,0,SpatialFrequencyBias,0-0,0,29,training,3-51,8-45;4-57;8-52;3-59;5-46;4-58,4-58,3.63,97,-2,733.110723265
GEMS212,2018_Mar_21_1306,Jerry,SF,spatial_frequency,8,6,6,13-43;12-34;2-35;10-36,1,SimpleHill,13-43,71,0,selected,13-43,13-38;18-41;19-48;8-49;14-42;8-46,19-48,3.22,80,9,761.523323074
GEMS212,2018_Mar_21_1306,Jerry,SF,spatial_frequency,8,6,6,13-43;12-34;2-35;10-36,1,SimpleHill,13-43,71,1,selected,19-48,17-48;18-41;19-48;13-48;20-44;18-46,19-48,2.14,80,0,767.202571625
GEMS212,2018_Mar_21_1306,Jerry,SF,spatial_frequency,8,6,6,13-43;12-34;2-35;10-36,1,SimpleHill,13-43,71,2,selected,19-48,11-48;14-47;21-55;21-49;15-42;17-48,21-55,2.7,82,2,773.458060014
GEMS212,2018_Mar_21_1306,Jerry,SF,spatial_frequency,8,6,6,13-43;12-34;2-35;10-36,1,SimpleHill,13-43,71,3,selected,21-55,18-50;27-51;17-49;24-53;26-52;16-60,16-60,1.34,74,-8,778.348149784
GEMS212,2018_Mar_21_1306,Jerry,SF,spatial_frequency,8,6,6,13-43;12-34;2-35;10-36,1,SimpleHill,13-43,71,4,selected,16-60,20-64;13-56;9-60;15-62;13-61;18-62,13-56,3.44,71,-3,785.343005894
GEMS212,2018_Mar_21_1306,Jerry,SF,spatial_frequency,8,6,6,13-43;12-34;2-35;10-36,1,SimpleHill,13-43,71,5,selected,13-56,17-59;13-58;12-50;7-52;7-53;10-59,10-59,3.15,66,-5,792.030185062
GEMS212,2018_Mar_21_1306,Jerry,SF,spatial_frequency,8,6,6,13-43;12-34;2-35;10-36,1,SimpleHill,13-43,71,6,selected,10-59,6-57;11-63;10-66;8-56;6-64;9-66,6-57,5.41,60,-6,800.975235708
GEMS212,2018_Mar_21_1306,Jerry,SF,spatial_frequency,8,6,6,13-43;12-34;2-35;10-36,1,SimpleHill,13-43,71,7,selected,6-57,5-50;8-54;7-61;4-55;8-52;9-55,7-61,3.03,60,0,807.552405737
GEMS212,2018_Mar_21_1306,Jerry,SF,spatial_frequency,8,6,6,13-43;12-34;2-35;10-36,1,SimpleHill,13-43,71,8,selected,7-61,11-56;6-55;13-57;13-66;8-65;8-60,8-65,1.86,60,0,812.962278356
GEMS212,2018_Mar_21_1306,Jerry,SF,spatial_frequency,8,6,6,13-43;12-34;2-35;10-36,1,SimpleHill,13-43,71,9,selected,8-65,8-67;8-58;5-58;8-63;7-65;13-61,8-67,2.08,58,-2,818.595971953
GEMS212,2018_Mar_21_1306,Jerry,SF,spatial_frequency,8,6,6,13-43;12-34;2-35;10-36,1,SimpleHill,13-43,71,10,selected,8-67,5-60;10-62;7-70;6-70;5-70;2-66,7-70,1.68,55,-3,823.836261701
GEMS212,2018_Mar_21_1306,Jerry,SF,spatial_frequency,8,6,6,13-43;12-34;2-35;10-36,1,SimpleHill,13-43,71,11,selected,7-70,7-66;3-65;2-66;5-64;12-69;7-69,5-64,2.94,55,0,830.322265168
GEMS212,2018_Mar_21_1306,Jerry,SF,spatial_frequency,8,6,6,13-43;12-34;2-35;10-36,1,SimpleHill,13-43,71,12,selected,5-64,7-57;5-67;4-60;9-60;2-63;7-63,9-60,5.12,64,9,838.994621162
GEMS212,2018_Mar_21_1306,Jerry,SF,spatial_frequency,8,6,6,13-43;12-34;2-35;10-36,1,SimpleHill,13-43,71,13,selected,9-60,11-59;13-59;10-61;13-61;4-54;9-58,4-54,1.59,57,-7,844.138315896
GEMS212,2018_Mar_21_1306,Jerry,SF,spatial_frequency,8,6,6,13-43;12-34;2-35;10-36,1,SimpleHill,13-43,71,14,selected,4-54,5-52;2-50;11-53;10-59;1-56;1-51,10-59,9.62,66,9,857.327579987
GEMS212,2018_Mar_21_1306,Jerry,SF,spatial_frequency,8,6,6,13-43;12-34;2-35;10-36,1,SimpleHill,13-43,71,15,selected,10-59,9-63;6-58;10-58;13-52;15-54;9-59,13-52,4.46,72,6,865.349798262
GEMS212,2018_Mar_21_1306,Jerry,SF,spatial_frequency,8,6,6,13-43;12-34;2-35;10-36,1,SimpleHill,13-43,71,16,selected,13-52,8-52;16-53;20-51;13-47;13-60;11-51,13-47,7.56,72,0,876.44668648
GEMS212,2018_Mar_21_1306,Jerry,SF,spatial_frequency,8,6,6,13-43;12-34;2-35;10-36,1,SimpleHill,13-43,71,17,selected,13-47,5-47;16-45;15-49;19-45;10-43;18-44,10-43,2.44,67,-5,882.436263622
GEMS212,2018_Mar_21_1306,Jerry,SF,spatial_frequency,8,6,6,13-43;12-34;2-35;10-36,1,SimpleHill,13-43,71,18,selected,10-43,9-43;3-41;2-43;15-46;12-37;7-46,3-41,13.25,54,-13,899.248155706
GEMS212,2018_Mar_21_1306,Jerry,SF,spatial_frequency,8,6,6,13-43;12-34;2-35;10-36,1,SimpleHill,13-43,71,19,selected,3-41,6-40;7-42;7-37;3-43;5-41;0-37,7-37,4.11,59,5,906.913866256
GEMS212,2018_Mar_21_1306,Jerry,SF,spatial_frequency,8,6,6,13-43;12-34;2-35;10-36,1,SimpleHill,13-43,71,20,selected,7-37,7-34;13-32;6-35;6-37;1-40;7-29,6-35,6.87,56,-3,917.328411268
GEMS212,2018_Mar_21_1306,Jerry,SF,spatial_frequency,8,6,6,13-43;12-34;2-35;10-36,1,SimpleHill,13-43,71,21,selected,6-35,8-32;5-42;10-36;4-40;2-32;5-30,10-36,7.41,64,8,928.286322919
GEMS212,2018_Mar_21_1306,Jerry,SF,spatial_frequency,8,6,6,13-43;12-34;2-35;10-36,1,SimpleHill,13-43,71,22,selected,10-36,14-32;10-34;15-40;4-36;10-44;5-37,15-40,5.63,73,9,937.464001575
GEMS212,2018_Mar_21_1306,Jerry,SF,spatial_frequency,8,6,6,13-43;12-34;2-35;10-36,1,SimpleHill,13-43,71,23,selected,15-40,10-37;15-38;11-35;21-35;12-38;13-40,11-35,3.84,65,-8,944.864048949
GEMS212,2018_Mar_21_1306,Jerry,SF,spatial_frequency,8,6,6,13-43;12-34;2-35;10-36,1,SimpleHill,13-43,71,24,selected,11-35,6-38;15-35;10-37;8-40;17-40;9-40,15-35,4.47,71,6,952.889656044
GEMS212,2018_Mar_21_1306,Jerry,SF,spatial_frequency,8,6,6,13-43;12-34;2-35;10-36,1,SimpleHill,13-43,71,25,selected,15-35,15-32;12-30;21-31;20-35;13-33;8-35,21-31,9.05,75,4,965.51298504
GEMS212,2018_Mar_21_1306,Jerry,SF,spatial_frequency,8,6,6,13-43;12-34;2-35;10-36,1,SimpleHill,13-43,71,26,selected,21-31,21-35;23-26;15-35;19-34;19-38;20-28,15-35,13.96,71,-4,983.014181707
GEMS212,2018_Mar_21_1306,Jerry,SF,spatial_frequency,8,6,6,13-43;12-34;2-35;10-36,1,SimpleHill,13-43,71,27,selected,15-35,17-42;16-31;17-33;15-28;13-35;22-37,17-33,6.67,72,1,993.226714937
GEMS212,2018_Mar_21_1306,Jerry,SF,spatial_frequency,8,6,6,13-43;12-34;2-35;10-36,1,SimpleHill,13-43,71,28,selected,17-33,11-38;17-37;21-31;24-32;17-28;18-26,17-37,9.81,74,2,1006.59125859
GEMS212,2018_Mar_21_1306,Jerry,SF,spatial_frequency,8,6,6,13-43;12-34;2-35;10-36,1,SimpleHill,13-43,71,29,selected,17-37,10-38;17-34;13-34;22-39;17-29;15-43,13-34,4.6,67,-7,1014.75612233
GEMS212,2018_Mar_21_1306,Jerry,SF,spatial_frequency,8,6,6,13-43;12-34;2-35;10-36,1,SimpleHill,13-43,71,30,selected,13-34,10-28;14-39;8-37;19-32;16-39;15-27,15-27,6.24,64,-3,1024.52282853
GEMS212,2018_Mar_21_1306,Jerry,SF,spatial_frequency,8,6,6,13-43;12-34;2-35;10-36,1,SimpleHill,13-43,71,31,selected,15-27,8-24;19-29;21-24;20-28;10-21;13-34,21-24,14.01,69,5,1042.08671119
GEMS212,2018_Mar_21_1306,Jerry,SF,spatial_frequency,8,6,6,13-43;12-34;2-35;10-36,1,SimpleHill,13-43,71,32,selected,21-24,23-31;17-30;21-23;20-31;24-28;27-20,21-23,4.04,68,-1,1049.68288192
GEMS212,2018_Mar_21_1306,Jerry,SF,spatial_frequency,8,6,6,13-43;12-34;2-35;10-36,1,SimpleHill,13-43,71,33,selected,21-23,24-22;18-23;23-19;20-16;25-22;24-29,18-23,1.98,64,-4,1055.21021096
GEMS212,2018_Mar_21_1306,Jerry,SF,spatial_frequency,8,6,6,13-43;12-34;2-35;10-36,1,SimpleHill,13-43,71,34,selected,18-23,24-24;23-24;19-30;16-28;16-21;14-23,14-23,2.96,59,-5,1061.74491365
GEMS212,2018_Mar_21_1306,Jerry,SF,spatial_frequency,8,6,6,13-43;12-34;2-35;10-36,1,SimpleHill,13-43,71,35,selected,14-23,13-18;11-24;13-28;9-20;18-26;13-19,9-20,11.26,48,-11,1076.57165707
GEMS212,2018_Mar_21_1306,Jerry,SF,spatial_frequency,8,6,6,13-43;12-34;2-35;10-36,1,SimpleHill,13-43,71,36,selected,9-20,8-16;6-14;12-20;6-24;2-21;9-22,12-20,5.7,53,5,1085.83354668
GEMS212,2018_Mar_21_1306,Jerry,SF,spatial_frequency,8,6,6,13-43;12-34;2-35;10-36,1,SimpleHill,13-43,71,37,selected,12-20,15-27;18-22;16-20;13-19;10-22;7-20,16-20,6.59,58,5,1095.98621905
GEMS212,2018_Mar_21_1306,Jerry,SF,spatial_frequency,8,6,6,13-43;12-34;2-35;10-36,1,SimpleHill,13-43,71,38,selected,16-20,11-15;16-25;9-19;19-20;13-15;13-20,13-15,6.49,48,-10,1106.04005
GEMS212,2018_Mar_21_1306,Jerry,SF,spatial_frequency,8,6,6,13-43;12-34;2-35;10-36,1,SimpleHill,13-43,71,39,selected,13-15,18-13;18-14;14-10;14-21;7-15;13-17,18-14,6.24,53,5,1115.82464266
GEMS212,2018_Mar_21_1306,Jerry,SF,spatial_frequency,8,6,6,13-43;12-34;2-35;10-36,2,SimpleHill,12-34,66,0,selected,12-34,18-38;10-35;9-35;12-29;18-36;7-34,9-35,5.49,61,-5,1143.49340401
GEMS212,2018_Mar_21_1306,Jerry,SF,spatial_frequency,8,6,6,13-43;12-34;2-35;10-36,2,SimpleHill,12-34,66,1,selected,9-35,5-32;7-29;5-38;9-37;6-36;4-33,7-29,1.66,54,-7,1148.71526634
GEMS212,2018_Mar_21_1306,Jerry,SF,spatial_frequency,8,6,6,13-43;12-34;2-35;10-36,2,SimpleHill,12-34,66,2,selected,7-29,2-34;14-31;8-33;7-23;10-30;7-35,7-23,7.49,48,-6,1159.75832905
GEMS212,2018_Mar_21_1306,Jerry,SF,spatial_frequency,8,6,6,13-43;12-34;2-35;10-36,2,SimpleHill,12-34,66,3,selected,7-23,11-23;12-19;14-26;6-26;5-18;4-16,12-19,2.74,51,3,1166.05652709
GEMS212,2018_Mar_21_1306,Jerry,SF,spatial_frequency,8,6,6,13-43;12-34;2-35;10-36,2,SimpleHill,12-34,66,4,selected,12-19,8-14;11-16;16-18;11-23;8-13;13-18,11-16,6.59,46,-5,1176.20421626
GEMS212,2018_Mar_21_1306,Jerry,SF,spatial_frequency,8,6,6,13-43;12-34;2-35;10-36,2,SimpleHill,12-34,66,5,selected,11-16,17-20;18-16;18-17;13-20;11-23;16-11,18-17,3.59,57,11,1183.35852783
GEMS212,2018_Mar_21_1306,Jerry,SF,spatial_frequency,8,6,6,13-43;12-34;2-35;10-36,2,SimpleHill,12-34,66,6,selected,18-17,16-14;16-20;19-16;16-24;16-12;18-21,19-16,12.7,57,0,1199.61388658
GEMS212,2018_Mar_21_1306,Jerry,SF,spatial_frequency,8,6,6,13-43;12-34;2-35;10-36,2,SimpleHill,12-34,66,7,selected,19-16,18-13;18-23;24-16;23-15;23-21;22-14,18-23,12.31,64,7,1215.4797066
GEMS212,2018_Mar_21_1306,Jerry,SF,spatial_frequency,8,6,6,13-43;12-34;2-35;10-36,2,SimpleHill,12-34,66,8,selected,18-23,14-27;23-20;15-17;24-20;14-24;13-23,15-17,4.84,53,-11,1223.86615964
GEMS212,2018_Mar_21_1306,Jerry,SF,spatial_frequency,8,6,6,13-43;12-34;2-35;10-36,2,SimpleHill,12-34,66,9,selected,15-17,21-13;10-13;9-22;16-19;19-21;18-11,16-19,5.09,57,4,1232.48967173
GEMS212,2018_Mar_21_1306,Jerry,SF,spatial_frequency,8,6,6,13-43;12-34;2-35;10-36,2,SimpleHill,12-34,66,10,selected,16-19,17-18;19-23;22-23;19-15;17-12;9-18,22-23,25.06,69,12,1261.09055006
GEMS212,2018_Mar_21_1306,Jerry,SF,spatial_frequency,8,6,6,13-43;12-34;2-35;10-36,2,SimpleHill,12-34,66,11,selected,22-23,16-27;19-27;26-19;21-30;17-23;16-19,26-19,18.27,69,0,1282.91495617
GEMS212,2018_Mar_21_1306,Jerry,SF,spatial_frequency,8,6,6,13-43;12-34;2-35;10-36,2,SimpleHill,12-34,66,12,selected,26-19,26-19;29-17;28-13;33-17;28-21;26-11,29-17,4.85,69,0,1291.32701086
GEMS212,2018_Mar_21_1306,Jerry,SF,spatial_frequency,8,6,6,13-43;12-34;2-35;10-36,2,SimpleHill,12-34,66,13,selected,29-17,34-18;22-16;33-22;29-18;34-23;27-13,29-18,7.04,70,1,1301.93816065
GEMS212,2018_Mar_21_1306,Jerry,SF,spatial_frequency,8,6,6,13-43;12-34;2-35;10-36,2,SimpleHill,12-34,66,14,selected,29-18,27-22;33-18;25-22;31-21;36-16;30-11,27-22,5.63,73,3,1311.11893076
GEMS212,2018_Mar_21_1306,Jerry,SF,spatial_frequency,8,6,6,13-43;12-34;2-35;10-36,2,SimpleHill,12-34,66,15,selected,27-22,31-21;25-24;31-18;28-16;25-28;22-24,31-18,4.46,72,-1,1319.13180233
GEMS212,2018_Mar_21_1306,Jerry,SF,spatial_frequency,8,6,6,13-43;12-34;2-35;10-36,2,SimpleHill,12-34,66,16,selected,31-18,33-19;29-22;26-24;30-14;31-26;32-25,26-24,7.7,74,2,1330.39267276
GEMS212,2018_Mar_21_1306,Jerry,SF,spatial_frequency,8,6,6,13-43;12-34;2-35;10-36,2,SimpleHill,12-34,66,17,selected,26-24,22-20;26-28;31-27;19-26;29-25;24-25,22-20,4.73,66,-8,1338.68717629
GEMS212,2018_Mar_21_1306,Jerry,SF,spatial_frequency,8,6,6,13-43;12-34;2-35;10-36,2,SimpleHill,12-34,66,18,selected,22-20,29-18;23-16;23-26;21-13;19-27;23-21,29-18,3.4,70,4,1345.63468108
GEMS212,2018_Mar_21_1306,Jerry,SF,spatial_frequency,8,6,6,13-43;12-34;2-35;10-36,2,SimpleHill,12-34,66,19,selected,29-18,31-20;31-24;34-13;23-14;32-22;34-19,31-20,5.52,74,4,1354.7225014
GEMS212,2018_Mar_21_1306,Jerry,SF,spatial_frequency,8,6,6,13-43;12-34;2-35;10-36,2,SimpleHill,12-34,66,20,selected,31-20,27-26;25-25;24-17;25-17;36-15;35-22,24-17,3.94,64,-10,1362.23028205
GEMS212,2018_Mar_21_1306,Jerry,SF,spatial_frequency,8,6,6,13-43;12-34;2-35;10-36,2,SimpleHill,12-34,66,21,selected,24-17,25-24;25-11;31-14;24-11;22-22;21-19,22-22,14.05,68,4,1379.83864959
GEMS212,2018_Mar_21_1306,Jerry,SF,spatial_frequency,8,6,6,13-43;12-34;2-35;10-36,2,SimpleHill,12-34,66,22,selected,22-22,18-26;18-22;26-22;26-25;20-23;22-17,18-22,9.66,63,-5,1393.06814549
GEMS212,2018_Mar_21_1306,Jerry,SF,spatial_frequency,8,6,6,13-43;12-34;2-35;10-36,2,SimpleHill,12-34,66,23,selected,18-22,15-22;15-21;15-16;23-20;13-21;21-19,15-16,6.68,52,-11,1403.31787414
GEMS212,2018_Mar_21_1306,Jerry,SF,spatial_frequency,8,6,6,13-43;12-34;2-35;10-36,2,SimpleHill,12-34,66,24,selected,15-16,10-19;14-14;17-9;21-16;20-21;10-20,21-16,4.31,60,8,1411.1844038
GEMS212,2018_Mar_21_1306,Jerry,SF,spatial_frequency,8,6,6,13-43;12-34;2-35;10-36,2,SimpleHill,12-34,66,25,selected,21-16,19-14;23-16;20-11;17-11;15-19;27-15,17-11,7.05,47,-13,1421.80022246
GEMS212,2018_Mar_21_1306,Jerry,SF,spatial_frequency,8,6,6,13-43;12-34;2-35;10-36,2,SimpleHill,12-34,66,26,selected,17-11,22-7;10-9;15-16;15-17;16-9;19-12,15-17,2.46,53,6,1427.81998211
GEMS212,2018_Mar_21_1306,Jerry,SF,spatial_frequency,8,6,6,13-43;12-34;2-35;10-36,2,SimpleHill,12-34,66,27,selected,15-17,11-13;11-20;10-15;13-11;12-12;11-18,11-13,16.02,42,-11,1447.4026939
GEMS212,2018_Mar_21_1306,Jerry,SF,spatial_frequency,8,6,6,13-43;12-34;2-35;10-36,2,SimpleHill,12-34,66,28,selected,11-13,11-14;14-14;13-12;7-14;11-19;11-8,14-14,3.85,48,6,1454.81321951
GEMS212,2018_Mar_21_1306,Jerry,SF,spatial_frequency,8,6,6,13-43;12-34;2-35;10-36,2,SimpleHill,12-34,66,29,selected,14-14,8-10;14-7;21-15;9-18;11-8;9-12,21-15,10.7,58,10,1469.06685936
GEMS212,2018_Mar_21_1306,Jerry,SF,spatial_frequency,8,6,6,13-43;12-34;2-35;10-36,2,SimpleHill,12-34,66,30,selected,21-15,27-13;14-13;17-15;19-15;27-16;21-22,17-15,3.3,53,-5,1475.91416778
GEMS212,2018_Mar_21_1306,Jerry,SF,spatial_frequency,8,6,6,13-43;12-34;2-35;10-36,2,SimpleHill,12-34,66,31,selected,17-15,23-19;16-18;24-17;18-14;12-17;16-12,16-18,8.87,56,3,1488.340328
GEMS212,2018_Mar_21_1306,Jerry,SF,spatial_frequency,8,6,6,13-43;12-34;2-35;10-36,2,SimpleHill,12-34,66,32,selected,16-18,11-13;14-16;15-21;13-11;22-17;18-17,11-13,13.63,42,-14,1505.51712096
GEMS212,2018_Mar_21_1306,Jerry,SF,spatial_frequency,8,6,6,13-43;12-34;2-35;10-36,2,SimpleHill,12-34,66,33,selected,11-13,14-19;13-13;5-18;16-18;7-16;17-17,5-18,1.48,39,-3,1510.5411596
GEMS212,2018_Mar_21_1306,Jerry,SF,spatial_frequency,8,6,6,13-43;12-34;2-35;10-36,2,SimpleHill,12-34,66,34,selected,5-18,5-23;10-16;9-17;0-21;4-22;2-18,0-21,5.44,33,-6,1519.54547989
GEMS212,2018_Mar_21_1306,Jerry,SF,spatial_frequency,8,6,6,13-43;12-34;2-35;10-36,2,SimpleHill,12-34,66,35,selected,0-21,4-20;6-19;3-24;6-22;0-26;0-15,6-19,1.42,42,9,1524.51883025
GEMS212,2018_Mar_21_1306,Jerry,SF,spatial_frequency,8,6,6,13-43;12-34;2-35;10-36,2,SimpleHill,12-34,66,36,selected,6-19,12-14;3-23;12-19;11-17;10-18;9-25,12-19,7.52,51,9,1535.58683875
GEMS212,2018_Mar_21_1306,Jerry,SF,spatial_frequency,8,6,6,13-43;12-34;2-35;10-36,2,SimpleHill,12-34,66,37,selected,12-19,8-21;11-17;13-20;9-23;12-19;14-21,11-17,4.19,47,-4,1543.33328084
GEMS212,2018_Mar_21_1306,Jerry,SF,spatial_frequency,8,6,6,13-43;12-34;2-35;10-36,2,SimpleHill,12-34,66,38,selected,11-17,11-25;8-20;6-21;8-24;11-12;13-22,8-20,8.18,46,-1,1555.06894317
GEMS212,2018_Mar_21_1306,Jerry,SF,spatial_frequency,8,6,6,13-43;12-34;2-35;10-36,2,SimpleHill,12-34,66,39,selected,8-20,6-14;8-26;10-20;7-17;2-16;12-20,7-17,8.94,41,-5,1567.54794845
GEMS212,2018_Mar_21_1306,Jerry,SF,spatial_frequency,8,6,6,13-43;12-34;2-35;10-36,3,SimpleHill,2-35,49,0,selected,2-35,1-34;5-31;9-34;2-43;5-38;2-36,5-38,10.25,56,7,1590.15141633
GEMS212,2018_Mar_21_1306,Jerry,SF,spatial_frequency,8,6,6,13-43;12-34;2-35;10-36,3,SimpleHill,2-35,49,1,selected,5-38,9-37;4-33;8-32;0-36;2-44;11-39,2-44,1.92,53,-3,1595.61448547
GEMS212,2018_Mar_21_1306,Jerry,SF,spatial_frequency,8,6,6,13-43;12-34;2-35;10-36,3,SimpleHill,2-35,49,2,selected,2-44,2-46;2-50;5-43;0-37;7-41;6-39,7-41,3.52,61,8,1602.68246836
GEMS212,2018_Mar_21_1306,Jerry,SF,spatial_frequency,8,6,6,13-43;12-34;2-35;10-36,3,SimpleHill,2-35,49,3,selected,7-41,7-37;7-38;12-38;4-37;2-42;2-46,12-38,3.95,68,7,1610.17473476
GEMS212,2018_Mar_21_1306,Jerry,SF,spatial_frequency,8,6,6,13-43;12-34;2-35;10-36,3,SimpleHill,2-35,49,4,selected,12-38,6-38;13-37;18-43;12-44;11-37;6-37,6-38,4.42,58,-10,1618.15397067
GEMS212,2018_Mar_21_1306,Jerry,SF,spatial_frequency,8,6,6,13-43;12-34;2-35;10-36,3,SimpleHill,2-35,49,5,selected,6-38,6-34;9-40;4-42;12-42;3-45;5-38,6-34,5.09,56,-2,1626.79153547
GEMS212,2018_Mar_21_1306,Jerry,SF,spatial_frequency,8,6,6,13-43;12-34;2-35;10-36,3,SimpleHill,2-35,49,6,selected,6-34,0-34;10-31;9-40;13-35;11-30;7-41,11-30,3.57,61,5,1633.91580378
GEMS212,2018_Mar_21_1306,Jerry,SF,spatial_frequency,8,6,6,13-43;12-34;2-35;10-36,3,SimpleHill,2-35,49,7,selected,11-30,5-27;5-25;17-26;9-30;7-33;4-33,5-25,2.84,47,-14,1640.32410794
GEMS212,2018_Mar_21_1306,Jerry,SF,spatial_frequency,8,6,6,13-43;12-34;2-35;10-36,3,SimpleHill,2-35,49,8,selected,5-25,2-32;7-18;11-22;3-29;6-21;2-23,7-18,2.55,42,-5,1646.41106753
GEMS212,2018_Mar_21_1306,Jerry,SF,spatial_frequency,8,6,6,13-43;12-34;2-35;10-36,3,SimpleHill,2-35,49,9,selected,7-18,14-16;3-20;9-19;6-18;8-24;7-19,8-24,3.71,51,9,1653.69135382
GEMS212,2018_Mar_21_1306,Jerry,SF,spatial_frequency,8,6,6,13-43;12-34;2-35;10-36,3,SimpleHill,2-35,49,10,selected,8-24,9-26;5-21;15-21;11-30;11-24;7-28,9-26,5.36,54,3,1662.6028357
GEMS212,2018_Mar_21_1306,Jerry,SF,spatial_frequency,8,6,6,13-43;12-34;2-35;10-36,3,SimpleHill,2-35,49,11,selected,9-26,12-31;8-25;4-27;4-32;13-29;7-33,4-32,5.46,51,-3,1671.62738073
GEMS212,2018_Mar_21_1306,Jerry,SF,spatial_frequency,8,6,6,13-43;12-34;2-35;10-36,3,SimpleHill,2-35,49,12,selected,4-32,10-27;0-36;7-30;6-33;8-26;3-32,3-32,3.15,49,-2,1678.32826114
GEMS212,2018_Mar_21_1306,Jerry,SF,spatial_frequency,8,6,6,13-43;12-34;2-35;10-36,3,SimpleHill,2-35,49,13,selected,3-32,3-37;7-32;7-38;5-39;0-31;2-28,0-31,6.03,42,-7,1687.91177381
GEMS212,2018_Mar_21_1306,Jerry,SF,spatial_frequency,8,6,6,13-43;12-34;2-35;10-36,3,SimpleHill,2-35,49,14,selected,0-31,6-33;3-30;6-32;3-36;2-38;0-39,3-30,3.27,47,5,1694.73610278
GEMS212,2018_Mar_21_1306,Jerry,SF,spatial_frequency,8,6,6,13-43;12-34;2-35;10-36,3,SimpleHill,2-35,49,15,selected,3-30,4-35;5-30;7-24;2-31;1-26;3-31,7-24,3.22,49,2,1701.51574232
GEMS212,2018_Mar_21_1306,Jerry,SF,spatial_frequency,8,6,6,13-43;12-34;2-35;10-36,3,SimpleHill,2-35,49,16,selected,7-24,11-21;7-28;11-18;9-23;0-22;8-30,7-28,10.91,53,4,1715.97869079
GEMS212,2018_Mar_21_1306,Jerry,SF,spatial_frequency,8,6,6,13-43;12-34;2-35;10-36,3,SimpleHill,2-35,49,17,selected,7-28,9-21;9-27;14-30;7-31;9-24;12-28,14-30,5.18,66,13,1724.72394373
GEMS212,2018_Mar_21_1306,Jerry,SF,spatial_frequency,8,6,6,13-43;12-34;2-35;10-36,3,SimpleHill,2-35,49,18,selected,14-30,21-30;15-25;9-31;7-28;10-32;18-25,9-31,7.73,59,-7,1736.0008316
GEMS212,2018_Mar_21_1306,Jerry,SF,spatial_frequency,8,6,6,13-43;12-34;2-35;10-36,3,SimpleHill,2-35,49,19,selected,9-31,13-26;11-35;9-28;13-27;13-34;10-32,10-32,6.74,61,2,1746.29778832
GEMS212,2018_Mar_21_1306,Jerry,SF,spatial_frequency,8,6,6,13-43;12-34;2-35;10-36,3,SimpleHill,2-35,49,20,selected,10-32,5-29;8-25;14-28;16-28;6-32;10-27,14-28,5.75,64,3,1755.61833331
GEMS212,2018_Mar_21_1306,Jerry,SF,spatial_frequency,8,6,6,13-43;12-34;2-35;10-36,3,SimpleHill,2-35,49,21,selected,14-28,14-36;14-20;10-30;7-25;16-30;9-33,7-25,8.68,50,-14,1767.85576975
GEMS212,2018_Mar_21_1306,Jerry,SF,spatial_frequency,8,6,6,13-43;12-34;2-35;10-36,3,SimpleHill,2-35,49,22,selected,7-25,2-23;7-28;7-20;8-22;5-21;13-26,2-23,3.87,39,-11,1775.27269657
GEMS212,2018_Mar_21_1306,Jerry,SF,spatial_frequency,8,6,6,13-43;12-34;2-35;10-36,3,SimpleHill,2-35,49,23,selected,2-23,4-21;1-30;4-20;3-21;7-22;2-18,4-20,5.43,39,0,1784.2663693
GEMS212,2018_Mar_21_1306,Jerry,SF,spatial_frequency,8,6,6,13-43;12-34;2-35;10-36,3,SimpleHill,2-35,49,24,selected,4-20,9-15;6-24;6-26;2-16;7-23;3-23,7-23,8.43,48,9,1796.24368593
GEMS212,2018_Mar_21_1306,Jerry,SF,spatial_frequency,8,6,6,13-43;12-34;2-35;10-36,3,SimpleHill,2-35,49,25,selected,7-23,6-22;7-29;11-26;12-21;4-26;8-23,6-22,4.18,45,-3,1803.99840114
GEMS212,2018_Mar_21_1306,Jerry,SF,spatial_frequency,8,6,6,13-43;12-34;2-35;10-36,3,SimpleHill,2-35,49,26,selected,6-22,3-23;1-28;7-24;7-20;6-19;9-19,7-20,1.42,45,0,1808.95432213
GEMS212,2018_Mar_21_1306,Jerry,SF,spatial_frequency,8,6,6,13-43;12-34;2-35;10-36,3,SimpleHill,2-35,49,27,selected,7-20,14-21;8-15;4-13;9-17;10-22;1-22,10-22,7.47,52,7,1819.99020324
GEMS212,2018_Mar_21_1306,Jerry,SF,spatial_frequency,8,6,6,13-43;12-34;2-35;10-36,3,SimpleHill,2-35,49,28,selected,10-22,12-27;13-28;13-18;12-16;8-24;5-20,13-18,6.98,52,0,1830.55116986
GEMS212,2018_Mar_21_1306,Jerry,SF,spatial_frequency,8,6,6,13-43;12-34;2-35;10-36,3,SimpleHill,2-35,49,29,selected,13-18,14-13;7-19;16-15;12-18;6-20;8-17,12-18,7.35,50,-2,1841.47511679
GEMS212,2018_Mar_21_1306,Jerry,SF,spatial_frequency,8,6,6,13-43;12-34;2-35;10-36,3,SimpleHill,2-35,49,30,selected,12-18,5-20;12-26;4-18;14-24;12-25;11-11,11-11,4.67,39,-11,1849.7272807
GEMS212,2018_Mar_21_1306,Jerry,SF,spatial_frequency,8,6,6,13-43;12-34;2-35;10-36,3,SimpleHill,2-35,49,31,selected,11-11,12-12;9-8;13-17;7-7;12-15;18-12,7-7,10.09,26,-13,1863.38692293
GEMS212,2018_Mar_21_1306,Jerry,SF,spatial_frequency,8,6,6,13-43;12-34;2-35;10-36,3,SimpleHill,2-35,49,32,selected,7-7,13-4;8-8;10-12;2-13;6-6;5-13,10-12,7.47,39,13,1874.41538846
GEMS212,2018_Mar_21_1306,Jerry,SF,spatial_frequency,8,6,6,13-43;12-34;2-35;10-36,3,SimpleHill,2-35,49,33,selected,10-12,9-16;14-15;7-18;8-5;11-9;7-5,7-18,3.24,42,3,1881.20958806
GEMS212,2018_Mar_21_1306,Jerry,SF,spatial_frequency,8,6,6,13-43;12-34;2-35;10-36,3,SimpleHill,2-35,49,34,selected,7-18,7-21;11-22;11-23;7-17;10-24;3-18,7-17,5.31,41,-1,1890.06573744
GEMS212,2018_Mar_21_1306,Jerry,SF,spatial_frequency,8,6,6,13-43;12-34;2-35;10-36,3,SimpleHill,2-35,49,35,selected,7-17,5-15;8-24;4-15;13-13;4-19;9-22,5-15,2.85,35,-6,1896.46784141
GEMS212,2018_Mar_21_1306,Jerry,SF,spatial_frequency,8,6,6,13-43;12-34;2-35;10-36,3,SimpleHill,2-35,49,36,selected,5-15,4-9;1-19;1-9;10-14;3-8;12-16,3-8,7.33,20,-15,1907.36601736
GEMS212,2018_Mar_21_1306,Jerry,SF,spatial_frequency,8,6,6,13-43;12-34;2-35;10-36,3,SimpleHill,2-35,49,37,selected,3-8,4-10;8-3;0-2;10-6;9-11;10-5,0-2,6.04,3,-17,1916.96713128
GEMS212,2018_Mar_21_1306,Jerry,SF,spatial_frequency,8,6,6,13-43;12-34;2-35;10-36,3,SimpleHill,2-35,49,38,selected,0-2,5-3;7-0;0-5;3-7;0-4;1-1,0-5,12.48,9,6,1933.01497458
GEMS212,2018_Mar_21_1306,Jerry,SF,spatial_frequency,8,6,6,13-43;12-34;2-35;10-36,3,SimpleHill,2-35,49,39,selected,0-5,5-1;2-9;6-7;2-1;3-9;6-2,3-9,13.26,22,13,1949.8198067
GEMS212,2018_Mar_21_1306,Jerry,SF,spatial_frequency,8,6,6,13-43;12-34;2-35;10-36,4,SimpleHill,10-36,64,0,selected,10-36,14-39;11-29;13-35;11-43;10-43;5-31,5-31,2.97,52,-12,1963.53698687
GEMS212,2018_Mar_21_1306,Jerry,SF,spatial_frequency,8,6,6,13-43;12-34;2-35;10-36,4,SimpleHill,10-36,64,1,selected,5-31,8-31;6-35;3-26;7-25;7-28;10-36,3-26,6.28,44,-8,1973.3569168
GEMS212,2018_Mar_21_1306,Jerry,SF,spatial_frequency,8,6,6,13-43;12-34;2-35;10-36,4,SimpleHill,10-36,64,2,selected,3-26,6-21;0-25;3-21;5-22;6-24;5-23,6-21,3.05,44,0,1979.97822537
GEMS212,2018_Mar_21_1306,Jerry,SF,spatial_frequency,8,6,6,13-43;12-34;2-35;10-36,4,SimpleHill,10-36,64,3,selected,6-21,1-18;0-18;4-18;4-28;5-23;5-21,0-18,11.1,29,-15,1994.61851896
GEMS212,2018_Mar_21_1306,Jerry,SF,spatial_frequency,8,6,6,13-43;12-34;2-35;10-36,4,SimpleHill,10-36,64,4,selected,0-18,1-13;6-19;1-24;6-15;0-17;4-23,1-24,1.58,38,9,1999.76017183
GEMS212,2018_Mar_21_1306,Jerry,SF,spatial_frequency,8,6,6,13-43;12-34;2-35;10-36,4,SimpleHill,10-36,64,5,selected,1-24,7-23;4-25;6-18;3-23;6-22;1-18,3-23,5.59,41,3,2008.89795701
GEMS212,2018_Mar_21_1306,Jerry,SF,spatial_frequency,8,6,6,13-43;12-34;2-35;10-36,4,SimpleHill,10-36,64,6,selected,3-23,4-20;4-22;9-18;9-28;2-28;7-17,4-22,2.29,42,1,2014.73554805
GEMS212,2018_Mar_21_1306,Jerry,SF,spatial_frequency,8,6,6,13-43;12-34;2-35;10-36,4,SimpleHill,10-36,64,7,selected,4-22,5-18;10-24;4-27;3-18;7-23;4-14,5-18,1.6,39,-3,2019.90309738
GEMS212,2018_Mar_21_1306,Jerry,SF,spatial_frequency,8,6,6,13-43;12-34;2-35;10-36,4,SimpleHill,10-36,64,8,selected,5-18,12-19;5-14;1-19;3-19;2-17;6-18,6-18,8.9,40,1,2032.35943209
GEMS212,2018_Mar_21_1306,Jerry,SF,spatial_frequency,8,6,6,13-43;12-34;2-35;10-36,4,SimpleHill,10-36,64,9,selected,6-18,2-22;5-21;1-16;10-17;11-22;11-17,10-17,20.9,46,6,2056.80760732
GEMS212,2018_Mar_21_1306,Jerry,SF,spatial_frequency,8,6,6,13-43;12-34;2-35;10-36,4,SimpleHill,10-36,64,10,selected,10-17,10-13;14-17;6-21;8-20;15-13;9-22,6-21,1.37,44,-2,2061.72494915
GEMS212,2018_Mar_21_1306,Jerry,SF,spatial_frequency,8,6,6,13-43;12-34;2-35;10-36,4,SimpleHill,10-36,64,11,selected,6-21,11-27;9-20;9-24;9-21;2-20;7-16,7-16,3.9,39,-5,2069.17993307
GEMS212,2018_Mar_21_1306,Jerry,SF,spatial_frequency,8,6,6,13-43;12-34;2-35;10-36,4,SimpleHill,10-36,64,12,selected,7-16,2-22;3-20;10-12;7-14;14-19;9-16,14-19,4.18,54,15,2076.92355962
GEMS212,2018_Mar_21_1306,Jerry,SF,spatial_frequency,8,6,6,13-43;12-34;2-35;10-36,4,SimpleHill,10-36,64,13,selected,14-19,9-25;17-13;20-20;14-23;9-17;13-26,13-26,4.48,61,7,2084.97781886
GEMS212,2018_Mar_21_1306,Jerry,SF,spatial_frequency,8,6,6,13-43;12-34;2-35;10-36,4,SimpleHill,10-36,64,14,selected,13-26,6-24;19-31;7-27;8-31;18-29;14-25,8-31,6.85,57,-4,2095.40755739
GEMS212,2018_Mar_21_1306,Jerry,SF,spatial_frequency,8,6,6,13-43;12-34;2-35;10-36,4,SimpleHill,10-36,64,15,selected,8-31,7-24;8-33;11-36;10-32;11-29;4-29,4-29,9.26,48,-9,2108.23786825
GEMS212,2018_Mar_21_1306,Jerry,SF,spatial_frequency,8,6,6,13-43;12-34;2-35;10-36,4,SimpleHill,10-36,64,16,selected,4-29,7-26;7-22;2-31;9-30;3-30;7-35,7-22,3.93,47,-1,2115.73447798
GEMS212,2018_Mar_21_1306,Jerry,SF,spatial_frequency,8,6,6,13-43;12-34;2-35;10-36,4,SimpleHill,10-36,64,17,selected,7-22,9-27;2-21;13-22;4-17;8-29;10-28,10-28,9.81,58,11,2129.10941601
GEMS212,2018_Mar_21_1306,Jerry,SF,spatial_frequency,8,6,6,13-43;12-34;2-35;10-36,4,SimpleHill,10-36,64,18,selected,10-28,9-22;11-28;13-22;12-27;17-26;13-25,17-26,3.24,66,8,2135.89612352
GEMS212,2018_Mar_21_1306,Jerry,SF,spatial_frequency,8,6,6,13-43;12-34;2-35;10-36,4,SimpleHill,10-36,64,19,selected,17-26,20-26;12-26;11-21;16-28;13-25;13-29,20-26,3.71,70,4,2143.17170445
GEMS212,2018_Mar_21_1306,Jerry,SF,spatial_frequency,8,6,6,13-43;12-34;2-35;10-36,4,SimpleHill,10-36,64,20,selected,20-26,18-27;24-21;18-19;25-30;26-29;20-22,20-22,3.86,66,-4,2150.59382285
GEMS212,2018_Mar_21_1306,Jerry,SF,spatial_frequency,8,6,6,13-43;12-34;2-35;10-36,4,SimpleHill,10-36,64,21,selected,20-22,20-22;13-20;14-18;12-22;22-17;23-20,14-18,15.52,53,-13,2169.66883754
GEMS212,2018_Mar_21_1306,Jerry,SF,spatial_frequency,8,6,6,13-43;12-34;2-35;10-36,4,SimpleHill,10-36,64,22,selected,14-18,12-11;17-13;9-20;13-19;17-18;11-12,12-11,2.43,40,-13,2175.65252049
GEMS212,2018_Mar_21_1306,Jerry,SF,spatial_frequency,8,6,6,13-43;12-34;2-35;10-36,4,SimpleHill,10-36,64,23,selected,12-11,10-17;15-4;7-15;5-12;9-5;19-9,9-5,5.06,25,-15,2184.26847519
GEMS212,2018_Mar_21_1306,Jerry,SF,spatial_frequency,8,6,6,13-43;12-34;2-35;10-36,4,SimpleHill,10-36,64,24,selected,9-5,7-7;12-0;13-7;11-2;15-5;12-7,13-7,14.24,35,10,2202.05530562
GEMS212,2018_Mar_21_1306,Jerry,SF,spatial_frequency,8,6,6,13-43;12-34;2-35;10-36,4,SimpleHill,10-36,64,25,selected,13-7,8-5;10-14;15-1;8-1;11-10;9-11,11-10,7.34,37,2,2212.9629115
GEMS212,2018_Mar_21_1306,Jerry,SF,spatial_frequency,8,6,6,13-43;12-34;2-35;10-36,4,SimpleHill,10-36,64,26,selected,11-10,14-16;9-5;17-10;9-9;15-12;10-5,10-5,9.95,27,-10,2226.45262644
GEMS212,2018_Mar_21_1306,Jerry,SF,spatial_frequency,8,6,6,13-43;12-34;2-35;10-36,4,SimpleHill,10-36,64,27,selected,10-5,5-3;3-7;18-5;4-4;8-1;11-3,4-4,2.98,15,-12,2232.97844976
GEMS212,2018_Mar_21_1306,Jerry,SF,spatial_frequency,8,6,6,13-43;12-34;2-35;10-36,4,SimpleHill,10-36,64,28,selected,4-4,6-9;9-8;9-2;3-3;3-5;8-4,3-5,8.74,15,0,2245.26647525
GEMS212,2018_Mar_21_1306,Jerry,SF,spatial_frequency,8,6,6,13-43;12-34;2-35;10-36,4,SimpleHill,10-36,64,29,selected,3-5,5-11;7-11;1-9;5-0;9-0;8-0,1-9,6.19,18,3,2254.99414326
GEMS212,2018_Mar_21_1306,Jerry,SF,spatial_frequency,8,6,6,13-43;12-34;2-35;10-36,4,SimpleHill,10-36,64,30,selected,1-9,4-12;2-10;0-7;7-5;4-11;6-6,2-10,2.16,21,3,2260.69096202
GEMS212,2018_Mar_21_1306,Jerry,SF,spatial_frequency,8,6,6,13-43;12-34;2-35;10-36,4,SimpleHill,10-36,64,31,selected,2-10,4-12;3-17;3-12;6-12;0-16;4-5,6-12,1.88,32,11,2266.13986034
GEMS212,2018_Mar_21_1306,Jerry,SF,spatial_frequency,8,6,6,13-43;12-34;2-35;10-36,4,SimpleHill,10-36,64,32,selected,6-12,9-19;1-6;13-13;12-7;5-11;4-12,13-13,4.19,45,13,2273.88942846
GEMS212,2018_Mar_21_1306,Jerry,SF,spatial_frequency,8,6,6,13-43;12-34;2-35;10-36,4,SimpleHill,10-36,64,33,selected,13-13,11-13;13-20;17-8;10-15;6-15;16-6,10-15,3.73,43,-2,2281.17495499
GEMS212,2018_Mar_21_1306,Jerry,SF,spatial_frequency,8,6,6,13-43;12-34;2-35;10-36,4,SimpleHill,10-36,64,34,selected,10-15,7-17;10-11;2-15;8-17;12-18;14-16,12-18,3.5,50,7,2288.25840635
GEMS212,2018_Mar_21_1306,Jerry,SF,spatial_frequency,8,6,6,13-43;12-34;2-35;10-36,4,SimpleHill,10-36,64,35,selected,12-18,14-11;6-20;8-17;18-15;12-10;10-15,12-10,3.54,39,-11,2295.34357118
GEMS212,2018_Mar_21_1306,Jerry,SF,spatial_frequency,8,6,6,13-43;12-34;2-35;10-36,4,SimpleHill,10-36,64,36,selected,12-10,6-9;9-7;13-4;6-12;16-4;18-11,6-9,2.57,27,-12,2301.47458352
GEMS212,2018_Mar_21_1306,Jerry,SF,spatial_frequency,8,6,6,13-43;12-34;2-35;10-36,4,SimpleHill,10-36,64,37,selected,6-9,4-16;2-7;0-11;9-14;2-14;14-9,2-14,2.2,28,1,2307.24266676
GEMS212,2018_Mar_21_1306,Jerry,SF,spatial_frequency,8,6,6,13-43;12-34;2-35;10-36,4,SimpleHill,10-36,64,38,selected,2-14,0-16;0-15;2-6;7-13;3-17;3-19,3-17,3.06,34,6,2313.86187136
GEMS212,2018_Mar_21_1306,Jerry,SF,spatial_frequency,8,6,6,13-43;12-34;2-35;10-36,4,SimpleHill,10-36,64,39,selected,3-17,4-14;2-16;3-20;0-23;2-10;8-17,2-16,3.23,30,-4,2320.64785226
