subj_id,date,computer,experimenter,instructions,sight_radius,n_gabors,landscape_ix,landscape_name,starting_pos,starting_score,trial,feedback,pos,stims,selected,rt,score,delta,exp_time
GEMS128,2018_Mar_07_1234,George,sf,spatial_frequency,8,6,0,SpatialFrequencyBias,0-0,0,0,training,0-0,3-7;0-6;2-6;3-1;1-5;6-2,2-6,5.85,22,22,220.583965089
GEMS128,2018_Mar_07_1234,George,sf,spatial_frequency,8,6,0,SpatialFrequencyBias,0-0,0,1,training,2-6,1-10;9-5;5-7;8-1;2-3;4-1,1-10,6.58,36,14,234.607984198
GEMS128,2018_Mar_07_1234,George,sf,spatial_frequency,8,6,0,SpatialFrequencyBias,0-0,0,2,training,1-10,5-8;5-9;5-10;5-5;1-12;6-9,6-9,7.02,32,-4,250.280091265
GEMS128,2018_Mar_07_1234,George,sf,spatial_frequency,8,6,0,SpatialFrequencyBias,0-0,0,3,training,6-9,10-15;8-15;3-5;9-7;7-13;5-9,7-13,5.19,45,13,260.225715215
GEMS128,2018_Mar_07_1234,George,sf,spatial_frequency,8,6,0,SpatialFrequencyBias,0-0,0,4,training,7-13,6-6;6-12;13-16;1-13;4-20;4-19,4-20,4.29,64,19,269.513217263
GEMS128,2018_Mar_07_1234,George,sf,spatial_frequency,8,6,0,SpatialFrequencyBias,0-0,0,5,training,4-20,9-17;11-18;7-25;11-22;6-24;0-18,6-24,3.06,72,8,278.164672276
GEMS128,2018_Mar_07_1234,George,sf,spatial_frequency,8,6,0,SpatialFrequencyBias,0-0,0,6,training,6-24,5-28;3-28;14-24;5-20;4-27;0-19,4-27,4.14,78,6,290.463439664
GEMS128,2018_Mar_07_1234,George,sf,spatial_frequency,8,6,0,SpatialFrequencyBias,0-0,0,7,training,4-27,5-28;10-31;3-32;2-29;7-23;6-20,5-28,5.8,80,2,300.330065081
GEMS128,2018_Mar_07_1234,George,sf,spatial_frequency,8,6,0,SpatialFrequencyBias,0-0,0,8,training,5-28,4-21;8-34;5-32;8-30;6-30;7-33,8-34,3.66,89,9,308.519769559
GEMS128,2018_Mar_07_1234,George,sf,spatial_frequency,8,6,0,SpatialFrequencyBias,0-0,0,9,training,8-34,7-30;8-29;13-39;12-32;7-33;6-36,13-39,3.81,95,6,316.451268463
GEMS128,2018_Mar_07_1234,George,sf,spatial_frequency,8,6,0,SpatialFrequencyBias,0-0,0,10,training,13-39,12-43;9-44;9-38;13-32;20-37;19-37,13-32,4.79,87,-8,325.721809765
GEMS128,2018_Mar_07_1234,George,sf,spatial_frequency,8,6,0,SpatialFrequencyBias,0-0,0,11,training,13-32,13-27;12-36;17-36;10-25;15-33;16-34,15-33,4.24,88,1,336.878960506
GEMS128,2018_Mar_07_1234,George,sf,spatial_frequency,8,6,0,SpatialFrequencyBias,0-0,0,12,training,15-33,18-40;12-35;8-34;17-33;17-39;12-28,12-35,5.62,91,3,348.071502604
GEMS128,2018_Mar_07_1234,George,sf,spatial_frequency,8,6,0,SpatialFrequencyBias,0-0,0,13,training,12-35,12-29;9-40;6-33;15-37;6-35;6-39,6-39,3.51,95,4,355.43266148
GEMS128,2018_Mar_07_1234,George,sf,spatial_frequency,8,6,0,SpatialFrequencyBias,0-0,0,14,training,6-39,13-42;2-42;0-42;9-43;8-35;5-44,5-44,5.58,98,3,364.214055522
GEMS128,2018_Mar_07_1234,George,sf,spatial_frequency,8,6,0,SpatialFrequencyBias,0-0,0,15,training,5-44,7-38;2-38;5-44;3-49;0-42;1-43,3-49,5.21,99,1,372.438664817
GEMS128,2018_Mar_07_1234,George,sf,spatial_frequency,8,6,0,SpatialFrequencyBias,0-0,0,16,training,3-49,2-50;5-56;2-55;7-47;10-47;4-46,7-47,4.76,99,0,380.234753349
GEMS128,2018_Mar_07_1234,George,sf,spatial_frequency,8,6,0,SpatialFrequencyBias,0-0,0,17,training,7-47,10-44;2-50;6-46;1-49;11-50;13-47,11-50,7.42,100,1,392.267897017
GEMS128,2018_Mar_07_1234,George,sf,spatial_frequency,8,6,0,SpatialFrequencyBias,0-0,0,18,training,11-50,6-45;10-45;10-57;8-53;16-52;5-55,8-53,3.55,99,-1,399.375223105
GEMS128,2018_Mar_07_1234,George,sf,spatial_frequency,8,6,0,SpatialFrequencyBias,0-0,0,19,training,8-53,15-53;3-50;14-53;5-54;12-54;11-59,12-54,2.85,99,0,405.939541551
GEMS128,2018_Mar_07_1234,George,sf,spatial_frequency,8,6,0,SpatialFrequencyBias,0-0,0,20,training,12-54,19-51;7-52;5-55;18-52;12-55;14-58,12-55,3.12,99,0,414.476094525
GEMS128,2018_Mar_07_1234,George,sf,spatial_frequency,8,6,0,SpatialFrequencyBias,0-0,0,21,training,12-55,7-61;12-56;18-54;9-52;11-62;12-54,7-61,4.95,95,-4,422.704470349
GEMS128,2018_Mar_07_1234,George,sf,spatial_frequency,8,6,0,SpatialFrequencyBias,0-0,0,22,training,7-61,8-61;2-67;14-61;6-56;13-66;5-65,13-66,2.6,89,-6,431.102860796
GEMS128,2018_Mar_07_1234,George,sf,spatial_frequency,8,6,0,SpatialFrequencyBias,0-0,0,23,training,13-66,10-68;16-69;18-64;16-62;14-63;17-66,10-68,2.38,87,-2,439.043372547
GEMS128,2018_Mar_07_1234,George,sf,spatial_frequency,8,6,0,SpatialFrequencyBias,0-0,0,24,training,10-68,14-62;6-67;13-64;10-63;8-67;7-61,10-63,3.36,93,6,447.468142464
GEMS128,2018_Mar_07_1234,George,sf,spatial_frequency,8,6,0,SpatialFrequencyBias,0-0,0,25,training,10-63,5-65;10-63;14-58;7-70;10-67;17-60,17-60,4.51,96,3,456.196536534
GEMS128,2018_Mar_07_1234,George,sf,spatial_frequency,8,6,0,SpatialFrequencyBias,0-0,0,26,training,17-60,12-54;15-57;16-63;16-66;23-59;17-68,16-63,3.78,93,-3,463.487978602
GEMS128,2018_Mar_07_1234,George,sf,spatial_frequency,8,6,0,SpatialFrequencyBias,0-0,0,27,training,16-63,12-59;18-69;18-65;12-68;18-66;13-66,12-68,4.85,87,-6,472.736909493
GEMS128,2018_Mar_07_1234,George,sf,spatial_frequency,8,6,0,SpatialFrequencyBias,0-0,0,28,training,12-68,16-68;8-62;15-61;7-67;11-70;14-63,8-62,3.52,94,7,479.476867868
GEMS128,2018_Mar_07_1234,George,sf,spatial_frequency,8,6,0,SpatialFrequencyBias,0-0,0,29,training,8-62,12-63;6-61;10-66;9-66;10-57;5-69,6-61,3.81,95,1,488.706810546
GEMS128,2018_Mar_07_1234,George,sf,spatial_frequency,8,6,1,SimpleHill,0-0,0,0,selected,0-0,2-5;4-6;4-0;6-0;3-6;3-0,2-5,4.7,13,13,513.211642344
GEMS128,2018_Mar_07_1234,George,sf,spatial_frequency,8,6,1,SimpleHill,0-0,0,1,selected,2-5,1-7;1-3;5-1;3-8;4-2;4-11,3-8,5.09,20,7,521.860401217
GEMS128,2018_Mar_07_1234,George,sf,spatial_frequency,8,6,1,SimpleHill,0-0,0,2,selected,3-8,0-11;7-3;3-8;10-9;9-10;2-7,0-11,1.55,19,-1,526.980773638
GEMS128,2018_Mar_07_1234,George,sf,spatial_frequency,8,6,1,SimpleHill,0-0,0,3,selected,0-11,1-15;2-13;3-9;0-5;6-15;6-10,0-5,3.93,9,-10,534.470657112
GEMS128,2018_Mar_07_1234,George,sf,spatial_frequency,8,6,1,SimpleHill,0-0,0,4,selected,0-5,5-11;3-7;4-4;7-3;1-7;3-9,1-7,3.14,15,6,541.176362058
GEMS128,2018_Mar_07_1234,George,sf,spatial_frequency,8,6,1,SimpleHill,0-0,0,5,selected,1-7,7-5;8-6;0-4;2-3;6-4;3-12,7-5,3.53,22,7,548.277856058
GEMS128,2018_Mar_07_1234,George,sf,spatial_frequency,8,6,1,SimpleHill,0-0,0,6,selected,7-5,9-3;4-10;6-9;3-6;2-2;8-12,4-10,4.13,25,3,555.982702516
GEMS128,2018_Mar_07_1234,George,sf,spatial_frequency,8,6,1,SimpleHill,0-0,0,7,selected,4-10,5-11;2-8;2-6;8-7;1-14;1-7,2-6,3.48,15,-10,563.039741416
GEMS128,2018_Mar_07_1234,George,sf,spatial_frequency,8,6,1,SimpleHill,0-0,0,8,selected,2-6,4-12;4-4;4-13;8-10;0-0;6-3,6-3,2.99,17,2,569.58217097
GEMS128,2018_Mar_07_1234,George,sf,spatial_frequency,8,6,1,SimpleHill,0-0,0,9,selected,6-3,7-6;5-1;11-0;6-6;8-5;6-0,7-6,4.77,24,7,577.893649555
GEMS128,2018_Mar_07_1234,George,sf,spatial_frequency,8,6,1,SimpleHill,0-0,0,10,selected,7-6,6-8;7-13;13-9;5-11;4-4;10-9,13-9,6.99,39,15,588.448363303
GEMS128,2018_Mar_07_1234,George,sf,spatial_frequency,8,6,1,SimpleHill,0-0,0,11,selected,13-9,10-8;17-4;16-16;11-13;20-10;13-1,11-13,5.27,42,3,597.291866831
GEMS128,2018_Mar_07_1234,George,sf,spatial_frequency,8,6,1,SimpleHill,0-0,0,12,selected,11-13,14-19;11-19;13-10;6-7;8-13;9-6,8-13,6.59,37,-5,607.454494996
GEMS128,2018_Mar_07_1234,George,sf,spatial_frequency,8,6,1,SimpleHill,0-0,0,13,selected,8-13,1-14;8-9;8-20;14-16;7-12;16-13,14-16,5.43,50,13,616.448816554
GEMS128,2018_Mar_07_1234,George,sf,spatial_frequency,8,6,1,SimpleHill,0-0,0,14,selected,14-16,10-11;8-15;10-22;16-22;10-16;20-15,16-22,2.97,61,11,622.985657931
GEMS128,2018_Mar_07_1234,George,sf,spatial_frequency,8,6,1,SimpleHill,0-0,0,15,selected,16-22,16-14;10-25;10-24;19-27;17-22;19-22,17-22,2.74,62,1,629.300844788
GEMS128,2018_Mar_07_1234,George,sf,spatial_frequency,8,6,1,SimpleHill,0-0,0,16,selected,17-22,18-19;18-22;23-25;11-18;14-22;16-17,18-19,1.67,60,-2,634.5566916
GEMS128,2018_Mar_07_1234,George,sf,spatial_frequency,8,6,1,SimpleHill,0-0,0,17,selected,18-19,15-15;16-15;25-22;20-25;26-19;23-20,26-19,6.15,69,9,644.272886941
GEMS128,2018_Mar_07_1234,George,sf,spatial_frequency,8,6,1,SimpleHill,0-0,0,18,selected,26-19,29-19;30-18;31-22;20-21;20-22;21-13,30-18,4.74,71,2,652.589050401
GEMS128,2018_Mar_07_1234,George,sf,spatial_frequency,8,6,1,SimpleHill,0-0,0,19,selected,30-18,32-25;34-17;28-20;32-19;23-19;35-20,34-17,4.38,73,2,660.530931188
GEMS128,2018_Mar_07_1234,George,sf,spatial_frequency,8,6,1,SimpleHill,0-0,0,20,selected,34-17,29-23;32-22;37-22;33-21;40-21;31-14,33-21,3.0,77,4,667.088404454
GEMS128,2018_Mar_07_1234,George,sf,spatial_frequency,8,6,1,SimpleHill,0-0,0,21,selected,33-21,36-17;40-20;36-19;29-20;35-20;34-28,36-17,1.8,74,-3,672.447331324
GEMS128,2018_Mar_07_1234,George,sf,spatial_frequency,8,6,1,SimpleHill,0-0,0,22,selected,36-17,41-17;36-23;40-16;42-22;30-21;40-21,40-16,4.69,74,0,680.716969965
GEMS128,2018_Mar_07_1234,George,sf,spatial_frequency,8,6,1,SimpleHill,0-0,0,23,selected,40-16,33-13;38-23;40-12;42-21;37-18;38-16,37-18,2.37,76,2,686.664749419
GEMS128,2018_Mar_07_1234,George,sf,spatial_frequency,8,6,1,SimpleHill,0-0,0,24,selected,37-18,34-20;42-24;42-15;39-25;32-13;35-25,32-13,4.45,66,-10,694.662562546
GEMS128,2018_Mar_07_1234,George,sf,spatial_frequency,8,6,1,SimpleHill,0-0,0,25,selected,32-13,29-19;36-12;38-9;34-11;31-10;26-14,36-12,2.28,67,1,700.517228664
GEMS128,2018_Mar_07_1234,George,sf,spatial_frequency,8,6,1,SimpleHill,0-0,0,26,selected,36-12,33-9;33-14;32-9;35-17;36-12;37-6,35-17,3.21,73,6,707.306332136
GEMS128,2018_Mar_07_1234,George,sf,spatial_frequency,8,6,1,SimpleHill,0-0,0,27,selected,35-17,36-22;37-21;32-16;38-23;29-13;31-15,37-21,5.09,79,6,715.969098901
GEMS128,2018_Mar_07_1234,George,sf,spatial_frequency,8,6,1,SimpleHill,0-0,0,28,selected,37-21,34-17;39-26;32-17;42-26;32-23;39-20,34-17,3.69,73,-6,723.235735073
GEMS128,2018_Mar_07_1234,George,sf,spatial_frequency,8,6,1,SimpleHill,0-0,0,29,selected,34-17,31-24;38-19;32-14;37-20;34-22;27-18,27-18,1.06,68,-5,727.843871315
GEMS128,2018_Mar_07_1234,George,sf,spatial_frequency,8,6,1,SimpleHill,0-0,0,30,selected,27-18,29-24;24-24;32-24;25-14;22-17;19-18,29-24,3.04,77,9,734.436468021
GEMS128,2018_Mar_07_1234,George,sf,spatial_frequency,8,6,1,SimpleHill,0-0,0,31,selected,29-24,27-19;34-24;34-18;35-28;27-18;22-23,34-24,2.86,81,4,740.848121184
GEMS128,2018_Mar_07_1234,George,sf,spatial_frequency,8,6,1,SimpleHill,0-0,0,32,selected,34-24,33-23;39-19;31-24;31-19;30-19;36-24,30-19,2.4,72,-9,746.824352389
GEMS128,2018_Mar_07_1234,George,sf,spatial_frequency,8,6,1,SimpleHill,0-0,0,33,selected,30-19,33-22;36-14;30-11;25-25;33-26;29-25,33-22,6.33,78,6,756.719507019
GEMS128,2018_Mar_07_1234,George,sf,spatial_frequency,8,6,1,SimpleHill,0-0,0,34,selected,33-22,35-25;33-24;30-24;27-22;36-25;26-21,33-24,4.86,80,2,765.171027715
GEMS128,2018_Mar_07_1234,George,sf,spatial_frequency,8,6,1,SimpleHill,0-0,0,35,selected,33-24,26-22;28-26;33-27;36-30;33-31;36-25,28-26,7.18,78,-2,775.916669334
GEMS128,2018_Mar_07_1234,George,sf,spatial_frequency,8,6,1,SimpleHill,0-0,0,36,selected,28-26,31-28;34-27;32-24;25-32;25-24;29-24,32-24,2.17,80,2,781.64829922
GEMS128,2018_Mar_07_1234,George,sf,spatial_frequency,8,6,1,SimpleHill,0-0,0,37,selected,32-24,39-24;38-28;33-27;34-17;28-27;31-21,38-28,4.69,87,7,789.918749936
GEMS128,2018_Mar_07_1234,George,sf,spatial_frequency,8,6,1,SimpleHill,0-0,0,38,selected,38-28,38-26;36-21;34-29;45-26;40-23;37-31,34-29,4.88,86,-1,798.37676243
GEMS128,2018_Mar_07_1234,George,sf,spatial_frequency,8,6,1,SimpleHill,0-0,0,39,selected,34-29,29-30;30-30;39-34;35-29;29-25;29-31,39-34,4.26,92,6,806.199304055
GEMS128,2018_Mar_07_1234,George,sf,spatial_frequency,8,6,2,SimpleHill,0-0,0,0,selected,0-0,8-0;3-0;0-1;1-6;4-0;1-5,1-6,3.8,13,13,820.066222357
GEMS128,2018_Mar_07_1234,George,sf,spatial_frequency,8,6,2,SimpleHill,0-0,0,1,selected,1-6,6-3;6-4;3-5;2-13;0-9;1-6,0-9,3.24,16,3,826.871064782
GEMS128,2018_Mar_07_1234,George,sf,spatial_frequency,8,6,2,SimpleHill,0-0,0,2,selected,0-9,5-7;4-10;0-1;6-7;2-9;3-13,4-10,5.21,25,9,835.651383632
GEMS128,2018_Mar_07_1234,George,sf,spatial_frequency,8,6,2,SimpleHill,0-0,0,3,selected,4-10,3-14;5-6;0-8;2-12;10-10;9-5,3-14,3.52,29,4,842.747156938
GEMS128,2018_Mar_07_1234,George,sf,spatial_frequency,8,6,2,SimpleHill,0-0,0,4,selected,3-14,1-19;2-15;10-12;8-8;7-19;4-16,4-16,6.43,34,5,852.753105218
GEMS128,2018_Mar_07_1234,George,sf,spatial_frequency,8,6,2,SimpleHill,0-0,0,5,selected,4-16,5-13;4-9;0-16;9-20;1-23;2-18,0-16,3.45,26,-8,859.785817401
GEMS128,2018_Mar_07_1234,George,sf,spatial_frequency,8,6,2,SimpleHill,0-0,0,6,selected,0-16,3-15;0-24;5-18;6-18;2-13;0-22,5-18,4.22,39,13,867.562042588
GEMS128,2018_Mar_07_1234,George,sf,spatial_frequency,8,6,2,SimpleHill,0-0,0,7,selected,5-18,1-17;6-16;0-23;3-11;11-21;1-16,6-16,4.39,38,-1,875.514908953
GEMS128,2018_Mar_07_1234,George,sf,spatial_frequency,8,6,2,SimpleHill,0-0,0,8,selected,6-16,10-19;5-17;7-21;0-13;2-13;4-12,7-21,2.36,46,8,881.455548741
GEMS128,2018_Mar_07_1234,George,sf,spatial_frequency,8,6,2,SimpleHill,0-0,0,9,selected,7-21,8-18;11-19;14-22;2-25;2-19;2-22,11-19,3.53,50,4,888.570230876
GEMS128,2018_Mar_07_1234,George,sf,spatial_frequency,8,6,2,SimpleHill,0-0,0,10,selected,11-19,13-17;16-20;6-21;8-13;11-20;8-23,16-20,3.29,58,8,895.437504161
GEMS128,2018_Mar_07_1234,George,sf,spatial_frequency,8,6,2,SimpleHill,0-0,0,11,selected,16-20,18-21;11-18;12-17;13-23;14-15;17-26,11-18,3.42,49,-9,902.422922343
GEMS128,2018_Mar_07_1234,George,sf,spatial_frequency,8,6,2,SimpleHill,0-0,0,12,selected,11-18,8-24;9-15;6-13;17-16;8-18;7-22,6-13,1.2,33,-16,907.19762741
GEMS128,2018_Mar_07_1234,George,sf,spatial_frequency,8,6,2,SimpleHill,0-0,0,13,selected,6-13,6-8;3-7;7-19;9-7;8-7;4-18,7-19,4.28,43,10,915.050135783
GEMS128,2018_Mar_07_1234,George,sf,spatial_frequency,8,6,2,SimpleHill,0-0,0,14,selected,7-19,1-24;10-14;3-22;11-21;4-14;11-20,10-14,4.27,42,-1,922.881704339
GEMS128,2018_Mar_07_1234,George,sf,spatial_frequency,8,6,2,SimpleHill,0-0,0,15,selected,10-14,14-13;11-18;11-16;14-15;10-20;5-17,11-18,3.98,49,7,930.443069931
GEMS128,2018_Mar_07_1234,George,sf,spatial_frequency,8,6,2,SimpleHill,0-0,0,16,selected,11-18,7-16;8-15;9-20;11-23;17-13;16-24,9-20,4.65,48,-1,938.661198632
GEMS128,2018_Mar_07_1234,George,sf,spatial_frequency,8,6,2,SimpleHill,0-0,0,17,selected,9-20,15-21;2-22;8-19;7-17;8-20;14-18,15-21,5.66,58,10,947.885561775
GEMS128,2018_Mar_07_1234,George,sf,spatial_frequency,8,6,2,SimpleHill,0-0,0,18,selected,15-21,18-21;14-23;16-22;20-27;12-23;14-18,14-18,2.58,53,-5,954.020059563
GEMS128,2018_Mar_07_1234,George,sf,spatial_frequency,8,6,2,SimpleHill,0-0,0,19,selected,14-18,20-23;9-12;15-23;18-12;11-24;9-17,11-24,7.76,56,3,965.372801924
GEMS128,2018_Mar_07_1234,George,sf,spatial_frequency,8,6,2,SimpleHill,0-0,0,20,selected,11-24,11-19;16-27;17-27;15-19;4-24;17-23,11-19,1.94,50,-6,970.903246891
GEMS128,2018_Mar_07_1234,George,sf,spatial_frequency,8,6,2,SimpleHill,0-0,0,21,selected,11-19,11-19;8-26;12-23;14-20;17-18;9-20,9-20,2.96,48,-2,977.425978907
GEMS128,2018_Mar_07_1234,George,sf,spatial_frequency,8,6,2,SimpleHill,0-0,0,22,selected,9-20,5-17;9-12;5-18;7-13;12-20;3-18,5-18,4.36,39,-9,985.359784398
GEMS128,2018_Mar_07_1234,George,sf,spatial_frequency,8,6,2,SimpleHill,0-0,0,23,selected,5-18,7-11;9-21;1-16;1-23;7-13;2-16,7-13,2.16,35,-4,991.085463123
GEMS128,2018_Mar_07_1234,George,sf,spatial_frequency,8,6,2,SimpleHill,0-0,0,24,selected,7-13,4-8;7-9;4-12;4-17;12-16;13-8,7-9,6.59,29,-6,1001.24329918
GEMS128,2018_Mar_07_1234,George,sf,spatial_frequency,8,6,2,SimpleHill,0-0,0,25,selected,7-9,7-14;13-14;1-13;4-2;3-14;8-5,13-14,3.86,46,17,1008.67649458
GEMS128,2018_Mar_07_1234,George,sf,spatial_frequency,8,6,2,SimpleHill,0-0,0,26,selected,13-14,9-20;11-13;19-18;18-14;17-9;6-11,11-13,4.78,42,-4,1017.02603313
GEMS128,2018_Mar_07_1234,George,sf,spatial_frequency,8,6,2,SimpleHill,0-0,0,27,selected,11-13,10-8;6-10;9-15;13-11;5-13;14-20,9-15,4.08,41,-1,1024.66958538
GEMS128,2018_Mar_07_1234,George,sf,spatial_frequency,8,6,2,SimpleHill,0-0,0,28,selected,9-15,10-21;8-22;3-17;15-17;12-13;4-21,3-17,7.57,34,-7,1035.81173594
GEMS128,2018_Mar_07_1234,George,sf,spatial_frequency,8,6,2,SimpleHill,0-0,0,29,selected,3-17,9-18;0-18;3-22;8-19;3-14;5-11,3-14,1.98,29,-5,1041.34603354
GEMS128,2018_Mar_07_1234,George,sf,spatial_frequency,8,6,2,SimpleHill,0-0,0,30,selected,3-14,10-17;9-9;5-21;6-7;8-11;9-10,6-7,2.62,24,-5,1047.52920045
GEMS128,2018_Mar_07_1234,George,sf,spatial_frequency,8,6,2,SimpleHill,0-0,0,31,selected,6-7,1-13;13-6;6-0;1-12;12-10;9-7,1-13,5.07,24,0,1056.17239163
GEMS128,2018_Mar_07_1234,George,sf,spatial_frequency,8,6,2,SimpleHill,0-0,0,32,selected,1-13,0-17;0-18;1-5;8-16;4-10;1-13,8-16,2.23,41,17,1061.94547255
GEMS128,2018_Mar_07_1234,George,sf,spatial_frequency,8,6,2,SimpleHill,0-0,0,33,selected,8-16,10-22;14-21;11-13;6-16;8-13;2-16,2-16,4.3,30,-11,1069.82695314
GEMS128,2018_Mar_07_1234,George,sf,spatial_frequency,8,6,2,SimpleHill,0-0,0,34,selected,2-16,3-12;3-16;7-16;10-16;4-17;2-15,10-16,2.61,44,14,1075.99279888
GEMS128,2018_Mar_07_1234,George,sf,spatial_frequency,8,6,2,SimpleHill,0-0,0,35,selected,10-16,6-10;14-20;15-19;13-21;15-11;13-13,15-19,4.13,56,12,1083.68518445
GEMS128,2018_Mar_07_1234,George,sf,spatial_frequency,8,6,2,SimpleHill,0-0,0,36,selected,15-19,16-18;17-14;10-23;15-12;9-18;13-13,9-18,3.33,45,-11,1090.58600792
GEMS128,2018_Mar_07_1234,George,sf,spatial_frequency,8,6,2,SimpleHill,0-0,0,37,selected,9-18,3-22;5-14;8-12;12-13;16-15;3-15,3-22,2.44,40,-5,1096.59834301
GEMS128,2018_Mar_07_1234,George,sf,spatial_frequency,8,6,2,SimpleHill,0-0,0,38,selected,3-22,1-20;7-27;3-27;1-27;2-28;3-30,1-27,3.44,41,1,1103.61111534
GEMS128,2018_Mar_07_1234,George,sf,spatial_frequency,8,6,2,SimpleHill,0-0,0,39,selected,1-27,5-22;5-23;4-28;1-19;7-22;8-29,4-28,3.09,48,7,1110.26910409
GEMS128,2018_Mar_07_1234,George,sf,spatial_frequency,8,6,3,SimpleHill,0-0,0,0,selected,0-0,7-0;0-3;3-1;0-1;1-3;6-5,1-3,2.68,7,7,1122.62150747
GEMS128,2018_Mar_07_1234,George,sf,spatial_frequency,8,6,3,SimpleHill,0-0,0,1,selected,1-3,5-5;8-4;5-8;4-5;6-3;5-1,4-5,4.77,17,10,1130.97740338
GEMS128,2018_Mar_07_1234,George,sf,spatial_frequency,8,6,3,SimpleHill,0-0,0,2,selected,4-5,0-8;5-8;11-5;4-4;6-4;4-7,4-4,4.04,15,-2,1138.59538887
GEMS128,2018_Mar_07_1234,George,sf,spatial_frequency,8,6,3,SimpleHill,0-0,0,3,selected,4-4,7-2;6-10;7-7;2-3;7-9;3-5,7-7,3.89,26,11,1146.04523132
GEMS128,2018_Mar_07_1234,George,sf,spatial_frequency,8,6,3,SimpleHill,0-0,0,4,selected,7-7,3-1;1-8;6-1;10-2;10-0;10-5,6-1,5.62,13,-13,1155.24056783
GEMS128,2018_Mar_07_1234,George,sf,spatial_frequency,8,6,3,SimpleHill,0-0,0,5,selected,6-1,1-0;10-0;6-7;3-6;8-2;6-8,6-8,1.8,26,13,1160.61335055
GEMS128,2018_Mar_07_1234,George,sf,spatial_frequency,8,6,3,SimpleHill,0-0,0,6,selected,6-8,13-10;5-1;9-7;1-7;2-10;6-8,1-7,2.02,15,-11,1166.19429525
GEMS128,2018_Mar_07_1234,George,sf,spatial_frequency,8,6,3,SimpleHill,0-0,0,7,selected,1-7,8-4;2-0;3-2;1-4;2-9;3-8,2-9,1.95,20,5,1171.71720107
GEMS128,2018_Mar_07_1234,George,sf,spatial_frequency,8,6,3,SimpleHill,0-0,0,8,selected,2-9,3-7;1-14;9-8;6-8;10-9;7-9,1-14,3.97,26,6,1179.2632592
GEMS128,2018_Mar_07_1234,George,sf,spatial_frequency,8,6,3,SimpleHill,0-0,0,9,selected,1-14,0-9;7-9;8-12;5-11;3-10;3-8,8-12,6.9,35,9,1189.7294014
GEMS128,2018_Mar_07_1234,George,sf,spatial_frequency,8,6,3,SimpleHill,0-0,0,10,selected,8-12,8-19;2-7;11-15;10-15;2-11;8-7,11-15,4.43,45,10,1197.72541561
GEMS128,2018_Mar_07_1234,George,sf,spatial_frequency,8,6,3,SimpleHill,0-0,0,11,selected,11-15,8-13;15-16;6-19;9-17;10-19;7-16,15-16,4.65,52,7,1205.94584321
GEMS128,2018_Mar_07_1234,George,sf,spatial_frequency,8,6,3,SimpleHill,0-0,0,12,selected,15-16,18-21;15-10;16-15;11-13;13-9;9-19,15-10,1.05,43,-9,1210.57371797
GEMS128,2018_Mar_07_1234,George,sf,spatial_frequency,8,6,3,SimpleHill,0-0,0,13,selected,15-10,10-15;9-9;16-14;17-11;13-15;20-11,16-14,2.97,50,7,1217.11616608
GEMS128,2018_Mar_07_1234,George,sf,spatial_frequency,8,6,3,SimpleHill,0-0,0,14,selected,16-14,13-13;11-15;13-14;9-17;15-14;18-18,11-15,3.77,45,-5,1224.45150661
GEMS128,2018_Mar_07_1234,George,sf,spatial_frequency,8,6,3,SimpleHill,0-0,0,15,selected,11-15,10-8;6-10;11-23;7-9;16-13;7-12,10-8,5.17,32,-13,1233.19232412
GEMS128,2018_Mar_07_1234,George,sf,spatial_frequency,8,6,3,SimpleHill,0-0,0,16,selected,10-8,10-5;8-15;15-5;13-2;17-7;16-5,8-15,2.75,40,8,1239.51443169
GEMS128,2018_Mar_07_1234,George,sf,spatial_frequency,8,6,3,SimpleHill,0-0,0,17,selected,8-15,5-8;4-11;3-18;2-18;4-10;8-18,2-18,4.63,33,-7,1247.70955918
GEMS128,2018_Mar_07_1234,George,sf,spatial_frequency,8,6,3,SimpleHill,0-0,0,18,selected,2-18,8-16;4-22;7-15;5-12;1-13;3-20,8-16,2.95,41,8,1254.22323962
GEMS128,2018_Mar_07_1234,George,sf,spatial_frequency,8,6,3,SimpleHill,0-0,0,19,selected,8-16,8-21;9-9;9-22;6-10;12-22;9-14,9-9,4.14,32,-9,1261.94006042
GEMS128,2018_Mar_07_1234,George,sf,spatial_frequency,8,6,3,SimpleHill,0-0,0,20,selected,9-9,3-13;12-11;14-11;13-12;11-7;4-9,3-13,3.35,28,-4,1268.85445966
GEMS128,2018_Mar_07_1234,George,sf,spatial_frequency,8,6,3,SimpleHill,0-0,0,21,selected,3-13,0-20;2-19;5-9;3-13;8-16;3-10,2-19,3.68,34,6,1276.11134421
GEMS128,2018_Mar_07_1234,George,sf,spatial_frequency,8,6,3,SimpleHill,0-0,0,22,selected,2-19,6-20;5-17;5-23;2-12;9-17;4-19,6-20,3.57,43,9,1283.26400981
GEMS128,2018_Mar_07_1234,George,sf,spatial_frequency,8,6,3,SimpleHill,0-0,0,23,selected,6-20,9-15;12-23;5-24;11-25;5-13;4-19,12-23,4.93,56,13,1291.76105888
GEMS128,2018_Mar_07_1234,George,sf,spatial_frequency,8,6,3,SimpleHill,0-0,0,24,selected,12-23,15-24;11-28;14-30;14-29;13-18;12-30,13-18,6.02,52,-4,1301.33487671
GEMS128,2018_Mar_07_1234,George,sf,spatial_frequency,8,6,3,SimpleHill,0-0,0,25,selected,13-18,13-24;20-20;15-18;17-15;14-20;15-21,15-18,4.32,55,3,1309.22574498
GEMS128,2018_Mar_07_1234,George,sf,spatial_frequency,8,6,3,SimpleHill,0-0,0,26,selected,15-18,18-16;13-15;8-19;11-24;16-11;8-18,8-19,5.23,45,-10,1318.01737014
GEMS128,2018_Mar_07_1234,George,sf,spatial_frequency,8,6,3,SimpleHill,0-0,0,27,selected,8-19,5-25;2-23;3-19;8-19;14-22;9-12,2-23,4.97,39,-6,1326.56128557
GEMS128,2018_Mar_07_1234,George,sf,spatial_frequency,8,6,3,SimpleHill,0-0,0,28,selected,2-23,2-19;0-21;5-25;0-27;3-18;6-17,3-18,2.95,35,-4,1333.08367445
GEMS128,2018_Mar_07_1234,George,sf,spatial_frequency,8,6,3,SimpleHill,0-0,0,29,selected,3-18,6-14;1-21;4-23;1-11;0-11;3-11,1-21,4.26,35,0,1340.90572889
GEMS128,2018_Mar_07_1234,George,sf,spatial_frequency,8,6,3,SimpleHill,0-0,0,30,selected,1-21,6-21;7-21;0-15;0-25;5-15;5-21,7-21,5.06,46,11,1349.52167827
GEMS128,2018_Mar_07_1234,George,sf,spatial_frequency,8,6,3,SimpleHill,0-0,0,31,selected,7-21,2-21;10-14;0-20;12-24;5-20;8-21,0-20,3.4,32,-14,1356.47652153
GEMS128,2018_Mar_07_1234,George,sf,spatial_frequency,8,6,3,SimpleHill,0-0,0,32,selected,0-20,6-25;5-14;7-21;1-21;3-22;2-17,1-21,5.9,35,3,1365.96554235
GEMS128,2018_Mar_07_1234,George,sf,spatial_frequency,8,6,3,SimpleHill,0-0,0,33,selected,1-21,4-21;6-21;4-22;7-26;0-25;0-21,4-22,3.32,42,7,1372.84970372
GEMS128,2018_Mar_07_1234,George,sf,spatial_frequency,8,6,3,SimpleHill,0-0,0,34,selected,4-22,6-25;9-16;9-17;10-22;10-25;11-25,9-16,3.02,43,1,1379.43297229
GEMS128,2018_Mar_07_1234,George,sf,spatial_frequency,8,6,3,SimpleHill,0-0,0,35,selected,9-16,7-19;10-19;5-20;5-16;9-23;6-11,10-19,3.55,48,5,1386.56483796
GEMS128,2018_Mar_07_1234,George,sf,spatial_frequency,8,6,3,SimpleHill,0-0,0,36,selected,10-19,15-18;16-23;12-25;4-23;12-14;8-21,15-18,4.03,55,7,1394.1565797
GEMS128,2018_Mar_07_1234,George,sf,spatial_frequency,8,6,3,SimpleHill,0-0,0,37,selected,15-18,9-17;13-16;19-14;14-23;15-18;11-12,9-17,3.7,44,-11,1401.42738347
GEMS128,2018_Mar_07_1234,George,sf,spatial_frequency,8,6,3,SimpleHill,0-0,0,38,selected,9-17,6-24;12-20;6-12;2-18;9-10;10-15,6-24,5.96,47,3,1410.95990904
GEMS128,2018_Mar_07_1234,George,sf,spatial_frequency,8,6,3,SimpleHill,0-0,0,39,selected,6-24,6-20;6-16;3-19;9-25;6-17;5-27,3-19,2.9,36,-11,1417.410126
GEMS128,2018_Mar_07_1234,George,sf,spatial_frequency,8,6,4,SimpleHill,0-0,0,0,selected,0-0,2-7;0-6;5-4;0-3;1-6;7-3,0-3,3.04,5,5,1429.68458684
GEMS128,2018_Mar_07_1234,George,sf,spatial_frequency,8,6,4,SimpleHill,0-0,0,1,selected,0-3,1-2;1-5;6-2;4-8;5-8;5-9,5-8,5.23,24,19,1438.48795011
GEMS128,2018_Mar_07_1234,George,sf,spatial_frequency,8,6,4,SimpleHill,0-0,0,2,selected,5-8,3-10;2-14;9-6;3-8;5-4;7-1,3-8,3.28,20,-4,1445.33336107
GEMS128,2018_Mar_07_1234,George,sf,spatial_frequency,8,6,4,SimpleHill,0-0,0,3,selected,3-8,8-6;1-9;0-7;1-14;6-15;4-7,1-14,3.05,26,6,1451.96451229
GEMS128,2018_Mar_07_1234,George,sf,spatial_frequency,8,6,4,SimpleHill,0-0,0,4,selected,1-14,1-6;6-15;5-17;5-18;6-13;7-15,5-17,2.47,37,11,1458.00387184
GEMS128,2018_Mar_07_1234,George,sf,spatial_frequency,8,6,4,SimpleHill,0-0,0,5,selected,5-17,4-22;6-20;6-14;10-18;3-14;11-20,3-14,3.62,29,-8,1465.20895485
GEMS128,2018_Mar_07_1234,George,sf,spatial_frequency,8,6,4,SimpleHill,0-0,0,6,selected,3-14,4-8;9-14;9-15;9-19;7-16;1-16,9-19,5.98,47,18,1474.75377389
GEMS128,2018_Mar_07_1234,George,sf,spatial_frequency,8,6,4,SimpleHill,0-0,0,7,selected,9-19,10-21;5-24;3-19;15-24;12-17;12-24,10-21,8.51,51,4,1486.82512733
GEMS128,2018_Mar_07_1234,George,sf,spatial_frequency,8,6,4,SimpleHill,0-0,0,8,selected,10-21,9-16;14-25;10-15;4-26;7-15;16-24,10-15,7.72,43,-8,1498.10900401
GEMS128,2018_Mar_07_1234,George,sf,spatial_frequency,8,6,4,SimpleHill,0-0,0,9,selected,10-15,15-16;6-10;10-18;6-16;15-21;12-17,6-10,0.76,29,-14,1502.43050982
GEMS128,2018_Mar_07_1234,George,sf,spatial_frequency,8,6,4,SimpleHill,0-0,0,10,selected,6-10,1-6;12-8;3-7;4-12;9-12;3-16,3-16,1.76,32,3,1507.76430718
GEMS128,2018_Mar_07_1234,George,sf,spatial_frequency,8,6,4,SimpleHill,0-0,0,11,selected,3-16,6-9;10-14;8-14;8-11;9-13;9-19,8-14,3.01,38,6,1514.3483302
GEMS128,2018_Mar_07_1234,George,sf,spatial_frequency,8,6,4,SimpleHill,0-0,0,12,selected,8-14,8-21;4-20;3-11;11-13;6-14;14-11,8-21,3.97,47,9,1521.89689849
GEMS128,2018_Mar_07_1234,George,sf,spatial_frequency,8,6,4,SimpleHill,0-0,0,13,selected,8-21,4-23;4-27;6-15;9-24;9-26;9-18,6-15,6.21,36,-11,1531.68743086
GEMS128,2018_Mar_07_1234,George,sf,spatial_frequency,8,6,4,SimpleHill,0-0,0,14,selected,6-15,1-10;1-20;0-18;4-21;2-15;12-13,0-18,2.25,29,-7,1537.49821932
GEMS128,2018_Mar_07_1234,George,sf,spatial_frequency,8,6,4,SimpleHill,0-0,0,15,selected,0-18,4-13;2-21;6-20;7-18;7-20;0-26,7-18,1.36,42,13,1542.4343935
GEMS128,2018_Mar_07_1234,George,sf,spatial_frequency,8,6,4,SimpleHill,0-0,0,16,selected,7-18,11-19;9-12;8-22;2-22;4-18;12-16,8-22,2.88,49,7,1548.86977257
GEMS128,2018_Mar_07_1234,George,sf,spatial_frequency,8,6,4,SimpleHill,0-0,0,17,selected,8-22,9-21;13-23;3-25;7-20;14-19;15-24,7-20,1.1,45,-4,1553.53660483
GEMS128,2018_Mar_07_1234,George,sf,spatial_frequency,8,6,4,SimpleHill,0-0,0,18,selected,7-20,2-22;8-18;6-26;7-12;4-21;6-19,8-18,1.16,44,-1,1558.26043182
GEMS128,2018_Mar_07_1234,George,sf,spatial_frequency,8,6,4,SimpleHill,0-0,0,19,selected,8-18,14-15;9-11;3-17;10-24;3-18;12-12,3-17,1.93,34,-10,1563.72884732
GEMS128,2018_Mar_07_1234,George,sf,spatial_frequency,8,6,4,SimpleHill,0-0,0,20,selected,3-17,4-13;5-13;7-17;1-12;6-18;3-21,5-13,2.24,32,-2,1569.54174744
GEMS128,2018_Mar_07_1234,George,sf,spatial_frequency,8,6,4,SimpleHill,0-0,0,21,selected,5-13,12-12;8-10;0-9;10-19;8-13;1-12,1-12,0.56,23,-9,1573.64414218
GEMS128,2018_Mar_07_1234,George,sf,spatial_frequency,8,6,4,SimpleHill,0-0,0,22,selected,1-12,0-18;7-10;5-11;2-18;2-15;2-8,2-18,1.29,33,10,1578.50310362
GEMS128,2018_Mar_07_1234,George,sf,spatial_frequency,8,6,4,SimpleHill,0-0,0,23,selected,2-18,10-18;0-13;5-16;1-21;1-25;7-21,10-18,1.47,47,14,1583.55647842
GEMS128,2018_Mar_07_1234,George,sf,spatial_frequency,8,6,4,SimpleHill,0-0,0,24,selected,10-18,9-17;17-21;6-15;11-25;6-18;9-22,6-15,1.14,36,-11,1588.25685446
GEMS128,2018_Mar_07_1234,George,sf,spatial_frequency,8,6,4,SimpleHill,0-0,0,25,selected,6-15,0-14;3-15;0-16;6-14;5-15;8-19,0-14,1.12,24,-12,1592.95554362
GEMS128,2018_Mar_07_1234,George,sf,spatial_frequency,8,6,4,SimpleHill,0-0,0,26,selected,0-14,1-15;6-19;5-10;0-22;0-19;5-13,0-19,2.86,30,6,1599.38084329
GEMS128,2018_Mar_07_1234,George,sf,spatial_frequency,8,6,4,SimpleHill,0-0,0,27,selected,0-19,1-25;7-19;2-18;6-23;0-24;4-17,7-19,1.14,43,13,1604.10000461
GEMS128,2018_Mar_07_1234,George,sf,spatial_frequency,8,6,4,SimpleHill,0-0,0,28,selected,7-19,3-25;8-22;4-17;12-17;0-19;7-26,12-17,1.81,49,6,1609.48124289
GEMS128,2018_Mar_07_1234,George,sf,spatial_frequency,8,6,4,SimpleHill,0-0,0,29,selected,12-17,16-14;12-23;11-20;15-16;8-11;11-12,16-14,0.98,50,1,1614.02239816
GEMS128,2018_Mar_07_1234,George,sf,spatial_frequency,8,6,4,SimpleHill,0-0,0,30,selected,16-14,17-9;10-19;14-11;10-17;13-17;11-14,10-19,2.53,48,-2,1620.13268574
GEMS128,2018_Mar_07_1234,George,sf,spatial_frequency,8,6,4,SimpleHill,0-0,0,31,selected,10-19,15-23;12-19;7-21;12-25;5-19;4-21,5-19,0.86,40,-8,1624.55085631
GEMS128,2018_Mar_07_1234,George,sf,spatial_frequency,8,6,4,SimpleHill,0-0,0,32,selected,5-19,10-25;6-23;7-13;3-25;10-23;8-12,7-13,2.76,35,-5,1630.87452562
GEMS128,2018_Mar_07_1234,George,sf,spatial_frequency,8,6,4,SimpleHill,0-0,0,33,selected,7-13,14-15;0-16;5-20;7-18;8-16;11-11,5-20,2.6,41,6,1637.0190932
GEMS128,2018_Mar_07_1234,George,sf,spatial_frequency,8,6,4,SimpleHill,0-0,0,34,selected,5-20,10-20;5-19;8-26;8-20;3-21;7-27,5-19,3.09,40,-1,1643.67517355
GEMS128,2018_Mar_07_1234,George,sf,spatial_frequency,8,6,4,SimpleHill,0-0,0,35,selected,5-19,8-17;10-18;6-25;2-16;12-19;1-22,8-17,2.29,42,2,1649.53447781
GEMS128,2018_Mar_07_1234,George,sf,spatial_frequency,8,6,4,SimpleHill,0-0,0,36,selected,8-17,10-17;4-21;5-13;15-17;4-19;8-12,4-19,3.39,38,-4,1656.48896353
GEMS128,2018_Mar_07_1234,George,sf,spatial_frequency,8,6,4,SimpleHill,0-0,0,37,selected,4-19,2-18;10-18;10-21;9-20;6-22;8-25,10-18,2.87,47,9,1662.93678587
GEMS128,2018_Mar_07_1234,George,sf,spatial_frequency,8,6,4,SimpleHill,0-0,0,38,selected,10-18,12-19;9-13;17-15;14-12;7-18;8-16,9-13,3.29,39,-8,1669.78165428
GEMS128,2018_Mar_07_1234,George,sf,spatial_frequency,8,6,4,SimpleHill,0-0,0,39,selected,9-13,11-15;3-12;8-15;2-16;13-16;2-10,8-15,2.39,40,1,1675.74601837
