subj_id,date,computer,experimenter,instructions,sight_radius,n_gabors,start_pos_list_ix,start_pos_list,landscape_ix,landscape_name,starting_pos,starting_score,trial,feedback,pos,stims,selected,rt,score,delta,exp_time
GEMS220,2018_Apr_09_1539,George,GH,spatial_frequency,8,6,10,27-67;14-69;29-41;20-51,0,SpatialFrequencyBias,0-0,0,0,training,0-0,5-3;5-4;4-2;0-6;6-5;3-6,0-6,12.24,22,22,170.744550335
GEMS220,2018_Apr_09_1539,George,GH,spatial_frequency,8,6,10,27-67;14-69;29-41;20-51,0,SpatialFrequencyBias,0-0,0,1,training,0-6,1-12;6-3;1-10;0-4;7-6;2-6,1-12,3.66,42,20,182.166110078
GEMS220,2018_Apr_09_1539,George,GH,spatial_frequency,8,6,10,27-67;14-69;29-41;20-51,0,SpatialFrequencyBias,0-0,0,2,training,1-12,3-19;7-13;3-18;4-13;4-6;4-5,7-13,7.2,45,3,194.576780894
GEMS220,2018_Apr_09_1539,George,GH,spatial_frequency,8,6,10,27-67;14-69;29-41;20-51,0,SpatialFrequencyBias,0-0,0,3,training,7-13,10-6;11-17;7-8;4-19;10-16;14-10,11-17,4.56,56,11,209.531380488
GEMS220,2018_Apr_09_1539,George,GH,spatial_frequency,8,6,10,27-67;14-69;29-41;20-51,0,SpatialFrequencyBias,0-0,0,4,training,11-17,6-17;17-14;8-12;9-20;15-19;14-18,17-14,3.82,48,-8,217.649387614
GEMS220,2018_Apr_09_1539,George,GH,spatial_frequency,8,6,10,27-67;14-69;29-41;20-51,0,SpatialFrequencyBias,0-0,0,5,training,17-14,17-17;18-10;19-9;12-20;16-17;15-14,16-17,7.88,56,8,231.460573652
GEMS220,2018_Apr_09_1539,George,GH,spatial_frequency,8,6,10,27-67;14-69;29-41;20-51,0,SpatialFrequencyBias,0-0,0,6,training,16-17,9-20;11-20;16-22;13-19;11-22;23-17,11-20,6.28,64,8,240.949966886
GEMS220,2018_Apr_09_1539,George,GH,spatial_frequency,8,6,10,27-67;14-69;29-41;20-51,0,SpatialFrequencyBias,0-0,0,7,training,11-20,6-17;11-23;9-20;17-21;12-19;12-27,6-17,6.99,56,-8,252.326283069
GEMS220,2018_Apr_09_1539,George,GH,spatial_frequency,8,6,10,27-67;14-69;29-41;20-51,0,SpatialFrequencyBias,0-0,0,8,training,6-17,3-18;4-22;6-14;10-19;6-19;8-11,3-18,10.24,59,3,267.866314714
GEMS220,2018_Apr_09_1539,George,GH,spatial_frequency,8,6,10,27-67;14-69;29-41;20-51,0,SpatialFrequencyBias,0-0,0,9,training,3-18,9-20;9-13;1-20;3-25;3-13;7-21,1-20,8.36,64,5,280.266140455
GEMS220,2018_Apr_09_1539,George,GH,spatial_frequency,8,6,10,27-67;14-69;29-41;20-51,0,SpatialFrequencyBias,0-0,0,10,training,1-20,6-25;8-23;0-14;2-26;5-19;4-21,0-14,4.75,48,-16,288.617065892
GEMS220,2018_Apr_09_1539,George,GH,spatial_frequency,8,6,10,27-67;14-69;29-41;20-51,0,SpatialFrequencyBias,0-0,0,11,training,0-14,5-8;3-19;3-20;3-13;3-21;1-16,3-19,6.0,61,13,301.998613037
GEMS220,2018_Apr_09_1539,George,GH,spatial_frequency,8,6,10,27-67;14-69;29-41;20-51,0,SpatialFrequencyBias,0-0,0,12,training,3-19,8-18;8-13;5-19;2-20;4-12;2-25,8-18,2.76,59,-2,309.425352847
GEMS220,2018_Apr_09_1539,George,GH,spatial_frequency,8,6,10,27-67;14-69;29-41;20-51,0,SpatialFrequencyBias,0-0,0,13,training,8-18,9-22;3-20;9-15;7-11;5-22;13-16,3-20,5.86,64,5,319.482664237
GEMS220,2018_Apr_09_1539,George,GH,spatial_frequency,8,6,10,27-67;14-69;29-41;20-51,0,SpatialFrequencyBias,0-0,0,14,training,3-20,3-26;5-13;1-20;2-16;8-15;7-15,8-15,3.33,51,-13,328.539694266
GEMS220,2018_Apr_09_1539,George,GH,spatial_frequency,8,6,10,27-67;14-69;29-41;20-51,0,SpatialFrequencyBias,0-0,0,15,training,8-15,12-20;15-16;8-20;11-18;3-19;14-20,11-18,4.36,59,8,339.359474164
GEMS220,2018_Apr_09_1539,George,GH,spatial_frequency,8,6,10,27-67;14-69;29-41;20-51,0,SpatialFrequencyBias,0-0,0,16,training,11-18,14-13;14-23;13-19;8-24;8-25;9-21,14-13,5.21,45,-14,348.752122777
GEMS220,2018_Apr_09_1539,George,GH,spatial_frequency,8,6,10,27-67;14-69;29-41;20-51,0,SpatialFrequencyBias,0-0,0,17,training,14-13,20-14;20-12;20-9;11-17;9-16;8-15,9-16,7.25,53,8,361.074695327
GEMS220,2018_Apr_09_1539,George,GH,spatial_frequency,8,6,10,27-67;14-69;29-41;20-51,0,SpatialFrequencyBias,0-0,0,18,training,9-16,14-10;9-11;15-19;13-10;8-9;9-8,15-19,3.1,61,8,368.282273148
GEMS220,2018_Apr_09_1539,George,GH,spatial_frequency,8,6,10,27-67;14-69;29-41;20-51,0,SpatialFrequencyBias,0-0,0,19,training,15-19,18-14;20-16;20-17;18-24;9-15;18-12,18-14,5.0,48,-13,378.317636074
GEMS220,2018_Apr_09_1539,George,GH,spatial_frequency,8,6,10,27-67;14-69;29-41;20-51,0,SpatialFrequencyBias,0-0,0,20,training,18-14,14-13;11-17;23-19;18-14;18-7;17-16,18-7,3.7,26,-22,386.225168537
GEMS220,2018_Apr_09_1539,George,GH,spatial_frequency,8,6,10,27-67;14-69;29-41;20-51,0,SpatialFrequencyBias,0-0,0,21,training,18-7,23-6;15-4;16-7;22-10;21-9;25-10,22-10,3.27,36,10,393.601782406
GEMS220,2018_Apr_09_1539,George,GH,spatial_frequency,8,6,10,27-67;14-69;29-41;20-51,0,SpatialFrequencyBias,0-0,0,22,training,22-10,16-11;17-16;15-11;19-16;28-10;25-16,19-16,6.09,53,17,402.977937903
GEMS220,2018_Apr_09_1539,George,GH,spatial_frequency,8,6,10,27-67;14-69;29-41;20-51,0,SpatialFrequencyBias,0-0,0,23,training,19-16,25-13;22-16;14-13;18-13;23-12;13-18,13-18,3.39,59,6,410.497050182
GEMS220,2018_Apr_09_1539,George,GH,spatial_frequency,8,6,10,27-67;14-69;29-41;20-51,0,SpatialFrequencyBias,0-0,0,24,training,13-18,13-26;10-16;18-23;6-17;16-16;10-24,6-17,4.41,56,-3,418.030040738
GEMS220,2018_Apr_09_1539,George,GH,spatial_frequency,8,6,10,27-67;14-69;29-41;20-51,0,SpatialFrequencyBias,0-0,0,25,training,6-17,6-16;6-20;3-15;3-16;3-24;4-12,6-16,7.46,53,-3,429.244513684
GEMS220,2018_Apr_09_1539,George,GH,spatial_frequency,8,6,10,27-67;14-69;29-41;20-51,0,SpatialFrequencyBias,0-0,0,26,training,6-16,5-22;8-18;10-19;7-16;6-13;9-10,7-16,2.55,53,0,434.835811121
GEMS220,2018_Apr_09_1539,George,GH,spatial_frequency,8,6,10,27-67;14-69;29-41;20-51,0,SpatialFrequencyBias,0-0,0,27,training,7-16,11-10;7-22;10-12;6-20;8-12;9-14,6-20,1.45,64,11,438.902720503
GEMS220,2018_Apr_09_1539,George,GH,spatial_frequency,8,6,10,27-67;14-69;29-41;20-51,0,SpatialFrequencyBias,0-0,0,28,training,6-20,6-18;11-19;5-23;7-19;11-21;7-26,7-19,1.94,61,-3,443.80146353
GEMS220,2018_Apr_09_1539,George,GH,spatial_frequency,8,6,10,27-67;14-69;29-41;20-51,0,SpatialFrequencyBias,0-0,0,29,training,7-19,11-24;13-20;14-19;13-18;6-12;8-24,13-18,1.79,59,-2,448.076261223
GEMS220,2018_Apr_09_1539,George,GH,spatial_frequency,8,6,10,27-67;14-69;29-41;20-51,1,SimpleHill,27-67,83,0,selected,27-67,24-70;22-66;25-62;25-67;24-67;21-70,21-70,2.2,75,-8,464.441227224
GEMS220,2018_Apr_09_1539,George,GH,spatial_frequency,8,6,10,27-67;14-69;29-41;20-51,1,SimpleHill,27-67,83,1,selected,21-70,23-68;26-66;16-69;19-63;23-67;15-66,16-69,1.43,69,-6,469.455595564
GEMS220,2018_Apr_09_1539,George,GH,spatial_frequency,8,6,10,27-67;14-69;29-41;20-51,1,SimpleHill,27-67,83,2,selected,16-69,16-62;9-70;21-70;11-67;23-70;12-70,16-62,1.87,74,5,474.912134762
GEMS220,2018_Apr_09_1539,George,GH,spatial_frequency,8,6,10,27-67;14-69;29-41;20-51,1,SimpleHill,27-67,83,3,selected,16-62,14-63;22-67;19-55;13-68;10-64;19-66,13-68,1.42,66,-8,479.906137497
GEMS220,2018_Apr_09_1539,George,GH,spatial_frequency,8,6,10,27-67;14-69;29-41;20-51,1,SimpleHill,27-67,83,4,selected,13-68,13-69;16-63;16-64;19-66;17-70;6-69,17-70,1.88,70,4,485.349949153
GEMS220,2018_Apr_09_1539,George,GH,spatial_frequency,8,6,10,27-67;14-69;29-41;20-51,1,SimpleHill,27-67,83,5,selected,17-70,11-70;22-70;18-66;24-69;14-69;10-70,22-70,0.66,76,6,489.573921182
GEMS220,2018_Apr_09_1539,George,GH,spatial_frequency,8,6,10,27-67;14-69;29-41;20-51,1,SimpleHill,27-67,83,6,selected,22-70,21-65;21-70;27-64;26-66;28-67;18-69,26-66,1.02,83,7,494.144333824
GEMS220,2018_Apr_09_1539,George,GH,spatial_frequency,8,6,10,27-67;14-69;29-41;20-51,1,SimpleHill,27-67,83,7,selected,26-66,30-61;19-68;30-60;27-64;19-64;25-61,30-61,0.44,89,6,498.134963098
GEMS220,2018_Apr_09_1539,George,GH,spatial_frequency,8,6,10,27-67;14-69;29-41;20-51,1,SimpleHill,27-67,83,8,selected,30-61,33-66;27-56;34-60;32-67;28-66;30-58,34-60,0.46,92,3,502.152793565
GEMS220,2018_Apr_09_1539,George,GH,spatial_frequency,8,6,10,27-67;14-69;29-41;20-51,1,SimpleHill,27-67,83,9,selected,34-60,33-61;40-55;28-57;42-60;29-54;37-62,37-62,1.3,93,1,507.009337756
GEMS220,2018_Apr_09_1539,George,GH,spatial_frequency,8,6,10,27-67;14-69;29-41;20-51,1,SimpleHill,27-67,83,10,selected,37-62,42-62;32-58;35-67;36-64;43-67;32-60,36-64,1.27,92,-1,511.842474179
GEMS220,2018_Apr_09_1539,George,GH,spatial_frequency,8,6,10,27-67;14-69;29-41;20-51,1,SimpleHill,27-67,83,11,selected,36-64,39-67;29-63;42-66;42-62;41-64;36-67,42-66,0.76,93,1,516.153748082
GEMS220,2018_Apr_09_1539,George,GH,spatial_frequency,8,6,10,27-67;14-69;29-41;20-51,1,SimpleHill,27-67,83,12,selected,42-66,43-61;44-63;41-68;46-66;39-65;40-59,43-61,0.75,96,3,520.459645702
GEMS220,2018_Apr_09_1539,George,GH,spatial_frequency,8,6,10,27-67;14-69;29-41;20-51,1,SimpleHill,27-67,83,13,selected,43-61,36-63;42-57;43-69;49-60;39-63;43-67,49-60,1.1,97,1,525.12706416
GEMS220,2018_Apr_09_1539,George,GH,spatial_frequency,8,6,10,27-67;14-69;29-41;20-51,1,SimpleHill,27-67,83,14,selected,49-60,52-66;44-55;48-66;54-55;51-61;45-66,45-66,0.65,94,-3,529.317858219
GEMS220,2018_Apr_09_1539,George,GH,spatial_frequency,8,6,10,27-67;14-69;29-41;20-51,1,SimpleHill,27-67,83,15,selected,45-66,39-68;53-66;44-59;46-70;40-66;49-68,53-66,0.98,94,0,533.865018657
GEMS220,2018_Apr_09_1539,George,GH,spatial_frequency,8,6,10,27-67;14-69;29-41;20-51,1,SimpleHill,27-67,83,16,selected,53-66,53-63;50-59;52-64;54-63;55-62;54-67,55-62,1.02,96,2,538.448677711
GEMS220,2018_Apr_09_1539,George,GH,spatial_frequency,8,6,10,27-67;14-69;29-41;20-51,1,SimpleHill,27-67,83,17,selected,55-62,52-67;59-62;59-58;60-65;49-66;52-58,59-58,0.25,97,1,542.252795133
GEMS220,2018_Apr_09_1539,George,GH,spatial_frequency,8,6,10,27-67;14-69;29-41;20-51,1,SimpleHill,27-67,83,18,selected,59-58,53-58;56-62;64-64;58-58;59-57;65-56,53-58,0.81,98,1,546.654814472
GEMS220,2018_Apr_09_1539,George,GH,spatial_frequency,8,6,10,27-67;14-69;29-41;20-51,1,SimpleHill,27-67,83,19,selected,53-58,47-54;60-55;48-54;57-62;46-55;51-64,57-62,0.7,96,-2,550.904914101
GEMS220,2018_Apr_09_1539,George,GH,spatial_frequency,8,6,10,27-67;14-69;29-41;20-51,1,SimpleHill,27-67,83,20,selected,57-62,59-67;52-64;58-62;61-65;62-57;61-66,59-67,2.92,92,-4,557.377934574
GEMS220,2018_Apr_09_1539,George,GH,spatial_frequency,8,6,10,27-67;14-69;29-41;20-51,1,SimpleHill,27-67,83,21,selected,59-67,57-65;63-62;62-64;51-67;58-61;52-65,51-67,2.63,94,2,563.576614766
GEMS220,2018_Apr_09_1539,George,GH,spatial_frequency,8,6,10,27-67;14-69;29-41;20-51,1,SimpleHill,27-67,83,22,selected,51-67,57-63;55-70;51-59;53-67;52-62;45-64,55-70,3.68,91,-3,570.835206465
GEMS220,2018_Apr_09_1539,George,GH,spatial_frequency,8,6,10,27-67;14-69;29-41;20-51,1,SimpleHill,27-67,83,23,selected,55-70,50-64;56-63;49-70;55-65;51-64;52-67,50-64,2.02,96,5,576.423344262
GEMS220,2018_Apr_09_1539,George,GH,spatial_frequency,8,6,10,27-67;14-69;29-41;20-51,1,SimpleHill,27-67,83,24,selected,50-64,43-62;52-70;49-64;52-59;54-65;51-63,52-59,3.72,98,2,583.711241766
GEMS220,2018_Apr_09_1539,George,GH,spatial_frequency,8,6,10,27-67;14-69;29-41;20-51,1,SimpleHill,27-67,83,25,selected,52-59,49-60;54-66;52-58;59-56;56-65;58-57,56-65,0.85,94,-4,588.122202586
GEMS220,2018_Apr_09_1539,George,GH,spatial_frequency,8,6,10,27-67;14-69;29-41;20-51,1,SimpleHill,27-67,83,26,selected,56-65,51-59;55-69;62-69;63-62;50-66;58-59,62-69,1.28,89,-5,592.978249353
GEMS220,2018_Apr_09_1539,George,GH,spatial_frequency,8,6,10,27-67;14-69;29-41;20-51,1,SimpleHill,27-67,83,27,selected,62-69,58-68;66-70;63-70;55-69;60-70;59-64,58-68,0.96,92,3,597.520057194
GEMS220,2018_Apr_09_1539,George,GH,spatial_frequency,8,6,10,27-67;14-69;29-41;20-51,1,SimpleHill,27-67,83,28,selected,58-68,60-65;61-63;63-70;64-67;60-69;51-67,60-69,3.17,90,-2,604.254970166
GEMS220,2018_Apr_09_1539,George,GH,spatial_frequency,8,6,10,27-67;14-69;29-41;20-51,1,SimpleHill,27-67,83,29,selected,60-69,55-65;59-62;52-69;62-70;56-63;55-66,59-62,3.14,95,5,610.960407683
GEMS220,2018_Apr_09_1539,George,GH,spatial_frequency,8,6,10,27-67;14-69;29-41;20-51,1,SimpleHill,27-67,83,30,selected,59-62,60-64;62-62;59-66;64-57;58-66;53-58,58-66,1.82,93,-2,616.345565798
GEMS220,2018_Apr_09_1539,George,GH,spatial_frequency,8,6,10,27-67;14-69;29-41;20-51,1,SimpleHill,27-67,83,31,selected,58-66,64-65;58-68;58-62;54-62;63-62;62-67,58-62,0.32,95,2,620.241605958
GEMS220,2018_Apr_09_1539,George,GH,spatial_frequency,8,6,10,27-67;14-69;29-41;20-51,1,SimpleHill,27-67,83,32,selected,58-62,57-59;64-66;60-66;54-62;55-67;59-67,54-62,0.47,96,1,624.255762396
GEMS220,2018_Apr_09_1539,George,GH,spatial_frequency,8,6,10,27-67;14-69;29-41;20-51,1,SimpleHill,27-67,83,33,selected,54-62,53-63;56-64;58-66;60-65;56-69;59-67,59-67,0.76,92,-4,628.579131018
GEMS220,2018_Apr_09_1539,George,GH,spatial_frequency,8,6,10,27-67;14-69;29-41;20-51,1,SimpleHill,27-67,83,34,selected,59-67,57-60;56-70;57-68;63-70;54-63;58-68,57-60,0.41,97,5,632.572371611
GEMS220,2018_Apr_09_1539,George,GH,spatial_frequency,8,6,10,27-67;14-69;29-41;20-51,1,SimpleHill,27-67,83,35,selected,57-60,50-58;63-57;56-58;54-57;58-59;57-68,63-57,0.42,95,-2,636.560041625
GEMS220,2018_Apr_09_1539,George,GH,spatial_frequency,8,6,10,27-67;14-69;29-41;20-51,1,SimpleHill,27-67,83,36,selected,63-57,61-58;56-60;62-64;59-51;65-51;60-61,62-64,0.38,93,-2,640.513627484
GEMS220,2018_Apr_09_1539,George,GH,spatial_frequency,8,6,10,27-67;14-69;29-41;20-51,1,SimpleHill,27-67,83,37,selected,62-64,58-61;56-60;65-67;68-63;65-61;60-67,56-60,0.23,97,4,644.323120549
GEMS220,2018_Apr_09_1539,George,GH,spatial_frequency,8,6,10,27-67;14-69;29-41;20-51,1,SimpleHill,27-67,83,38,selected,56-60,59-58;52-54;56-52;58-60;56-65;56-57,58-60,0.89,96,-1,648.761238709
GEMS220,2018_Apr_09_1539,George,GH,spatial_frequency,8,6,10,27-67;14-69;29-41;20-51,1,SimpleHill,27-67,83,39,selected,58-60,58-57;65-60;54-62;54-64;58-58;60-58,58-57,0.67,97,1,653.01997381
GEMS220,2018_Apr_09_1539,George,GH,spatial_frequency,8,6,10,27-67;14-69;29-41;20-51,2,SimpleHill,14-69,66,0,selected,14-69,12-67;15-70;7-70;13-63;15-62;9-64,13-63,1.71,69,3,671.039163712
GEMS220,2018_Apr_09_1539,George,GH,spatial_frequency,8,6,10,27-67;14-69;29-41;20-51,2,SimpleHill,14-69,66,1,selected,13-63,15-67;8-67;8-61;7-58;13-69;19-66,8-67,1.0,58,-11,675.60805303
GEMS220,2018_Apr_09_1539,George,GH,spatial_frequency,8,6,10,27-67;14-69;29-41;20-51,2,SimpleHill,14-69,66,2,selected,8-67,0-67;9-67;3-70;2-67;4-70;3-68,3-68,0.28,49,-9,679.441537715
GEMS220,2018_Apr_09_1539,George,GH,spatial_frequency,8,6,10,27-67;14-69;29-41;20-51,2,SimpleHill,14-69,66,3,selected,3-68,8-70;10-65;3-65;4-67;5-67;2-63,3-65,0.22,51,2,683.209129952
GEMS220,2018_Apr_09_1539,George,GH,spatial_frequency,8,6,10,27-67;14-69;29-41;20-51,2,SimpleHill,14-69,66,4,selected,3-65,1-64;9-61;6-69;7-66;4-63;2-62,4-63,1.2,54,3,687.968827413
GEMS220,2018_Apr_09_1539,George,GH,spatial_frequency,8,6,10,27-67;14-69;29-41;20-51,2,SimpleHill,14-69,66,5,selected,4-63,0-66;3-68;5-57;8-63;0-61;3-61,0-66,1.77,44,-10,693.319463486
GEMS220,2018_Apr_09_1539,George,GH,spatial_frequency,8,6,10,27-67;14-69;29-41;20-51,2,SimpleHill,14-69,66,6,selected,0-66,7-68;0-68;4-70;5-65;0-64;3-66,0-68,1.24,43,-1,698.123364204
GEMS220,2018_Apr_09_1539,George,GH,spatial_frequency,8,6,10,27-67;14-69;29-41;20-51,2,SimpleHill,14-69,66,7,selected,0-68,0-66;4-66;5-64;5-65;6-65;2-69,6-65,1.17,56,13,702.867287477
GEMS220,2018_Apr_09_1539,George,GH,spatial_frequency,8,6,10,27-67;14-69;29-41;20-51,2,SimpleHill,14-69,66,8,selected,6-65,12-66;9-63;12-63;11-66;1-69;3-69,11-66,0.74,64,8,707.184496866
GEMS220,2018_Apr_09_1539,George,GH,spatial_frequency,8,6,10,27-67;14-69;29-41;20-51,2,SimpleHill,14-69,66,9,selected,11-66,8-63;10-66;13-69;18-66;15-62;12-69,12-69,0.76,63,-1,711.489107712
GEMS220,2018_Apr_09_1539,George,GH,spatial_frequency,8,6,10,27-67;14-69;29-41;20-51,2,SimpleHill,14-69,66,10,selected,12-69,5-70;7-65;10-70;10-64;17-67;17-70,7-65,0.44,58,-5,715.475304657
GEMS220,2018_Apr_09_1539,George,GH,spatial_frequency,8,6,10,27-67;14-69;29-41;20-51,2,SimpleHill,14-69,66,11,selected,7-65,14-68;7-67;13-69;5-59;7-66;2-70,13-69,0.38,65,7,719.425957503
GEMS220,2018_Apr_09_1539,George,GH,spatial_frequency,8,6,10,27-67;14-69;29-41;20-51,2,SimpleHill,14-69,66,12,selected,13-69,16-69;14-69;19-67;16-70;12-62;16-64,16-69,0.41,69,4,723.391976098
GEMS220,2018_Apr_09_1539,George,GH,spatial_frequency,8,6,10,27-67;14-69;29-41;20-51,2,SimpleHill,14-69,66,13,selected,16-69,18-68;22-69;14-62;22-64;21-64;11-63,14-62,0.74,71,2,727.691719287
GEMS220,2018_Apr_09_1539,George,GH,spatial_frequency,8,6,10,27-67;14-69;29-41;20-51,2,SimpleHill,14-69,66,14,selected,14-62,13-66;10-64;12-62;13-68;6-62;14-68,13-68,1.2,66,-5,732.456525114
GEMS220,2018_Apr_09_1539,George,GH,spatial_frequency,8,6,10,27-67;14-69;29-41;20-51,2,SimpleHill,14-69,66,15,selected,13-68,10-69;14-69;5-68;8-65;16-65;9-64,14-69,0.4,66,0,736.410524533
GEMS220,2018_Apr_09_1539,George,GH,spatial_frequency,8,6,10,27-67;14-69;29-41;20-51,2,SimpleHill,14-69,66,16,selected,14-69,17-63;20-66;19-66;15-64;12-63;14-68,12-63,0.87,67,1,740.846865856
GEMS220,2018_Apr_09_1539,George,GH,spatial_frequency,8,6,10,27-67;14-69;29-41;20-51,2,SimpleHill,14-69,66,17,selected,12-63,16-57;7-65;16-60;15-67;16-64;16-66,16-57,0.31,75,8,744.720374342
GEMS220,2018_Apr_09_1539,George,GH,spatial_frequency,8,6,10,27-67;14-69;29-41;20-51,2,SimpleHill,14-69,66,18,selected,16-57,14-56;10-53;21-53;20-56;17-58;12-57,21-53,0.62,83,8,748.923625464
GEMS220,2018_Apr_09_1539,George,GH,spatial_frequency,8,6,10,27-67;14-69;29-41;20-51,2,SimpleHill,14-69,66,19,selected,21-53,21-55;19-48;28-56;24-59;16-58;20-58,24-59,0.73,84,1,753.220858483
GEMS220,2018_Apr_09_1539,George,GH,spatial_frequency,8,6,10,27-67;14-69;29-41;20-51,2,SimpleHill,14-69,66,20,selected,24-59,27-58;26-63;25-62;29-53;29-61;21-52,29-61,0.49,88,4,757.26925208
GEMS220,2018_Apr_09_1539,George,GH,spatial_frequency,8,6,10,27-67;14-69;29-41;20-51,2,SimpleHill,14-69,66,21,selected,29-61,32-55;30-57;26-60;22-64;33-64;26-62,26-62,0.18,85,-3,761.003255347
GEMS220,2018_Apr_09_1539,George,GH,spatial_frequency,8,6,10,27-67;14-69;29-41;20-51,2,SimpleHill,14-69,66,22,selected,26-62,32-59;32-61;19-60;29-57;33-62;25-59,32-59,0.25,91,6,764.818107411
GEMS220,2018_Apr_09_1539,George,GH,spatial_frequency,8,6,10,27-67;14-69;29-41;20-51,2,SimpleHill,14-69,66,23,selected,32-59,27-54;31-59;34-55;31-54;32-51;29-66,31-59,0.19,91,0,768.569818229
GEMS220,2018_Apr_09_1539,George,GH,spatial_frequency,8,6,10,27-67;14-69;29-41;20-51,2,SimpleHill,14-69,66,24,selected,31-59,33-65;33-58;34-66;23-59;31-56;29-62,34-66,0.45,89,-2,772.618938757
GEMS220,2018_Apr_09_1539,George,GH,spatial_frequency,8,6,10,27-67;14-69;29-41;20-51,2,SimpleHill,14-69,66,25,selected,34-66,39-70;33-67;40-65;40-61;31-70;28-65,40-61,0.47,95,6,776.632681634
GEMS220,2018_Apr_09_1539,George,GH,spatial_frequency,8,6,10,27-67;14-69;29-41;20-51,2,SimpleHill,14-69,66,26,selected,40-61,44-65;43-67;47-61;47-62;38-57;46-57,38-57,0.6,96,1,780.800664897
GEMS220,2018_Apr_09_1539,George,GH,spatial_frequency,8,6,10,27-67;14-69;29-41;20-51,2,SimpleHill,14-69,66,27,selected,38-57,44-58;35-50;43-58;39-63;32-54;40-62,40-62,1.05,95,-1,785.431296656
GEMS220,2018_Apr_09_1539,George,GH,spatial_frequency,8,6,10,27-67;14-69;29-41;20-51,2,SimpleHill,14-69,66,28,selected,40-62,40-60;43-63;44-58;46-66;35-60;46-57,40-60,0.36,96,1,789.366532857
GEMS220,2018_Apr_09_1539,George,GH,spatial_frequency,8,6,10,27-67;14-69;29-41;20-51,2,SimpleHill,14-69,66,29,selected,40-60,43-53;42-62;42-60;43-54;42-59;38-61,42-62,0.32,95,-1,793.261794231
GEMS220,2018_Apr_09_1539,George,GH,spatial_frequency,8,6,10,27-67;14-69;29-41;20-51,2,SimpleHill,14-69,66,30,selected,42-62,41-69;37-65;36-60;38-62;47-62;42-63,36-60,0.31,94,-1,797.12094398
GEMS220,2018_Apr_09_1539,George,GH,spatial_frequency,8,6,10,27-67;14-69;29-41;20-51,2,SimpleHill,14-69,66,31,selected,36-60,39-60;39-53;39-55;31-55;34-66;35-63,39-53,0.25,97,3,800.913738428
GEMS220,2018_Apr_09_1539,George,GH,spatial_frequency,8,6,10,27-67;14-69;29-41;20-51,2,SimpleHill,14-69,66,32,selected,39-53,33-52;38-47;45-53;43-51;42-47;39-56,42-47,0.77,98,1,805.259330154
GEMS220,2018_Apr_09_1539,George,GH,spatial_frequency,8,6,10,27-67;14-69;29-41;20-51,2,SimpleHill,14-69,66,33,selected,42-47,45-45;42-41;42-44;40-51;49-49;40-54,45-45,0.31,99,1,809.148426534
GEMS220,2018_Apr_09_1539,George,GH,spatial_frequency,8,6,10,27-67;14-69;29-41;20-51,2,SimpleHill,14-69,66,34,selected,45-45,50-39;51-50;52-45;40-41;38-47;50-50,40-41,0.35,96,-3,813.059842687
GEMS220,2018_Apr_09_1539,George,GH,spatial_frequency,8,6,10,27-67;14-69;29-41;20-51,2,SimpleHill,14-69,66,35,selected,40-41,39-42;46-39;47-42;42-39;37-39;38-35,46-39,0.71,97,1,817.33515541
GEMS220,2018_Apr_09_1539,George,GH,spatial_frequency,8,6,10,27-67;14-69;29-41;20-51,2,SimpleHill,14-69,66,36,selected,46-39,50-41;50-43;46-45;48-38;47-33;54-39,47-33,0.58,94,-3,821.483529129
GEMS220,2018_Apr_09_1539,George,GH,spatial_frequency,8,6,10,27-67;14-69;29-41;20-51,2,SimpleHill,14-69,66,37,selected,47-33,49-28;44-38;46-28;50-36;47-32;47-31,47-31,0.26,92,-2,825.311903526
GEMS220,2018_Apr_09_1539,George,GH,spatial_frequency,8,6,10,27-67;14-69;29-41;20-51,2,SimpleHill,14-69,66,38,selected,47-31,40-33;44-27;52-29;49-26;40-32;46-35,52-29,0.2,91,-1,829.082944447
GEMS220,2018_Apr_09_1539,George,GH,spatial_frequency,8,6,10,27-67;14-69;29-41;20-51,2,SimpleHill,14-69,66,39,selected,52-29,53-36;58-29;52-36;45-32;55-26;51-33,53-36,0.42,95,4,833.064515086
GEMS220,2018_Apr_09_1539,George,GH,spatial_frequency,8,6,10,27-67;14-69;29-41;20-51,3,SimpleHill,29-41,89,0,selected,29-41,35-40;22-44;24-35;36-39;32-39;29-37,36-39,1.04,93,4,845.643621457
GEMS220,2018_Apr_09_1539,George,GH,spatial_frequency,8,6,10,27-67;14-69;29-41;20-51,3,SimpleHill,29-41,89,1,selected,36-39,32-45;31-38;33-35;38-46;38-32;37-38,33-35,0.52,89,-4,849.712001347
GEMS220,2018_Apr_09_1539,George,GH,spatial_frequency,8,6,10,27-67;14-69;29-41;20-51,3,SimpleHill,29-41,89,2,selected,33-35,34-31;34-32;31-36;38-33;33-42;30-42,34-32,0.32,88,-1,853.615679889
GEMS220,2018_Apr_09_1539,George,GH,spatial_frequency,8,6,10,27-67;14-69;29-41;20-51,3,SimpleHill,29-41,89,3,selected,34-32,40-32;29-37;31-38;36-32;32-30;34-32,32-30,0.28,85,-3,857.463081581
GEMS220,2018_Apr_09_1539,George,GH,spatial_frequency,8,6,10,27-67;14-69;29-41;20-51,3,SimpleHill,29-41,89,4,selected,32-30,28-29;25-30;28-36;34-33;33-30;27-35,28-29,1.65,81,-4,862.683680149
GEMS220,2018_Apr_09_1539,George,GH,spatial_frequency,8,6,10,27-67;14-69;29-41;20-51,3,SimpleHill,29-41,89,5,selected,28-29,26-22;25-24;25-22;30-29;21-30;34-31,34-31,0.5,87,6,866.732370472
GEMS220,2018_Apr_09_1539,George,GH,spatial_frequency,8,6,10,27-67;14-69;29-41;20-51,3,SimpleHill,29-41,89,6,selected,34-31,39-34;40-34;37-36;31-36;34-25;27-34,37-36,0.56,92,5,870.86437879
GEMS220,2018_Apr_09_1539,George,GH,spatial_frequency,8,6,10,27-67;14-69;29-41;20-51,3,SimpleHill,29-41,89,7,selected,37-36,38-36;37-38;32-36;30-38;40-41;42-42,40-41,0.61,96,4,875.032780095
GEMS220,2018_Apr_09_1539,George,GH,spatial_frequency,8,6,10,27-67;14-69;29-41;20-51,3,SimpleHill,29-41,89,8,selected,40-41,34-43;42-41;44-37;43-34;43-46;44-36,42-41,0.76,97,1,879.376714699
GEMS220,2018_Apr_09_1539,George,GH,spatial_frequency,8,6,10,27-67;14-69;29-41;20-51,3,SimpleHill,29-41,89,9,selected,42-41,45-43;39-48;48-40;38-37;40-35;37-42,38-37,0.42,93,-4,883.358439943
GEMS220,2018_Apr_09_1539,George,GH,spatial_frequency,8,6,10,27-67;14-69;29-41;20-51,3,SimpleHill,29-41,89,10,selected,38-37,37-39;37-31;36-31;33-33;38-43;37-38,38-43,0.85,96,3,887.779484336
GEMS220,2018_Apr_09_1539,George,GH,spatial_frequency,8,6,10,27-67;14-69;29-41;20-51,3,SimpleHill,29-41,89,11,selected,38-43,44-42;39-49;40-40;37-50;31-46;42-48,44-42,0.34,98,2,891.685527726
GEMS220,2018_Apr_09_1539,George,GH,spatial_frequency,8,6,10,27-67;14-69;29-41;20-51,3,SimpleHill,29-41,89,12,selected,44-42,42-35;47-36;40-37;38-40;50-39;44-49,47-36,0.53,95,-3,895.785496005
GEMS220,2018_Apr_09_1539,George,GH,spatial_frequency,8,6,10,27-67;14-69;29-41;20-51,3,SimpleHill,29-41,89,13,selected,47-36,44-31;50-36;49-43;44-34;39-36;50-31,49-43,1.52,99,4,900.87145829
GEMS220,2018_Apr_09_1539,George,GH,spatial_frequency,8,6,10,27-67;14-69;29-41;20-51,3,SimpleHill,29-41,89,14,selected,49-43,50-43;44-37;43-41;49-37;46-50;53-39,46-50,0.88,99,0,905.334359018
GEMS220,2018_Apr_09_1539,George,GH,spatial_frequency,8,6,10,27-67;14-69;29-41;20-51,3,SimpleHill,29-41,89,15,selected,46-50,46-56;44-57;47-48;43-46;39-53;41-52,46-56,0.46,98,-1,909.35420095
GEMS220,2018_Apr_09_1539,George,GH,spatial_frequency,8,6,10,27-67;14-69;29-41;20-51,3,SimpleHill,29-41,89,16,selected,46-56,47-53;40-61;44-49;47-58;41-53;40-59,44-49,1.39,99,1,914.32009823
GEMS220,2018_Apr_09_1539,George,GH,spatial_frequency,8,6,10,27-67;14-69;29-41;20-51,3,SimpleHill,29-41,89,17,selected,44-49,43-43;44-47;50-53;50-47;44-54;51-46,44-54,3.26,98,-1,921.159307779
GEMS220,2018_Apr_09_1539,George,GH,spatial_frequency,8,6,10,27-67;14-69;29-41;20-51,3,SimpleHill,29-41,89,18,selected,44-54,44-62;41-57;48-51;37-51;44-55;46-52,37-51,1.47,96,-2,926.188274925
GEMS220,2018_Apr_09_1539,George,GH,spatial_frequency,8,6,10,27-67;14-69;29-41;20-51,3,SimpleHill,29-41,89,19,selected,37-51,34-58;34-50;39-51;34-52;33-52;42-50,34-58,1.51,93,-3,931.270541095
GEMS220,2018_Apr_09_1539,George,GH,spatial_frequency,8,6,10,27-67;14-69;29-41;20-51,3,SimpleHill,29-41,89,20,selected,34-58,31-59;38-57;38-55;33-65;32-60;37-55,38-57,0.95,96,3,935.79362669
GEMS220,2018_Apr_09_1539,George,GH,spatial_frequency,8,6,10,27-67;14-69;29-41;20-51,3,SimpleHill,29-41,89,21,selected,38-57,37-64;33-58;43-53;38-49;37-50;33-51,37-64,0.9,92,-4,940.268536672
GEMS220,2018_Apr_09_1539,George,GH,spatial_frequency,8,6,10,27-67;14-69;29-41;20-51,3,SimpleHill,29-41,89,22,selected,37-64,37-65;38-59;37-60;37-57;43-69;40-70,37-57,1.64,95,3,945.48119661
GEMS220,2018_Apr_09_1539,George,GH,spatial_frequency,8,6,10,27-67;14-69;29-41;20-51,3,SimpleHill,29-41,89,23,selected,37-57,39-61;40-55;37-52;41-55;40-60;35-57,37-52,2.63,96,1,951.685979058
GEMS220,2018_Apr_09_1539,George,GH,spatial_frequency,8,6,10,27-67;14-69;29-41;20-51,3,SimpleHill,29-41,89,24,selected,37-52,34-57;41-55;38-45;37-58;38-50;42-49,37-58,3.54,95,-1,958.788657245
GEMS220,2018_Apr_09_1539,George,GH,spatial_frequency,8,6,10,27-67;14-69;29-41;20-51,3,SimpleHill,29-41,89,25,selected,37-58,37-58;37-57;43-63;42-62;33-57;31-63,31-63,3.46,89,-6,965.811747801
GEMS220,2018_Apr_09_1539,George,GH,spatial_frequency,8,6,10,27-67;14-69;29-41;20-51,3,SimpleHill,29-41,89,26,selected,31-63,28-68;33-56;38-60;34-61;35-68;33-66,33-56,3.49,93,4,972.875365666
GEMS220,2018_Apr_09_1539,George,GH,spatial_frequency,8,6,10,27-67;14-69;29-41;20-51,3,SimpleHill,29-41,89,27,selected,33-56,37-50;40-58;31-58;30-59;29-50;40-56,40-56,3.61,97,4,980.048767786
GEMS220,2018_Apr_09_1539,George,GH,spatial_frequency,8,6,10,27-67;14-69;29-41;20-51,3,SimpleHill,29-41,89,28,selected,40-56,45-59;37-63;46-55;38-62;35-57;43-62,46-55,3.52,99,2,987.151969005
GEMS220,2018_Apr_09_1539,George,GH,spatial_frequency,8,6,10,27-67;14-69;29-41;20-51,3,SimpleHill,29-41,89,29,selected,46-55,43-56;49-50;54-55;52-56;46-48;44-50,43-56,2.87,98,-1,993.594833505
GEMS220,2018_Apr_09_1539,George,GH,spatial_frequency,8,6,10,27-67;14-69;29-41;20-51,3,SimpleHill,29-41,89,30,selected,43-56,50-53;41-50;42-52;45-51;35-56;47-60,35-56,2.16,94,-4,999.345244425
GEMS220,2018_Apr_09_1539,George,GH,spatial_frequency,8,6,10,27-67;14-69;29-41;20-51,3,SimpleHill,29-41,89,31,selected,35-56,34-55;28-53;36-50;32-53;29-59;31-58,29-59,2.89,89,-5,1005.82471477
GEMS220,2018_Apr_09_1539,George,GH,spatial_frequency,8,6,10,27-67;14-69;29-41;20-51,3,SimpleHill,29-41,89,32,selected,29-59,29-64;28-59;32-52;27-62;36-57;27-57,36-57,1.03,95,6,1010.40611429
GEMS220,2018_Apr_09_1539,George,GH,spatial_frequency,8,6,10,27-67;14-69;29-41;20-51,3,SimpleHill,29-41,89,33,selected,36-57,29-54;31-63;38-64;32-58;33-60;40-55,33-60,2.1,92,-3,1016.06432367
GEMS220,2018_Apr_09_1539,George,GH,spatial_frequency,8,6,10,27-67;14-69;29-41;20-51,3,SimpleHill,29-41,89,34,selected,33-60,28-60;32-53;37-56;34-63;27-60;27-57,32-53,1.52,93,1,1021.16241044
GEMS220,2018_Apr_09_1539,George,GH,spatial_frequency,8,6,10,27-67;14-69;29-41;20-51,3,SimpleHill,29-41,89,35,selected,32-53,33-48;27-51;32-59;36-57;26-56;28-55,33-48,4.08,94,1,1028.82940798
GEMS220,2018_Apr_09_1539,George,GH,spatial_frequency,8,6,10,27-67;14-69;29-41;20-51,3,SimpleHill,29-41,89,36,selected,33-48,27-49;26-47;38-43;37-48;27-48;31-50,27-49,9.73,89,-5,1042.13276726
GEMS220,2018_Apr_09_1539,George,GH,spatial_frequency,8,6,10,27-67;14-69;29-41;20-51,3,SimpleHill,29-41,89,37,selected,27-49,21-48;27-44;27-49;34-48;30-50;27-50,34-48,4.62,94,5,1050.33454019
GEMS220,2018_Apr_09_1539,George,GH,spatial_frequency,8,6,10,27-67;14-69;29-41;20-51,3,SimpleHill,29-41,89,38,selected,34-48,40-43;40-46;34-44;32-51;30-48;38-49,38-49,0.72,97,3,1054.62963851
GEMS220,2018_Apr_09_1539,George,GH,spatial_frequency,8,6,10,27-67;14-69;29-41;20-51,3,SimpleHill,29-41,89,39,selected,38-49,43-54;37-56;32-54;38-51;37-47;44-48,32-54,4.19,93,-4,1062.39018934
GEMS220,2018_Apr_09_1539,George,GH,spatial_frequency,8,6,10,27-67;14-69;29-41;20-51,4,SimpleHill,20-51,81,0,selected,20-51,17-57;19-44;23-47;19-50;21-54;25-49,17-57,2.04,77,-4,1078.28704189
GEMS220,2018_Apr_09_1539,George,GH,spatial_frequency,8,6,10,27-67;14-69;29-41;20-51,4,SimpleHill,20-51,81,1,selected,17-57,19-54;15-62;21-59;17-55;16-57;22-52,16-57,3.53,75,-2,1085.38581847
GEMS220,2018_Apr_09_1539,George,GH,spatial_frequency,8,6,10,27-67;14-69;29-41;20-51,4,SimpleHill,20-51,81,2,selected,16-57,15-62;9-55;19-53;20-55;18-56;11-51,15-62,2.06,72,-3,1091.02437701
GEMS220,2018_Apr_09_1539,George,GH,spatial_frequency,8,6,10,27-67;14-69;29-41;20-51,4,SimpleHill,20-51,81,3,selected,15-62,16-69;9-58;17-57;12-68;9-67;20-58,16-69,4.22,69,-3,1098.8238358
GEMS220,2018_Apr_09_1539,George,GH,spatial_frequency,8,6,10,27-67;14-69;29-41;20-51,4,SimpleHill,20-51,81,4,selected,16-69,10-67;23-67;15-68;21-67;19-66;19-62,15-68,6.22,69,0,1108.6036956
GEMS220,2018_Apr_09_1539,George,GH,spatial_frequency,8,6,10,27-67;14-69;29-41;20-51,4,SimpleHill,20-51,81,5,selected,15-68,14-70;22-67;17-67;10-70;15-69;16-68,16-68,7.44,70,1,1119.61426796
GEMS220,2018_Apr_09_1539,George,GH,spatial_frequency,8,6,10,27-67;14-69;29-41;20-51,4,SimpleHill,20-51,81,6,selected,16-68,14-62;10-70;13-64;17-64;22-63;11-67,10-70,3.53,60,-10,1126.72461558
GEMS220,2018_Apr_09_1539,George,GH,spatial_frequency,8,6,10,27-67;14-69;29-41;20-51,4,SimpleHill,20-51,81,7,selected,10-70,15-66;6-64;8-64;17-67;10-69;6-67,17-67,0.66,72,12,1130.96260576
GEMS220,2018_Apr_09_1539,George,GH,spatial_frequency,8,6,10,27-67;14-69;29-41;20-51,4,SimpleHill,20-51,81,8,selected,17-67,17-65;19-64;16-68;21-66;12-65;14-65,16-68,1.76,70,-2,1136.27249302
GEMS220,2018_Apr_09_1539,George,GH,spatial_frequency,8,6,10,27-67;14-69;29-41;20-51,4,SimpleHill,20-51,81,9,selected,16-68,17-62;11-70;21-67;16-69;22-65;15-63,11-70,1.96,61,-9,1141.81493497
GEMS220,2018_Apr_09_1539,George,GH,spatial_frequency,8,6,10,27-67;14-69;29-41;20-51,4,SimpleHill,20-51,81,10,selected,11-70,8-64;15-68;16-65;5-67;6-70;9-69,8-64,4.55,60,-1,1149.93728032
GEMS220,2018_Apr_09_1539,George,GH,spatial_frequency,8,6,10,27-67;14-69;29-41;20-51,4,SimpleHill,20-51,81,11,selected,8-64,10-64;4-65;11-69;2-64;5-62;8-60,5-62,1.34,56,-4,1154.84840806
GEMS220,2018_Apr_09_1539,George,GH,spatial_frequency,8,6,10,27-67;14-69;29-41;20-51,4,SimpleHill,20-51,81,12,selected,5-62,4-57;10-56;9-66;1-64;8-55;2-55,1-64,2.84,48,-8,1161.26296225
GEMS220,2018_Apr_09_1539,George,GH,spatial_frequency,8,6,10,27-67;14-69;29-41;20-51,4,SimpleHill,20-51,81,13,selected,1-64,6-60;6-63;3-66;1-70;3-69;1-59,1-59,0.79,50,2,1165.62482271
GEMS220,2018_Apr_09_1539,George,GH,spatial_frequency,8,6,10,27-67;14-69;29-41;20-51,4,SimpleHill,20-51,81,14,selected,1-59,7-59;7-64;4-57;2-65;3-55;2-52,2-65,2.3,49,-1,1171.51614053
GEMS220,2018_Apr_09_1539,George,GH,spatial_frequency,8,6,10,27-67;14-69;29-41;20-51,4,SimpleHill,20-51,81,15,selected,2-65,6-66;4-68;6-70;2-59;7-68;3-64,4-68,0.22,51,2,1175.3285935
GEMS220,2018_Apr_09_1539,George,GH,spatial_frequency,8,6,10,27-67;14-69;29-41;20-51,4,SimpleHill,20-51,81,16,selected,4-68,8-64;6-65;9-65;4-65;4-68;4-60,4-68,3.38,51,0,1182.27776912
GEMS220,2018_Apr_09_1539,George,GH,spatial_frequency,8,6,10,27-67;14-69;29-41;20-51,4,SimpleHill,20-51,81,17,selected,4-68,9-68;3-70;3-69;10-68;9-67;4-66,9-68,1.78,59,8,1187.6386088
GEMS220,2018_Apr_09_1539,George,GH,spatial_frequency,8,6,10,27-67;14-69;29-41;20-51,4,SimpleHill,20-51,81,18,selected,9-68,6-69;13-69;14-64;12-64;5-66;4-67,6-69,5.95,54,-5,1197.15329195
GEMS220,2018_Apr_09_1539,George,GH,spatial_frequency,8,6,10,27-67;14-69;29-41;20-51,4,SimpleHill,20-51,81,19,selected,6-69,6-67;12-69;7-62;6-70;6-65;9-70,6-70,1.15,53,-1,1201.85234041
GEMS220,2018_Apr_09_1539,George,GH,spatial_frequency,8,6,10,27-67;14-69;29-41;20-51,4,SimpleHill,20-51,81,20,selected,6-70,4-70;11-69;10-66;13-69;2-67;8-69,8-69,1.95,57,4,1207.3755454
GEMS220,2018_Apr_09_1539,George,GH,spatial_frequency,8,6,10,27-67;14-69;29-41;20-51,4,SimpleHill,20-51,81,21,selected,8-69,7-65;10-63;3-65;15-67;15-70;5-70,15-70,0.86,67,10,1211.80594323
GEMS220,2018_Apr_09_1539,George,GH,spatial_frequency,8,6,10,27-67;14-69;29-41;20-51,4,SimpleHill,20-51,81,22,selected,15-70,7-70;14-68;11-70;15-70;9-65;21-69,21-69,2.4,75,8,1217.77893858
GEMS220,2018_Apr_09_1539,George,GH,spatial_frequency,8,6,10,27-67;14-69;29-41;20-51,4,SimpleHill,20-51,81,23,selected,21-69,21-62;22-64;15-69;14-67;27-66;21-70,21-70,0.78,75,0,1222.12578091
GEMS220,2018_Apr_09_1539,George,GH,spatial_frequency,8,6,10,27-67;14-69;29-41;20-51,4,SimpleHill,20-51,81,24,selected,21-70,19-64;28-70;26-68;19-67;25-68;18-64,26-68,0.54,82,7,1226.2469736
GEMS220,2018_Apr_09_1539,George,GH,spatial_frequency,8,6,10,27-67;14-69;29-41;20-51,4,SimpleHill,20-51,81,25,selected,26-68,31-63;23-61;29-70;29-69;32-68;33-67,29-69,0.34,83,1,1230.14560715
GEMS220,2018_Apr_09_1539,George,GH,spatial_frequency,8,6,10,27-67;14-69;29-41;20-51,4,SimpleHill,20-51,81,26,selected,29-69,33-64;24-64;31-68;36-68;33-65;27-68,33-64,0.28,90,7,1233.98155431
GEMS220,2018_Apr_09_1539,George,GH,spatial_frequency,8,6,10,27-67;14-69;29-41;20-51,4,SimpleHill,20-51,81,27,selected,33-64,28-64;28-63;36-70;34-58;27-69;40-63,27-69,0.5,82,-8,1238.027093
GEMS220,2018_Apr_09_1539,George,GH,spatial_frequency,8,6,10,27-67;14-69;29-41;20-51,4,SimpleHill,20-51,81,28,selected,27-69,33-66;20-67;19-69;20-69;34-69;26-70,19-69,0.57,73,-9,1242.17961833
GEMS220,2018_Apr_09_1539,George,GH,spatial_frequency,8,6,10,27-67;14-69;29-41;20-51,4,SimpleHill,20-51,81,29,selected,19-69,22-69;19-68;22-67;19-61;19-67;25-67,22-69,0.52,77,4,1246.25777322
GEMS220,2018_Apr_09_1539,George,GH,spatial_frequency,8,6,10,27-67;14-69;29-41;20-51,4,SimpleHill,20-51,81,30,selected,22-69,19-67;24-63;21-68;26-65;21-62;19-62,19-62,0.27,77,0,1250.07305869
GEMS220,2018_Apr_09_1539,George,GH,spatial_frequency,8,6,10,27-67;14-69;29-41;20-51,4,SimpleHill,20-51,81,31,selected,19-62,20-65;22-69;24-60;24-68;16-65;14-61,24-68,0.46,80,3,1254.10892352
GEMS220,2018_Apr_09_1539,George,GH,spatial_frequency,8,6,10,27-67;14-69;29-41;20-51,4,SimpleHill,20-51,81,32,selected,24-68,18-63;17-68;30-65;23-65;19-66;28-64,30-65,0.79,87,7,1258.47111816
GEMS220,2018_Apr_09_1539,George,GH,spatial_frequency,8,6,10,27-67;14-69;29-41;20-51,4,SimpleHill,20-51,81,33,selected,30-65,27-66;24-68;27-62;37-66;24-70;36-62,27-66,0.63,84,-3,1262.67185975
GEMS220,2018_Apr_09_1539,George,GH,spatial_frequency,8,6,10,27-67;14-69;29-41;20-51,4,SimpleHill,20-51,81,34,selected,27-66,31-66;32-61;22-69;29-64;28-64;21-65,28-64,0.35,86,2,1266.58114632
GEMS220,2018_Apr_09_1539,George,GH,spatial_frequency,8,6,10,27-67;14-69;29-41;20-51,4,SimpleHill,20-51,81,35,selected,28-64,27-62;21-66;26-62;36-64;33-61;34-67,36-64,0.34,92,6,1270.48602073
GEMS220,2018_Apr_09_1539,George,GH,spatial_frequency,8,6,10,27-67;14-69;29-41;20-51,4,SimpleHill,20-51,81,36,selected,36-64,33-65;43-61;35-69;41-69;31-58;38-58,43-61,0.44,96,4,1274.48692884
GEMS220,2018_Apr_09_1539,George,GH,spatial_frequency,8,6,10,27-67;14-69;29-41;20-51,4,SimpleHill,20-51,81,37,selected,43-61,42-54;41-65;37-65;49-59;47-64;49-65,37-65,0.66,92,-4,1278.71946784
GEMS220,2018_Apr_09_1539,George,GH,spatial_frequency,8,6,10,27-67;14-69;29-41;20-51,4,SimpleHill,20-51,81,38,selected,37-65,31-67;36-61;43-65;37-63;36-65;32-68,32-68,1.03,87,-5,1283.33006177
GEMS220,2018_Apr_09_1539,George,GH,spatial_frequency,8,6,10,27-67;14-69;29-41;20-51,4,SimpleHill,20-51,81,39,selected,32-68,26-70;38-63;35-66;36-66;38-65;34-70,26-70,0.3,80,-7,1287.18454424
