subj_id,date,computer,experimenter,version,generation,inherit_from,sight_radius,n_gabors,block_ix,landscape_name,starting_pos,starting_score,trial,pos,stims,selected,rt,score,delta,exp_time
GEMS238,2018_Oct_31_1139,Kramer,AG,1.4,2,GEMS213,10,6,1,,0-0,1,0,0-0,1-4;6-7;7-6;4-7;8-6;6-6,8-6,7.34,27,26,696.233985277
GEMS238,2018_Oct_31_1139,Kramer,AG,1.4,2,GEMS213,10,6,1,,0-0,1,1,8-6,0-8;11-11;17-7;3-14;7-9;16-1,17-7,2.87,42,15,703.207657644
GEMS238,2018_Oct_31_1139,Kramer,AG,1.4,2,GEMS213,10,6,1,,0-0,1,2,17-7,14-1;18-1;8-5;17-2;14-10;10-12,17-2,1.3,33,-9,708.577705728
GEMS238,2018_Oct_31_1139,Kramer,AG,1.4,2,GEMS213,10,6,1,,0-0,1,3,17-2,15-1;24-5;17-10;13-2;13-9;15-6,15-6,1.07,37,4,713.741354133
GEMS238,2018_Oct_31_1139,Kramer,AG,1.4,2,GEMS213,10,6,1,,0-0,1,4,15-6,22-11;11-2;14-11;24-2;7-11;16-2,14-11,2.62,44,7,720.430918532
GEMS238,2018_Oct_31_1139,Kramer,AG,1.4,2,GEMS213,10,6,1,,0-0,1,5,14-11,14-8;22-15;21-16;14-6;22-9;13-2,22-9,4.0,51,7,728.503086975
GEMS238,2018_Oct_31_1139,Kramer,AG,1.4,2,GEMS213,10,6,1,,0-0,1,6,22-9,19-10;12-9;17-6;14-6;22-19;28-5,19-10,1.53,49,-2,734.076122549
GEMS238,2018_Oct_31_1139,Kramer,AG,1.4,2,GEMS213,10,6,1,,0-0,1,7,19-10,16-4;17-15;13-17;28-13;25-8;18-12,13-17,2.25,51,2,740.394999958
GEMS238,2018_Oct_31_1139,Kramer,AG,1.4,2,GEMS213,10,6,1,,0-0,1,8,13-17,16-15;16-25;19-15;5-23;18-9;8-24,8-24,1.07,52,1,745.542247448
GEMS238,2018_Oct_31_1139,Kramer,AG,1.4,2,GEMS213,10,6,1,,0-0,1,9,8-24,11-19;15-18;6-23;9-27;8-15;0-29,0-29,4.34,42,-10,753.963501738
GEMS238,2018_Oct_31_1139,Kramer,AG,1.4,2,GEMS213,10,6,1,,0-0,1,10,0-29,8-35;5-36;6-26;0-19;8-23;1-37,8-35,1.76,61,19,759.778062696
GEMS238,2018_Oct_31_1139,Kramer,AG,1.4,2,GEMS213,10,6,1,,0-0,1,11,8-35,10-38;7-37;15-39;17-34;5-36;14-36,17-34,3.32,74,13,767.222126159
GEMS238,2018_Oct_31_1139,Kramer,AG,1.4,2,GEMS213,10,6,1,,0-0,1,12,17-34,22-42;23-28;10-41;9-30;15-40;15-35,22-42,2.63,84,10,773.928314577
GEMS238,2018_Oct_31_1139,Kramer,AG,1.4,2,GEMS213,10,6,1,,0-0,1,13,22-42,23-40;16-42;22-40;17-39;22-52;15-47,22-52,4.17,85,1,782.173465011
GEMS238,2018_Oct_31_1139,Kramer,AG,1.4,2,GEMS213,10,6,1,,0-0,1,14,22-52,26-49;17-50;24-46;19-47;14-47;19-45,17-50,0.9,79,-6,787.134499794
GEMS238,2018_Oct_31_1139,Kramer,AG,1.4,2,GEMS213,10,6,1,,0-0,1,15,17-50,11-52;21-53;12-42;13-59;11-53;21-59,13-59,4.54,72,-7,795.741613729
GEMS238,2018_Oct_31_1139,Kramer,AG,1.4,2,GEMS213,10,6,1,,0-0,1,16,13-59,16-58;15-55;18-56;9-59;8-64;10-52,15-55,1.39,76,4,801.211275653
GEMS238,2018_Oct_31_1139,Kramer,AG,1.4,2,GEMS213,10,6,1,,0-0,1,17,15-55,21-52;22-56;12-47;16-62;21-50;16-52,16-62,4.47,75,-1,809.755286172
GEMS238,2018_Oct_31_1139,Kramer,AG,1.4,2,GEMS213,10,6,1,,0-0,1,18,16-62,22-64;22-67;8-66;12-68;13-61;7-62,13-61,1.08,71,-4,814.909917883
GEMS238,2018_Oct_31_1139,Kramer,AG,1.4,2,GEMS213,10,6,1,,0-0,1,19,13-61,18-65;18-60;14-64;12-59;9-55;9-52,18-65,2.11,76,5,821.086893352
GEMS238,2018_Oct_31_1139,Kramer,AG,1.4,2,GEMS213,10,6,1,,0-0,1,20,18-65,14-57;19-68;24-63;15-68;19-59;18-61,24-63,2.99,84,8,828.147095126
GEMS238,2018_Oct_31_1139,Kramer,AG,1.4,2,GEMS213,10,6,1,,0-0,1,21,24-63,16-69;28-55;25-64;32-67;26-66;20-69,25-64,3.96,84,0,836.175987982
GEMS238,2018_Oct_31_1139,Kramer,AG,1.4,2,GEMS213,10,6,1,,0-0,1,22,25-64,23-68;29-64;20-61;21-66;18-60;21-61,21-66,3.63,79,-5,843.882042282
GEMS238,2018_Oct_31_1139,Kramer,AG,1.4,2,GEMS213,10,6,1,,0-0,1,23,21-66,28-60;29-62;16-63;13-62;19-70;30-63,28-60,2.62,89,10,850.574533609
GEMS238,2018_Oct_31_1139,Kramer,AG,1.4,2,GEMS213,10,6,1,,0-0,1,24,28-60,33-68;23-64;23-67;36-58;28-57;33-63,33-63,3.84,91,2,858.478093169
GEMS238,2018_Oct_31_1139,Kramer,AG,1.4,2,GEMS213,10,6,1,,0-0,1,25,33-63,33-54;37-59;32-56;33-64;34-63;40-62,32-56,4.68,93,2,867.23313287
GEMS238,2018_Oct_31_1139,Kramer,AG,1.4,2,GEMS213,10,6,1,,0-0,1,26,32-56,38-52;36-57;23-55;24-59;32-60;32-52,36-57,1.31,96,3,872.594950408
GEMS238,2018_Oct_31_1139,Kramer,AG,1.4,2,GEMS213,10,6,1,,0-0,1,27,36-57,41-62;30-50;35-58;32-64;36-51;37-55,37-55,3.88,97,1,880.546609993
GEMS238,2018_Oct_31_1139,Kramer,AG,1.4,2,GEMS213,10,6,1,,0-0,1,28,37-55,40-50;38-49;33-50;46-59;39-51;29-49,39-51,4.69,98,1,889.328877108
GEMS238,2018_Oct_31_1139,Kramer,AG,1.4,2,GEMS213,10,6,1,,0-0,1,29,39-51,43-55;40-44;40-55;31-49;35-53;49-51,31-49,5.66,93,-5,899.066852022
GEMS238,2018_Oct_31_1139,Kramer,AG,1.4,2,GEMS213,10,6,1,,0-0,1,30,31-49,22-46;35-48;24-49;22-45;28-42;24-42,35-48,1.45,96,3,904.594008375
GEMS238,2018_Oct_31_1139,Kramer,AG,1.4,2,GEMS213,10,6,1,,0-0,1,31,35-48,29-42;42-41;40-51;31-43;42-45;35-58,29-42,5.46,90,-6,914.10565015
GEMS238,2018_Oct_31_1139,Kramer,AG,1.4,2,GEMS213,10,6,1,,0-0,1,32,29-42,31-34;30-43;29-45;20-39;35-39;35-42,35-42,2.52,95,5,920.67677125
GEMS238,2018_Oct_31_1139,Kramer,AG,1.4,2,GEMS213,10,6,1,,0-0,1,33,35-42,43-46;31-39;28-38;29-45;39-34;40-40,40-40,3.89,97,2,928.647190513
GEMS238,2018_Oct_31_1139,Kramer,AG,1.4,2,GEMS213,10,6,1,,0-0,1,34,40-40,38-47;31-39;45-41;35-38;35-39;47-47,38-47,2.47,97,0,935.171825816
GEMS238,2018_Oct_31_1139,Kramer,AG,1.4,2,GEMS213,10,6,1,,0-0,1,35,38-47,39-48;42-39;36-48;44-55;41-55;42-44,44-55,2.42,99,2,941.658787156
GEMS238,2018_Oct_31_1139,Kramer,AG,1.4,2,GEMS213,10,6,1,,0-0,1,36,44-55,36-53;50-53;49-60;53-56;49-57;42-57,49-60,3.39,98,-1,949.11468605
GEMS238,2018_Oct_31_1139,Kramer,AG,1.4,2,GEMS213,10,6,1,,0-0,1,37,49-60,52-51;53-58;52-69;41-63;49-52;58-60,41-63,1.48,96,-2,954.664392941
GEMS238,2018_Oct_31_1139,Kramer,AG,1.4,2,GEMS213,10,6,1,,0-0,1,38,41-63,38-59;34-70;38-60;34-68;36-65;37-61,38-60,1.16,96,0,959.915016321
GEMS238,2018_Oct_31_1139,Kramer,AG,1.4,2,GEMS213,10,6,1,,0-0,1,39,38-60,44-65;43-68;30-57;30-54;32-54;30-55,44-65,3.38,95,-1,967.376913115
GEMS238,2018_Oct_31_1139,Kramer,AG,1.4,2,GEMS213,10,6,1,,0-0,1,40,44-65,38-66;40-64;39-58;36-63;51-68;37-60,37-60,2.0,95,0,973.463413073
GEMS238,2018_Oct_31_1139,Kramer,AG,1.4,2,GEMS213,10,6,1,,0-0,1,41,37-60,43-64;31-59;44-67;33-67;43-54;37-60,33-67,3.12,89,-6,980.671165784
GEMS238,2018_Oct_31_1139,Kramer,AG,1.4,2,GEMS213,10,6,1,,0-0,1,42,33-67,37-65;33-59;34-58;36-63;35-70;39-65,37-65,1.32,93,4,986.076945828
GEMS238,2018_Oct_31_1139,Kramer,AG,1.4,2,GEMS213,10,6,1,,0-0,1,43,37-65,32-68;42-64;31-67;36-69;41-60;28-65,41-60,2.71,97,4,992.86310175
GEMS238,2018_Oct_31_1139,Kramer,AG,1.4,2,GEMS213,10,6,1,,0-0,1,44,41-60,44-54;42-54;47-59;36-66;49-63;38-55,36-66,2.42,91,-6,999.361187596
GEMS238,2018_Oct_31_1139,Kramer,AG,1.4,2,GEMS213,10,6,1,,0-0,1,45,36-66,38-57;34-68;26-66;44-63;30-66;42-70,30-66,4.56,87,-4,1007.99428954
GEMS238,2018_Oct_31_1139,Kramer,AG,1.4,2,GEMS213,10,6,1,,0-0,1,46,30-66,22-63;34-66;31-59;37-60;32-60;24-60,34-66,1.15,90,3,1013.21378902
GEMS238,2018_Oct_31_1139,Kramer,AG,1.4,2,GEMS213,10,6,1,,0-0,1,47,34-66,27-61;39-67;38-63;27-60;29-59;41-63,27-61,2.08,88,-2,1019.36176568
GEMS238,2018_Oct_31_1139,Kramer,AG,1.4,2,GEMS213,10,6,1,,0-0,1,48,27-61,30-59;30-64;24-61;29-62;23-66;30-60,30-60,1.73,91,3,1025.18198588
GEMS238,2018_Oct_31_1139,Kramer,AG,1.4,2,GEMS213,10,6,1,,0-0,1,49,30-60,38-59;28-58;32-64;33-57;35-57;37-56,38-59,2.91,96,5,1032.16862105
GEMS238,2018_Oct_31_1139,Kramer,AG,1.4,2,GEMS213,10,6,1,,0-0,1,50,38-59,47-56;38-61;35-52;45-64;30-60;38-66,45-64,2.54,96,0,1038.7755823
GEMS238,2018_Oct_31_1139,Kramer,AG,1.4,2,GEMS213,10,6,1,,0-0,1,51,45-64,52-63;41-59;37-63;40-62;46-63;49-68,41-59,4.13,97,1,1046.99606478
GEMS238,2018_Oct_31_1139,Kramer,AG,1.4,2,GEMS213,10,6,1,,0-0,1,52,41-59,36-61;41-66;42-56;38-67;39-65;47-58,39-65,4.89,94,-3,1055.97763704
GEMS238,2018_Oct_31_1139,Kramer,AG,1.4,2,GEMS213,10,6,1,,0-0,1,53,39-65,36-66;33-61;39-56;46-66;34-66;40-61,33-61,1.1,92,-2,1061.15078548
GEMS238,2018_Oct_31_1139,Kramer,AG,1.4,2,GEMS213,10,6,1,,0-0,1,54,33-61,25-55;30-69;39-63;43-61;26-57;42-60,43-61,1.54,97,5,1066.76843398
GEMS238,2018_Oct_31_1139,Kramer,AG,1.4,2,GEMS213,10,6,1,,0-0,1,55,43-61,35-62;47-57;37-68;38-59;44-61;45-67,35-62,4.63,93,-4,1075.47264999
GEMS238,2018_Oct_31_1139,Kramer,AG,1.4,2,GEMS213,10,6,1,,0-0,1,56,35-62,40-59;34-65;37-58;30-69;31-68;31-69,31-69,2.09,86,-7,1081.64418708
GEMS238,2018_Oct_31_1139,Kramer,AG,1.4,2,GEMS213,10,6,1,,0-0,1,57,31-69,32-61;30-63;29-68;40-69;35-60;24-68,32-61,2.3,92,6,1088.01774755
GEMS238,2018_Oct_31_1139,Kramer,AG,1.4,2,GEMS213,10,6,1,,0-0,1,58,32-61,31-52;29-57;39-60;25-56;29-62;34-66,29-57,4.4,91,-1,1096.48955057
GEMS238,2018_Oct_31_1139,Kramer,AG,1.4,2,GEMS213,10,6,1,,0-0,1,59,29-57,21-51;24-58;26-65;38-54;31-54;23-62,26-65,2.05,84,-7,1102.61810272
GEMS238,2018_Oct_31_1139,Kramer,AG,1.4,2,GEMS213,10,6,1,,0-0,1,60,26-65,24-65;26-69;18-62;28-67;30-61;32-61,28-67,0.88,85,1,1107.56785903
GEMS238,2018_Oct_31_1139,Kramer,AG,1.4,2,GEMS213,10,6,1,,0-0,1,61,28-67,34-61;26-64;36-68;29-60;26-59;37-64,37-64,1.48,93,8,1113.11323251
GEMS238,2018_Oct_31_1139,Kramer,AG,1.4,2,GEMS213,10,6,1,,0-0,1,62,37-64,33-55;38-65;39-63;37-68;41-56;34-65,38-65,2.9,93,0,1120.07629636
GEMS238,2018_Oct_31_1139,Kramer,AG,1.4,2,GEMS213,10,6,1,,0-0,1,63,38-65,35-62;34-68;31-63;29-62;31-65;45-59,31-65,3.63,89,-4,1127.7735177
GEMS238,2018_Oct_31_1139,Kramer,AG,1.4,2,GEMS213,10,6,1,,0-0,1,64,31-65,30-64;30-70;27-56;35-56;38-65;33-63,30-64,2.33,89,0,1134.17981437
GEMS238,2018_Oct_31_1139,Kramer,AG,1.4,2,GEMS213,10,6,1,,0-0,1,65,30-64,36-61;31-56;33-68;23-67;21-62;26-59,23-67,2.81,80,-9,1141.06898384
GEMS238,2018_Oct_31_1139,Kramer,AG,1.4,2,GEMS213,10,6,1,,0-0,1,66,23-67,16-66;24-63;26-64;21-62;30-65;22-70,22-70,1.12,77,-3,1146.26343862
GEMS238,2018_Oct_31_1139,Kramer,AG,1.4,2,GEMS213,10,6,1,,0-0,1,67,22-70,23-62;27-65;20-62;24-66;28-63;16-62,20-62,2.88,80,3,1153.20030863
GEMS238,2018_Oct_31_1139,Kramer,AG,1.4,2,GEMS213,10,6,1,,0-0,1,68,20-62,12-58;19-66;27-63;20-59;15-58;23-58,19-66,1.58,76,-4,1158.8496076
GEMS238,2018_Oct_31_1139,Kramer,AG,1.4,2,GEMS213,10,6,1,,0-0,1,69,19-66,21-69;13-58;24-59;19-60;22-69;25-58,21-69,1.0,76,0,1163.91461813
GEMS238,2018_Oct_31_1139,Kramer,AG,1.4,2,GEMS213,10,6,1,,0-0,1,70,21-69,22-60;23-67;21-61;26-62;19-69;21-70,23-67,1.39,80,4,1169.36771781
GEMS238,2018_Oct_31_1139,Kramer,AG,1.4,2,GEMS213,10,6,1,,0-0,1,71,23-67,20-70;28-67;25-60;32-67;31-65;31-66,31-65,2.2,89,9,1175.64740081
GEMS238,2018_Oct_31_1139,Kramer,AG,1.4,2,GEMS213,10,6,1,,0-0,1,72,31-65,26-58;39-60;29-61;26-60;27-62;24-61,39-60,2.88,96,7,1182.58821245
GEMS238,2018_Oct_31_1139,Kramer,AG,1.4,2,GEMS213,10,6,1,,0-0,1,73,39-60,36-58;37-59;38-54;46-65;30-64;37-53,37-59,4.52,96,0,1191.18214433
GEMS238,2018_Oct_31_1139,Kramer,AG,1.4,2,GEMS213,10,6,1,,0-0,1,74,37-59,40-52;35-62;40-63;30-64;40-51;37-65,37-65,6.06,93,-3,1201.29848942
GEMS238,2018_Oct_31_1139,Kramer,AG,1.4,2,GEMS213,10,6,1,,0-0,1,75,37-65,36-67;28-63;30-65;36-56;42-61;33-66,30-65,1.26,88,-5,1206.63822407
GEMS238,2018_Oct_31_1139,Kramer,AG,1.4,2,GEMS213,10,6,1,,0-0,1,76,30-65,39-69;38-70;33-69;30-68;39-67;40-65,39-69,1.37,91,3,1212.0832619
GEMS238,2018_Oct_31_1139,Kramer,AG,1.4,2,GEMS213,10,6,1,,0-0,1,77,39-69,43-68;40-66;44-63;35-63;45-62;47-70,40-66,1.63,93,2,1217.77781366
GEMS238,2018_Oct_31_1139,Kramer,AG,1.4,2,GEMS213,10,6,1,,0-0,1,78,40-66,43-57;48-64;30-66;41-57;42-64;49-68,49-68,2.64,94,1,1224.49029447
GEMS238,2018_Oct_31_1139,Kramer,AG,1.4,2,GEMS213,10,6,1,,0-0,1,79,49-68,48-67;45-61;55-67;50-63;45-67;52-67,45-67,1.0,94,0,1229.56331788
GEMS238,2018_Oct_31_1139,Kramer,AG,1.4,2,GEMS213,10,6,2,,0-0,1,0,0-0,3-8;7-3;4-1;7-0;4-0;1-1,3-8,5.25,21,20,1314.12600613
GEMS238,2018_Oct_31_1139,Kramer,AG,1.4,2,GEMS213,10,6,2,,0-0,1,1,3-8,8-8;1-17;4-9;8-7;12-10;7-1,1-17,1.59,31,10,1319.79978803
GEMS238,2018_Oct_31_1139,Kramer,AG,1.4,2,GEMS213,10,6,2,,0-0,1,2,1-17,7-18;1-27;4-11;3-11;9-16;2-11,1-27,1.12,42,11,1324.99908646
GEMS238,2018_Oct_31_1139,Kramer,AG,1.4,2,GEMS213,10,6,2,,0-0,1,3,1-27,5-33;1-32;9-31;7-19;9-24;7-22,1-32,1.48,46,4,1330.5541565
GEMS238,2018_Oct_31_1139,Kramer,AG,1.4,2,GEMS213,10,6,2,,0-0,1,4,1-32,1-39;2-29;2-34;1-40;5-26;7-38,2-34,0.82,49,3,1335.45672889
GEMS238,2018_Oct_31_1139,Kramer,AG,1.4,2,GEMS213,10,6,2,,0-0,1,5,2-34,10-39;6-30;11-31;9-33;2-37;0-31,10-39,1.58,66,17,1341.11361118
GEMS238,2018_Oct_31_1139,Kramer,AG,1.4,2,GEMS213,10,6,2,,0-0,1,6,10-39,17-46;17-44;15-44;5-40;16-37;19-35,17-46,2.4,78,12,1347.56674511
GEMS238,2018_Oct_31_1139,Kramer,AG,1.4,2,GEMS213,10,6,2,,0-0,1,7,17-46,25-42;11-43;15-37;24-48;22-40;13-41,11-43,1.05,69,-9,1352.66696585
GEMS238,2018_Oct_31_1139,Kramer,AG,1.4,2,GEMS213,10,6,2,,0-0,1,8,11-43,4-37;14-49;7-34;12-41;10-37;21-43,12-41,1.16,70,1,1357.89662251
GEMS238,2018_Oct_31_1139,Kramer,AG,1.4,2,GEMS213,10,6,2,,0-0,1,9,12-41,20-42;18-48;17-47;13-37;4-38;10-48,18-48,0.95,80,10,1362.90254295
GEMS238,2018_Oct_31_1139,Kramer,AG,1.4,2,GEMS213,10,6,2,,0-0,1,10,18-48,23-49;25-47;21-52;15-50;27-47;17-50,21-52,2.33,84,4,1369.31974038
GEMS238,2018_Oct_31_1139,Kramer,AG,1.4,2,GEMS213,10,6,2,,0-0,1,11,21-52,18-57;30-55;25-57;14-46;16-59;29-56,30-55,1.7,92,8,1375.10923199
GEMS238,2018_Oct_31_1139,Kramer,AG,1.4,2,GEMS213,10,6,2,,0-0,1,12,30-55,37-50;36-63;21-59;34-52;38-52;36-47,21-59,2.7,82,-10,1381.87352429
GEMS238,2018_Oct_31_1139,Kramer,AG,1.4,2,GEMS213,10,6,2,,0-0,1,13,21-59,22-67;30-58;16-58;23-68;15-53;30-57,23-68,2.23,79,-3,1388.16807881
GEMS238,2018_Oct_31_1139,Kramer,AG,1.4,2,GEMS213,10,6,2,,0-0,1,14,23-68,18-66;19-69;27-59;15-63;29-66;27-62,29-66,2.56,87,8,1394.79885048
GEMS238,2018_Oct_31_1139,Kramer,AG,1.4,2,GEMS213,10,6,2,,0-0,1,15,29-66,31-61;34-65;36-69;25-62;28-69;20-70,28-69,1.31,84,-3,1400.1890737
GEMS238,2018_Oct_31_1139,Kramer,AG,1.4,2,GEMS213,10,6,2,,0-0,1,16,28-69,36-64;29-60;24-63;31-66;19-67;23-69,31-66,2.01,88,4,1406.26970955
GEMS238,2018_Oct_31_1139,Kramer,AG,1.4,2,GEMS213,10,6,2,,0-0,1,17,31-66,30-58;31-58;28-60;40-65;25-63;33-67,40-65,2.12,94,6,1412.44671767
GEMS238,2018_Oct_31_1139,Kramer,AG,1.4,2,GEMS213,10,6,2,,0-0,1,18,40-65,43-68;32-63;36-67;46-63;30-65;40-67,30-65,2.93,88,-6,1419.45038658
GEMS238,2018_Oct_31_1139,Kramer,AG,1.4,2,GEMS213,10,6,2,,0-0,1,19,30-65,31-58;35-61;29-65;30-58;37-66;28-67,37-66,1.53,92,4,1425.05583027
GEMS238,2018_Oct_31_1139,Kramer,AG,1.4,2,GEMS213,10,6,2,,0-0,1,20,37-66,38-57;36-65;30-59;35-62;34-64;28-63,36-65,1.3,92,0,1430.41746567
GEMS238,2018_Oct_31_1139,Kramer,AG,1.4,2,GEMS213,10,6,2,,0-0,1,21,36-65,41-60;42-62;40-64;40-60;36-59;30-64,40-60,3.28,97,5,1437.76646061
GEMS238,2018_Oct_31_1139,Kramer,AG,1.4,2,GEMS213,10,6,2,,0-0,1,22,40-60,43-64;42-52;37-55;42-68;39-69;32-61,39-69,3.83,91,-6,1445.66801863
GEMS238,2018_Oct_31_1139,Kramer,AG,1.4,2,GEMS213,10,6,2,,0-0,1,23,39-69,38-65;44-62;42-68;37-70;39-69;35-66,39-69,2.84,91,0,1452.57798677
GEMS238,2018_Oct_31_1139,Kramer,AG,1.4,2,GEMS213,10,6,2,,0-0,1,24,39-69,30-69;40-69;39-64;35-62;30-65;38-67,40-69,1.73,91,0,1458.39765929
GEMS238,2018_Oct_31_1139,Kramer,AG,1.4,2,GEMS213,10,6,2,,0-0,1,25,40-69,44-66;40-68;33-62;31-66;45-69;43-68,44-66,1.98,95,4,1464.44885429
GEMS238,2018_Oct_31_1139,Kramer,AG,1.4,2,GEMS213,10,6,2,,0-0,1,26,44-66,46-64;48-65;46-62;41-65;48-60;36-64,46-64,2.75,96,1,1471.28936357
GEMS238,2018_Oct_31_1139,Kramer,AG,1.4,2,GEMS213,10,6,2,,0-0,1,27,46-64,42-65;41-64;41-69;46-69;38-70;48-67,41-69,4.3,92,-4,1479.668187
GEMS238,2018_Oct_31_1139,Kramer,AG,1.4,2,GEMS213,10,6,2,,0-0,1,28,41-69,48-69;47-65;39-61;47-63;38-67;42-64,42-64,1.97,95,3,1485.70188061
GEMS238,2018_Oct_31_1139,Kramer,AG,1.4,2,GEMS213,10,6,2,,0-0,1,29,42-64,40-70;48-68;38-64;41-69;50-60;47-58,41-69,1.41,92,-3,1491.16228193
GEMS238,2018_Oct_31_1139,Kramer,AG,1.4,2,GEMS213,10,6,2,,0-0,1,30,41-69,47-62;42-62;36-66;50-70;40-68;33-67,36-66,2.51,91,-1,1497.75164704
GEMS238,2018_Oct_31_1139,Kramer,AG,1.4,2,GEMS213,10,6,2,,0-0,1,31,36-66,40-69;38-61;41-67;30-68;31-69;29-70,40-69,3.68,91,0,1505.50792902
GEMS238,2018_Oct_31_1139,Kramer,AG,1.4,2,GEMS213,10,6,2,,0-0,1,32,40-69,44-64;39-70;40-66;42-68;39-63;40-59,44-64,2.11,96,5,1511.68098431
GEMS238,2018_Oct_31_1139,Kramer,AG,1.4,2,GEMS213,10,6,2,,0-0,1,33,44-64,43-65;43-68;36-69;42-66;50-68;45-68,43-65,4.92,95,-1,1520.6887344
GEMS238,2018_Oct_31_1139,Kramer,AG,1.4,2,GEMS213,10,6,2,,0-0,1,34,43-65,37-63;37-64;44-61;46-61;35-65;37-60,37-64,2.39,93,-2,1527.16176946
GEMS238,2018_Oct_31_1139,Kramer,AG,1.4,2,GEMS213,10,6,2,,0-0,1,35,37-64,38-70;41-59;33-65;34-65;31-58;38-68,33-65,2.12,90,-3,1533.34926094
GEMS238,2018_Oct_31_1139,Kramer,AG,1.4,2,GEMS213,10,6,2,,0-0,1,36,33-65,40-64;34-70;26-61;35-63;41-69;41-60,34-70,3.01,87,-3,1540.42967913
GEMS238,2018_Oct_31_1139,Kramer,AG,1.4,2,GEMS213,10,6,2,,0-0,1,37,34-70,35-61;40-63;26-65;40-64;34-65;32-67,32-67,2.39,88,1,1546.89676559
GEMS238,2018_Oct_31_1139,Kramer,AG,1.4,2,GEMS213,10,6,2,,0-0,1,38,32-67,32-64;25-63;30-61;23-63;42-67;41-64,41-64,3.95,95,7,1554.9001016
GEMS238,2018_Oct_31_1139,Kramer,AG,1.4,2,GEMS213,10,6,2,,0-0,1,39,41-64,50-67;44-58;49-63;44-69;38-60;40-61,40-61,4.17,96,1,1563.13185103
GEMS238,2018_Oct_31_1139,Kramer,AG,1.4,2,GEMS213,10,6,2,,0-0,1,40,40-61,46-63;47-62;36-57;42-56;38-65;44-66,38-65,2.3,93,-3,1569.49142343
GEMS238,2018_Oct_31_1139,Kramer,AG,1.4,2,GEMS213,10,6,2,,0-0,1,41,38-65,31-70;31-62;36-61;30-60;38-68;45-65,45-65,2.01,96,3,1575.56763529
GEMS238,2018_Oct_31_1139,Kramer,AG,1.4,2,GEMS213,10,6,2,,0-0,1,42,45-65,43-58;40-59;43-70;41-61;46-59;48-68,46-59,7.36,99,3,1586.98250053
GEMS238,2018_Oct_31_1139,Kramer,AG,1.4,2,GEMS213,10,6,2,,0-0,1,43,46-59,50-54;50-50;47-56;48-51;45-61;39-54,39-54,8.85,98,-1,1599.8952778
GEMS238,2018_Oct_31_1139,Kramer,AG,1.4,2,GEMS213,10,6,2,,0-0,1,44,39-54,36-52;39-48;44-60;36-49;36-58;46-48,44-60,3.15,98,0,1607.12321332
GEMS238,2018_Oct_31_1139,Kramer,AG,1.4,2,GEMS213,10,6,2,,0-0,1,45,44-60,44-70;45-61;49-57;40-59;46-64;42-66,46-64,3.41,96,-2,1614.60878866
GEMS238,2018_Oct_31_1139,Kramer,AG,1.4,2,GEMS213,10,6,2,,0-0,1,46,46-64,53-62;54-67;47-64;52-66;48-56;48-55,47-64,2.81,96,0,1621.48444125
GEMS238,2018_Oct_31_1139,Kramer,AG,1.4,2,GEMS213,10,6,2,,0-0,1,47,47-64,44-69;54-59;42-56;51-65;53-63;42-60,53-63,7.46,97,1,1633.0002916
GEMS238,2018_Oct_31_1139,Kramer,AG,1.4,2,GEMS213,10,6,2,,0-0,1,48,53-63,54-59;47-67;48-56;47-61;61-60;51-56,54-59,10.12,99,2,1647.17660096
GEMS238,2018_Oct_31_1139,Kramer,AG,1.4,2,GEMS213,10,6,2,,0-0,1,49,54-59,58-61;48-63;51-61;62-54;49-66;54-60,54-60,11.94,98,-1,1663.19070841
GEMS238,2018_Oct_31_1139,Kramer,AG,1.4,2,GEMS213,10,6,2,,0-0,1,50,54-60,54-52;57-59;62-59;47-64;49-58;48-64,62-59,9.78,96,-2,1677.0404354
GEMS238,2018_Oct_31_1139,Kramer,AG,1.4,2,GEMS213,10,6,2,,0-0,1,51,62-59,66-53;62-49;60-56;55-58;62-54;66-65,66-65,2.16,91,-5,1683.26542223
GEMS238,2018_Oct_31_1139,Kramer,AG,1.4,2,GEMS213,10,6,2,,0-0,1,52,66-65,68-58;66-61;64-58;70-57;64-68;62-67,64-68,0.95,90,-1,1688.28502183
GEMS238,2018_Oct_31_1139,Kramer,AG,1.4,2,GEMS213,10,6,2,,0-0,1,53,64-68,70-60;67-64;61-68;59-67;68-59;68-65,67-64,3.42,91,1,1695.77730216
GEMS238,2018_Oct_31_1139,Kramer,AG,1.4,2,GEMS213,10,6,2,,0-0,1,54,67-64,63-62;64-67;68-60;65-70;69-67;63-57,65-70,5.47,88,-3,1705.31366022
GEMS238,2018_Oct_31_1139,Kramer,AG,1.4,2,GEMS213,10,6,2,,0-0,1,55,65-70,58-65;67-68;63-68;67-61;66-65;66-63,66-65,3.18,91,3,1712.56095015
GEMS238,2018_Oct_31_1139,Kramer,AG,1.4,2,GEMS213,10,6,2,,0-0,1,56,66-65,68-64;66-56;67-66;65-68;62-63;62-64,67-66,2.22,90,-1,1718.85744315
GEMS238,2018_Oct_31_1139,Kramer,AG,1.4,2,GEMS213,10,6,2,,0-0,1,57,67-66,59-67;65-59;61-62;66-68;68-63;65-57,65-59,5.15,94,4,1728.08521767
GEMS238,2018_Oct_31_1139,Kramer,AG,1.4,2,GEMS213,10,6,2,,0-0,1,58,65-59,56-58;65-61;67-56;69-50;61-67;66-58,65-61,7.46,94,0,1739.62856367
GEMS238,2018_Oct_31_1139,Kramer,AG,1.4,2,GEMS213,10,6,2,,0-0,1,59,65-61,58-54;68-58;57-64;60-65;62-59;57-58,62-59,11.16,96,2,1754.84689641
GEMS238,2018_Oct_31_1139,Kramer,AG,1.4,2,GEMS213,10,6,2,,0-0,1,60,62-59,63-52;59-65;61-52;57-59;58-68;66-60,57-59,2.32,98,2,1761.23644679
GEMS238,2018_Oct_31_1139,Kramer,AG,1.4,2,GEMS213,10,6,2,,0-0,1,61,57-59,55-58;51-51;60-60;65-57;62-51;64-56,65-57,11.12,95,-3,1776.44005974
GEMS238,2018_Oct_31_1139,Kramer,AG,1.4,2,GEMS213,10,6,2,,0-0,1,62,65-57,60-50;70-54;65-57;64-51;65-55;60-56,70-54,7.25,92,-3,1787.76534957
GEMS238,2018_Oct_31_1139,Kramer,AG,1.4,2,GEMS213,10,6,2,,0-0,1,63,70-54,66-59;68-46;68-53;65-61;63-53;67-61,68-53,0.96,94,2,1792.80301617
GEMS238,2018_Oct_31_1139,Kramer,AG,1.4,2,GEMS213,10,6,2,,0-0,1,64,68-53,61-46;64-48;63-53;63-56;66-62;67-47,63-53,1.19,97,3,1798.06894895
GEMS238,2018_Oct_31_1139,Kramer,AG,1.4,2,GEMS213,10,6,2,,0-0,1,65,63-53,67-47;69-47;56-59;63-60;56-50;62-62,67-47,9.55,95,-2,1811.69305565
GEMS238,2018_Oct_31_1139,Kramer,AG,1.4,2,GEMS213,10,6,2,,0-0,1,66,67-47,63-49;61-44;58-50;66-54;63-56;68-50,66-54,7.11,95,0,1822.86745981
GEMS238,2018_Oct_31_1139,Kramer,AG,1.4,2,GEMS213,10,6,2,,0-0,1,67,66-54,61-57;66-61;58-57;66-63;69-51;65-45,61-57,3.94,97,2,1830.87109735
GEMS238,2018_Oct_31_1139,Kramer,AG,1.4,2,GEMS213,10,6,2,,0-0,1,68,61-57,57-48;64-52;65-48;66-56;53-52;68-53,68-53,5.34,94,-3,1840.29405485
GEMS238,2018_Oct_31_1139,Kramer,AG,1.4,2,GEMS213,10,6,2,,0-0,1,69,68-53,69-52;70-57;67-46;69-47;68-56;63-47,70-57,2.29,92,-2,1846.65725295
GEMS238,2018_Oct_31_1139,Kramer,AG,1.4,2,GEMS213,10,6,2,,0-0,1,70,70-57,65-52;69-48;68-66;69-63;63-58;69-49,68-66,2.34,89,-3,1853.08318316
GEMS238,2018_Oct_31_1139,Kramer,AG,1.4,2,GEMS213,10,6,2,,0-0,1,71,68-66,64-61;69-69;70-58;65-63;66-63;70-70,69-69,2.6,86,-3,1859.75755307
GEMS238,2018_Oct_31_1139,Kramer,AG,1.4,2,GEMS213,10,6,2,,0-0,1,72,69-69,62-62;59-69;70-68;67-67;69-59;66-63,69-59,3.44,92,6,1867.24022165
GEMS238,2018_Oct_31_1139,Kramer,AG,1.4,2,GEMS213,10,6,2,,0-0,1,73,69-59,64-55;68-57;60-60;63-58;68-50;70-53,60-60,3.19,97,5,1874.50574887
GEMS238,2018_Oct_31_1139,Kramer,AG,1.4,2,GEMS213,10,6,2,,0-0,1,74,60-60,67-54;63-53;55-62;58-68;59-52;67-53,67-53,3.66,95,-2,1882.22309828
GEMS238,2018_Oct_31_1139,Kramer,AG,1.4,2,GEMS213,10,6,2,,0-0,1,75,67-53,58-56;70-48;62-55;70-56;64-48;67-59,70-48,1.63,92,-3,1887.9207367
GEMS238,2018_Oct_31_1139,Kramer,AG,1.4,2,GEMS213,10,6,2,,0-0,1,76,70-48,64-50;66-53;67-47;68-46;63-55;70-43,67-47,1.05,95,3,1893.05026801
GEMS238,2018_Oct_31_1139,Kramer,AG,1.4,2,GEMS213,10,6,2,,0-0,1,77,67-47,68-43;70-38;69-42;69-49;70-45;67-48,70-38,2.18,90,-5,1899.29859825
GEMS238,2018_Oct_31_1139,Kramer,AG,1.4,2,GEMS213,10,6,2,,0-0,1,78,70-38,70-42;68-37;70-33;70-37;67-40;64-33,67-40,1.93,93,3,1905.30894141
GEMS238,2018_Oct_31_1139,Kramer,AG,1.4,2,GEMS213,10,6,2,,0-0,1,79,67-40,59-35;63-37;60-47;69-36;69-33;66-36,69-33,3.72,88,-5,1913.10361596
