subj_id,date,computer,experimenter,instructions,sight_radius,n_gabors,start_pos_list_ix,start_pos_list,landscape_ix,landscape_name,starting_pos,starting_score,trial,feedback,pos,stims,selected,rt,score,delta,exp_time
GEMS230,2018_Apr_20_1312,Kramer,SF,orientation,8,6,16,31-30;4-8;26-8;9-39,0,OrientationBias,0-0,0,0,training,0-0,1-1;0-6;4-6;5-2;7-3;1-0,0-6,27.96,0,0,417.676900877
GEMS230,2018_Apr_20_1312,Kramer,SF,orientation,8,6,16,31-30;4-8;26-8;9-39,0,OrientationBias,0-0,0,1,training,0-6,1-13;0-7;5-5;7-8;0-11;4-7,7-8,15.66,26,26,447.973662149
GEMS230,2018_Apr_20_1312,Kramer,SF,orientation,8,6,16,31-30;4-8;26-8;9-39,0,OrientationBias,0-0,0,2,training,7-8,11-5;3-4;4-8;15-8;9-14;6-5,6-5,24.43,22,-4,479.800277968
GEMS230,2018_Apr_20_1312,Kramer,SF,orientation,8,6,16,31-30;4-8;26-8;9-39,0,OrientationBias,0-0,0,3,training,6-5,11-1;1-7;7-12;6-8;3-10;9-1,1-7,32.39,3,-19,515.190965901
GEMS230,2018_Apr_20_1312,Kramer,SF,orientation,8,6,16,31-30;4-8;26-8;9-39,0,OrientationBias,0-0,0,4,training,1-7,2-4;7-5;2-8;1-6;0-1;3-14,1-6,10.4,3,0,529.928311765
GEMS230,2018_Apr_20_1312,Kramer,SF,orientation,8,6,16,31-30;4-8;26-8;9-39,0,OrientationBias,0-0,0,5,training,1-6,2-11;5-8;5-1;8-7;5-12;0-1,8-7,25.3,29,26,568.209984197
GEMS230,2018_Apr_20_1312,Kramer,SF,orientation,8,6,16,31-30;4-8;26-8;9-39,0,OrientationBias,0-0,0,6,training,8-7,6-9;7-0;10-10;9-12;5-7;11-8,11-8,9.44,39,10,584.544382585
GEMS230,2018_Apr_20_1312,Kramer,SF,orientation,8,6,16,31-30;4-8;26-8;9-39,0,OrientationBias,0-0,0,7,training,11-8,16-6;9-12;11-15;13-5;17-8;15-4,13-5,5.08,45,6,594.652776786
GEMS230,2018_Apr_20_1312,Kramer,SF,orientation,8,6,16,31-30;4-8;26-8;9-39,0,OrientationBias,0-0,0,8,training,13-5,9-0;19-0;20-4;16-9;13-1;14-5,20-4,7.35,64,19,607.457933284
GEMS230,2018_Apr_20_1312,Kramer,SF,orientation,8,6,16,31-30;4-8;26-8;9-39,0,OrientationBias,0-0,0,9,training,20-4,25-8;18-8;22-4;16-0;26-1;20-0,18-8,13.49,59,-5,624.298613967
GEMS230,2018_Apr_20_1312,Kramer,SF,orientation,8,6,16,31-30;4-8;26-8;9-39,0,OrientationBias,0-0,0,10,training,18-8,15-11;14-10;24-13;20-14;11-10;16-4,11-10,14.44,39,-20,645.632252136
GEMS230,2018_Apr_20_1312,Kramer,SF,orientation,8,6,16,31-30;4-8;26-8;9-39,0,OrientationBias,0-0,0,11,training,11-10,14-15;6-15;8-11;8-3;18-7;7-9,7-9,6.34,26,-13,655.122116567
GEMS230,2018_Apr_20_1312,Kramer,SF,orientation,8,6,16,31-30;4-8;26-8;9-39,0,OrientationBias,0-0,0,12,training,7-9,9-7;9-16;4-5;3-5;3-3;8-5,3-5,13.41,11,-15,671.080968037
GEMS230,2018_Apr_20_1312,Kramer,SF,orientation,8,6,16,31-30;4-8;26-8;9-39,0,OrientationBias,0-0,0,13,training,3-5,9-7;6-9;6-1;5-9;2-10;3-12,9-7,6.35,32,21,679.859899036
GEMS230,2018_Apr_20_1312,Kramer,SF,orientation,8,6,16,31-30;4-8;26-8;9-39,0,OrientationBias,0-0,0,14,training,9-7,10-13;6-6;14-8;6-4;16-10;2-9,6-6,7.14,22,-10,690.755669878
GEMS230,2018_Apr_20_1312,Kramer,SF,orientation,8,6,16,31-30;4-8;26-8;9-39,0,OrientationBias,0-0,0,15,training,6-6,10-2;8-8;5-4;5-1;7-10;9-13,5-4,12.61,19,-3,710.288323954
GEMS230,2018_Apr_20_1312,Kramer,SF,orientation,8,6,16,31-30;4-8;26-8;9-39,0,OrientationBias,0-0,0,16,training,5-4,7-11;7-2;6-4;2-8;2-7;10-4,10-4,8.5,36,17,723.400258059
GEMS230,2018_Apr_20_1312,Kramer,SF,orientation,8,6,16,31-30;4-8;26-8;9-39,0,OrientationBias,0-0,0,17,training,10-4,11-2;9-0;7-9;13-1;6-0;15-7,11-2,5.82,39,3,734.865905252
GEMS230,2018_Apr_20_1312,Kramer,SF,orientation,8,6,16,31-30;4-8;26-8;9-39,0,OrientationBias,0-0,0,18,training,11-2,4-4;5-4;15-3;15-8;10-9;7-7,5-4,12.77,19,-20,752.244507773
GEMS230,2018_Apr_20_1312,Kramer,SF,orientation,8,6,16,31-30;4-8;26-8;9-39,0,OrientationBias,0-0,0,19,training,5-4,6-11;2-7;9-6;13-4;1-6;3-7,13-4,3.34,45,26,760.475550215
GEMS230,2018_Apr_20_1312,Kramer,SF,orientation,8,6,16,31-30;4-8;26-8;9-39,0,OrientationBias,0-0,0,20,training,13-4,8-9;6-6;20-1;18-7;16-5;12-7,18-7,0.03,59,14,764.72165749
GEMS230,2018_Apr_20_1312,Kramer,SF,orientation,8,6,16,31-30;4-8;26-8;9-39,0,OrientationBias,0-0,0,21,training,18-7,15-8;21-8;21-11;13-4;14-8;12-5,12-5,7.69,42,-17,779.540430723
GEMS230,2018_Apr_20_1312,Kramer,SF,orientation,8,6,16,31-30;4-8;26-8;9-39,0,OrientationBias,0-0,0,22,training,12-5,11-9;17-3;11-8;10-6;18-8;10-10,17-3,8.31,56,14,791.266086168
GEMS230,2018_Apr_20_1312,Kramer,SF,orientation,8,6,16,31-30;4-8;26-8;9-39,0,OrientationBias,0-0,0,23,training,17-3,23-7;17-8;19-9;16-6;23-2;14-3,23-2,6.48,70,14,800.699246534
GEMS230,2018_Apr_20_1312,Kramer,SF,orientation,8,6,16,31-30;4-8;26-8;9-39,0,OrientationBias,0-0,0,24,training,23-2,24-8;19-0;23-3;16-5;27-8;17-2,16-5,8.18,53,-17,811.904741114
GEMS230,2018_Apr_20_1312,Kramer,SF,orientation,8,6,16,31-30;4-8;26-8;9-39,0,OrientationBias,0-0,0,25,training,16-5,11-0;10-6;18-9;19-5;13-4;16-13,19-5,5.96,61,8,821.469486383
GEMS230,2018_Apr_20_1312,Kramer,SF,orientation,8,6,16,31-30;4-8;26-8;9-39,0,OrientationBias,0-0,0,26,training,19-5,15-1;14-0;26-7;15-6;25-3;15-7,25-3,9.06,75,14,833.528010174
GEMS230,2018_Apr_20_1312,Kramer,SF,orientation,8,6,16,31-30;4-8;26-8;9-39,0,OrientationBias,0-0,0,27,training,25-3,22-3;24-3;27-5;29-1;17-3;30-5,27-5,7.64,78,3,847.260472706
GEMS230,2018_Apr_20_1312,Kramer,SF,orientation,8,6,16,31-30;4-8;26-8;9-39,0,OrientationBias,0-0,0,28,training,27-5,20-7;29-3;23-10;23-8;21-1;22-11,20-7,8.02,64,-14,859.499022918
GEMS230,2018_Apr_20_1312,Kramer,SF,orientation,8,6,16,31-30;4-8;26-8;9-39,0,OrientationBias,0-0,0,29,training,20-7,21-7;23-14;23-7;13-8;21-12;21-14,23-7,4.74,70,6,866.624967791
GEMS230,2018_Apr_20_1312,Kramer,SF,orientation,8,6,16,31-30;4-8;26-8;9-39,1,SimpleHill,31-30,84,0,selected,31-30,35-29;25-25;34-35;33-35;35-32;31-33,33-35,4.74,89,5,899.453157184
GEMS230,2018_Apr_20_1312,Kramer,SF,orientation,8,6,16,31-30;4-8;26-8;9-39,1,SimpleHill,31-30,84,1,selected,33-35,38-30;32-39;39-38;39-33;29-31;28-32,28-32,4.4,83,-6,907.407824405
GEMS230,2018_Apr_20_1312,Kramer,SF,orientation,8,6,16,31-30;4-8;26-8;9-39,1,SimpleHill,31-30,84,2,selected,28-32,32-29;25-36;24-29;29-39;25-35;30-28,25-36,1.87,83,0,912.846313671
GEMS230,2018_Apr_20_1312,Kramer,SF,orientation,8,6,16,31-30;4-8;26-8;9-39,1,SimpleHill,31-30,84,3,selected,25-36,29-36;25-28;32-37;24-32;21-32;28-29,32-37,1.64,90,7,918.068439296
GEMS230,2018_Apr_20_1312,Kramer,SF,orientation,8,6,16,31-30;4-8;26-8;9-39,1,SimpleHill,31-30,84,4,selected,32-37,27-36;27-37;32-36;36-36;30-30;32-38,27-36,1.29,85,-5,922.929639829
GEMS230,2018_Apr_20_1312,Kramer,SF,orientation,8,6,16,31-30;4-8;26-8;9-39,1,SimpleHill,31-30,84,5,selected,27-36,23-41;21-38;30-33;31-34;34-35;27-41,31-34,0.82,87,2,927.321242266
GEMS230,2018_Apr_20_1312,Kramer,SF,orientation,8,6,16,31-30;4-8;26-8;9-39,1,SimpleHill,31-30,84,6,selected,31-34,30-27;30-39;27-34;31-38;38-31;33-36,38-31,3.22,89,2,934.117474906
GEMS230,2018_Apr_20_1312,Kramer,SF,orientation,8,6,16,31-30;4-8;26-8;9-39,1,SimpleHill,31-30,84,7,selected,38-31,44-27;39-32;36-38;45-30;39-33;38-33,36-38,0.49,93,4,938.177761446
GEMS230,2018_Apr_20_1312,Kramer,SF,orientation,8,6,16,31-30;4-8;26-8;9-39,1,SimpleHill,31-30,84,8,selected,36-38,34-44;31-44;39-35;30-38;30-41;35-36,30-38,2.2,89,-4,943.933307128
GEMS230,2018_Apr_20_1312,Kramer,SF,orientation,8,6,16,31-30;4-8;26-8;9-39,1,SimpleHill,31-30,84,9,selected,30-38,36-36;28-42;31-34;24-39;28-45;36-42,36-36,0.33,92,3,947.824661334
GEMS230,2018_Apr_20_1312,Kramer,SF,orientation,8,6,16,31-30;4-8;26-8;9-39,1,SimpleHill,31-30,84,10,selected,36-36,41-40;36-28;32-39;32-32;28-36;36-31,32-39,1.67,91,-1,953.042260212
GEMS230,2018_Apr_20_1312,Kramer,SF,orientation,8,6,16,31-30;4-8;26-8;9-39,1,SimpleHill,31-30,84,11,selected,32-39,38-34;30-37;35-37;31-35;32-42;32-35,32-42,0.6,92,1,957.180239922
GEMS230,2018_Apr_20_1312,Kramer,SF,orientation,8,6,16,31-30;4-8;26-8;9-39,1,SimpleHill,31-30,84,12,selected,32-42,33-38;28-39;28-44;30-39;39-43;29-36,28-39,0.63,87,-5,961.389206545
GEMS230,2018_Apr_20_1312,Kramer,SF,orientation,8,6,16,31-30;4-8;26-8;9-39,1,SimpleHill,31-30,84,13,selected,28-39,28-31;30-43;34-38;28-44;24-40;22-39,22-39,2.24,81,-6,967.184952004
GEMS230,2018_Apr_20_1312,Kramer,SF,orientation,8,6,16,31-30;4-8;26-8;9-39,1,SimpleHill,31-30,84,14,selected,22-39,28-44;27-41;18-40;18-33;22-33;28-35,18-33,0.34,73,-8,971.096892638
GEMS230,2018_Apr_20_1312,Kramer,SF,orientation,8,6,16,31-30;4-8;26-8;9-39,1,SimpleHill,31-30,84,15,selected,18-33,17-33;20-40;17-38;16-36;10-33;16-26,17-38,0.32,75,2,974.991820997
GEMS230,2018_Apr_20_1312,Kramer,SF,orientation,8,6,16,31-30;4-8;26-8;9-39,1,SimpleHill,31-30,84,16,selected,17-38,10-41;16-40;20-37;18-38;23-41;22-37,16-40,0.29,74,-1,978.835749338
GEMS230,2018_Apr_20_1312,Kramer,SF,orientation,8,6,16,31-30;4-8;26-8;9-39,1,SimpleHill,31-30,84,17,selected,16-40,18-42;15-35;14-37;21-41;13-47;10-40,14-37,0.79,70,-4,983.189232601
GEMS230,2018_Apr_20_1312,Kramer,SF,orientation,8,6,16,31-30;4-8;26-8;9-39,1,SimpleHill,31-30,84,18,selected,14-37,19-42;8-36;10-32;19-31;17-40;19-37,19-42,1.24,79,9,987.993128254
GEMS230,2018_Apr_20_1312,Kramer,SF,orientation,8,6,16,31-30;4-8;26-8;9-39,1,SimpleHill,31-30,84,19,selected,19-42,17-43;20-36;16-38;25-47;19-38;21-46,20-36,4.23,78,-1,995.789619528
GEMS230,2018_Apr_20_1312,Kramer,SF,orientation,8,6,16,31-30;4-8;26-8;9-39,1,SimpleHill,31-30,84,20,selected,20-36,16-38;27-37;23-36;17-36;24-40;21-43,17-36,0.44,74,-4,999.808749856
GEMS230,2018_Apr_20_1312,Kramer,SF,orientation,8,6,16,31-30;4-8;26-8;9-39,1,SimpleHill,31-30,84,21,selected,17-36,21-38;11-31;15-32;20-37;15-31;11-41,15-31,0.37,68,-6,1003.74689678
GEMS230,2018_Apr_20_1312,Kramer,SF,orientation,8,6,16,31-30;4-8;26-8;9-39,1,SimpleHill,31-30,84,22,selected,15-31,13-24;14-33;13-30;17-27;8-31;20-31,8-31,0.33,57,-11,1007.64924969
GEMS230,2018_Apr_20_1312,Kramer,SF,orientation,8,6,16,31-30;4-8;26-8;9-39,1,SimpleHill,31-30,84,23,selected,8-31,10-28;3-32;3-31;8-36;2-33;8-32,10-28,0.32,58,1,1011.5177861
GEMS230,2018_Apr_20_1312,Kramer,SF,orientation,8,6,16,31-30;4-8;26-8;9-39,1,SimpleHill,31-30,84,24,selected,10-28,4-33;7-32;12-27;6-31;5-31;6-32,4-33,0.29,51,-7,1015.37718611
GEMS230,2018_Apr_20_1312,Kramer,SF,orientation,8,6,16,31-30;4-8;26-8;9-39,1,SimpleHill,31-30,84,25,selected,4-33,10-32;3-32;4-29;6-31;6-30;6-38,4-29,0.28,48,-3,1019.23109814
GEMS230,2018_Apr_20_1312,Kramer,SF,orientation,8,6,16,31-30;4-8;26-8;9-39,1,SimpleHill,31-30,84,26,selected,4-29,2-35;2-32;7-29;3-36;8-23;5-29,2-32,0.25,47,-1,1023.06165526
GEMS230,2018_Apr_20_1312,Kramer,SF,orientation,8,6,16,31-30;4-8;26-8;9-39,1,SimpleHill,31-30,84,27,selected,2-32,8-33;6-36;9-35;9-31;3-30;6-33,9-35,1.53,61,14,1028.13833693
GEMS230,2018_Apr_20_1312,Kramer,SF,orientation,8,6,16,31-30;4-8;26-8;9-39,1,SimpleHill,31-30,84,28,selected,9-35,3-38;3-32;1-35;5-35;14-35;6-38,14-35,2.78,69,8,1034.46516705
GEMS230,2018_Apr_20_1312,Kramer,SF,orientation,8,6,16,31-30;4-8;26-8;9-39,1,SimpleHill,31-30,84,29,selected,14-35,12-42;14-28;13-42;17-41;12-36;20-30,17-41,2.55,76,7,1040.59153221
GEMS230,2018_Apr_20_1312,Kramer,SF,orientation,8,6,16,31-30;4-8;26-8;9-39,1,SimpleHill,31-30,84,30,selected,17-41,24-43;22-42;21-35;17-37;19-48;15-46,15-46,3.43,75,-1,1047.59296878
GEMS230,2018_Apr_20_1312,Kramer,SF,orientation,8,6,16,31-30;4-8;26-8;9-39,1,SimpleHill,31-30,84,31,selected,15-46,11-46;9-51;19-51;11-50;15-42;17-41,19-51,0.61,80,5,1051.78229421
GEMS230,2018_Apr_20_1312,Kramer,SF,orientation,8,6,16,31-30;4-8;26-8;9-39,1,SimpleHill,31-30,84,32,selected,19-51,20-50;15-52;22-45;14-46;13-46;13-49,15-52,2.46,75,-5,1057.79801908
GEMS230,2018_Apr_20_1312,Kramer,SF,orientation,8,6,16,31-30;4-8;26-8;9-39,1,SimpleHill,31-30,84,33,selected,15-52,17-47;15-53;18-57;20-49;16-54;9-49,16-54,0.39,76,1,1061.73322979
GEMS230,2018_Apr_20_1312,Kramer,SF,orientation,8,6,16,31-30;4-8;26-8;9-39,1,SimpleHill,31-30,84,34,selected,16-54,13-59;22-50;23-55;16-54;12-52;22-52,12-52,1.02,71,-5,1066.30942253
GEMS230,2018_Apr_20_1312,Kramer,SF,orientation,8,6,16,31-30;4-8;26-8;9-39,1,SimpleHill,31-30,84,35,selected,12-52,5-51;7-51;9-51;15-55;8-53;5-55,5-51,0.76,59,-12,1070.62631922
GEMS230,2018_Apr_20_1312,Kramer,SF,orientation,8,6,16,31-30;4-8;26-8;9-39,1,SimpleHill,31-30,84,36,selected,5-51,6-48;6-45;5-57;11-54;10-50;8-47,11-54,1.73,69,10,1075.92939496
GEMS230,2018_Apr_20_1312,Kramer,SF,orientation,8,6,16,31-30;4-8;26-8;9-39,1,SimpleHill,31-30,84,37,selected,11-54,8-52;8-56;4-56;6-60;5-49;15-51,8-56,1.45,64,-5,1080.92315796
GEMS230,2018_Apr_20_1312,Kramer,SF,orientation,8,6,16,31-30;4-8;26-8;9-39,1,SimpleHill,31-30,84,38,selected,8-56,8-51;4-60;0-56;10-51;2-59;4-57,2-59,0.83,52,-12,1085.32294164
GEMS230,2018_Apr_20_1312,Kramer,SF,orientation,8,6,16,31-30;4-8;26-8;9-39,1,SimpleHill,31-30,84,39,selected,2-59,3-57;0-62;3-52;0-55;0-54;7-55,0-54,0.24,49,-3,1089.11919348
GEMS230,2018_Apr_20_1312,Kramer,SF,orientation,8,6,16,31-30;4-8;26-8;9-39,2,SimpleHill,4-8,22,0,selected,4-8,8-13;9-3;9-14;10-12;3-2;6-2,9-3,1.66,22,0,1109.05162804
GEMS230,2018_Apr_20_1312,Kramer,SF,orientation,8,6,16,31-30;4-8;26-8;9-39,2,SimpleHill,4-8,22,1,selected,9-3,8-10;12-2;7-8;7-2;10-4;14-5,10-4,2.91,25,3,1115.51745896
GEMS230,2018_Apr_20_1312,Kramer,SF,orientation,8,6,16,31-30;4-8;26-8;9-39,2,SimpleHill,4-8,22,2,selected,10-4,11-1;10-5;3-5;4-3;8-3;6-7,3-5,2.61,15,-10,1121.6994738
GEMS230,2018_Apr_20_1312,Kramer,SF,orientation,8,6,16,31-30;4-8;26-8;9-39,2,SimpleHill,4-8,22,3,selected,3-5,4-1;4-5;6-12;3-7;3-8;4-7,4-1,3.03,9,-6,1128.28503948
GEMS230,2018_Apr_20_1312,Kramer,SF,orientation,8,6,16,31-30;4-8;26-8;9-39,2,SimpleHill,4-8,22,4,selected,4-1,7-0;2-4;10-4;4-7;9-0;3-3,3-3,0.39,11,2,1132.25233852
GEMS230,2018_Apr_20_1312,Kramer,SF,orientation,8,6,16,31-30;4-8;26-8;9-39,2,SimpleHill,4-8,22,5,selected,3-3,5-3;4-7;8-5;4-1;7-8;5-8,8-5,1.15,24,13,1136.96865462
GEMS230,2018_Apr_20_1312,Kramer,SF,orientation,8,6,16,31-30;4-8;26-8;9-39,2,SimpleHill,4-8,22,6,selected,8-5,0-5;3-1;3-5;10-9;14-5;12-7,0-5,6.3,9,-15,1146.82710204
GEMS230,2018_Apr_20_1312,Kramer,SF,orientation,8,6,16,31-30;4-8;26-8;9-39,2,SimpleHill,4-8,22,7,selected,0-5,6-3;7-6;4-7;5-9;6-0;5-10,5-9,0.45,25,16,1150.84781458
GEMS230,2018_Apr_20_1312,Kramer,SF,orientation,8,6,16,31-30;4-8;26-8;9-39,2,SimpleHill,4-8,22,8,selected,5-9,9-4;4-4;3-4;7-3;3-14;2-10,4-4,1.07,15,-10,1155.49471991
GEMS230,2018_Apr_20_1312,Kramer,SF,orientation,8,6,16,31-30;4-8;26-8;9-39,2,SimpleHill,4-8,22,9,selected,4-4,6-6;7-4;10-1;9-1;3-8;2-3,3-8,0.92,20,5,1159.98295155
GEMS230,2018_Apr_20_1312,Kramer,SF,orientation,8,6,16,31-30;4-8;26-8;9-39,2,SimpleHill,4-8,22,10,selected,3-8,10-11;5-6;8-13;5-8;5-2;3-10,5-2,2.65,13,-7,1166.20389284
GEMS230,2018_Apr_20_1312,Kramer,SF,orientation,8,6,16,31-30;4-8;26-8;9-39,2,SimpleHill,4-8,22,11,selected,5-2,7-4;12-0;8-4;8-6;6-0;9-1,8-6,1.18,26,13,1170.95389004
GEMS230,2018_Apr_20_1312,Kramer,SF,orientation,8,6,16,31-30;4-8;26-8;9-39,2,SimpleHill,4-8,22,12,selected,8-6,8-8;11-6;13-12;7-7;4-9;3-11,8-8,3.08,29,3,1177.61243937
GEMS230,2018_Apr_20_1312,Kramer,SF,orientation,8,6,16,31-30;4-8;26-8;9-39,2,SimpleHill,4-8,22,13,selected,8-8,2-4;1-5;10-14;8-3;1-7;0-8,0-8,2.77,14,-15,1183.94728333
GEMS230,2018_Apr_20_1312,Kramer,SF,orientation,8,6,16,31-30;4-8;26-8;9-39,2,SimpleHill,4-8,22,14,selected,0-8,5-10;6-3;7-5;1-4;3-4;6-8,1-4,0.86,9,-5,1188.37158961
GEMS230,2018_Apr_20_1312,Kramer,SF,orientation,8,6,16,31-30;4-8;26-8;9-39,2,SimpleHill,4-8,22,15,selected,1-4,3-1;6-5;6-9;7-1;0-8;7-8,0-8,0.45,14,5,1192.3719478
GEMS230,2018_Apr_20_1312,Kramer,SF,orientation,8,6,16,31-30;4-8;26-8;9-39,2,SimpleHill,4-8,22,16,selected,0-8,4-4;6-4;2-11;2-12;6-12;2-9,6-4,2.4,18,4,1198.34985886
GEMS230,2018_Apr_20_1312,Kramer,SF,orientation,8,6,16,31-30;4-8;26-8;9-39,2,SimpleHill,4-8,22,17,selected,6-4,4-2;3-11;4-7;6-6;8-5;10-7,8-5,1.87,24,6,1203.78569263
GEMS230,2018_Apr_20_1312,Kramer,SF,orientation,8,6,16,31-30;4-8;26-8;9-39,2,SimpleHill,4-8,22,18,selected,8-5,5-9;1-7;7-7;11-4;9-7;14-6,11-4,2.13,27,3,1209.49577686
GEMS230,2018_Apr_20_1312,Kramer,SF,orientation,8,6,16,31-30;4-8;26-8;9-39,2,SimpleHill,4-8,22,19,selected,11-4,14-4;9-1;4-6;16-6;5-7;11-5,11-5,3.1,29,2,1216.18128182
GEMS230,2018_Apr_20_1312,Kramer,SF,orientation,8,6,16,31-30;4-8;26-8;9-39,2,SimpleHill,4-8,22,20,selected,11-5,12-12;14-12;6-9;18-3;16-8;4-7,18-3,3.0,35,6,1222.72980288
GEMS230,2018_Apr_20_1312,Kramer,SF,orientation,8,6,16,31-30;4-8;26-8;9-39,2,SimpleHill,4-8,22,21,selected,18-3,21-10;14-2;16-6;19-9;14-1;15-10,16-6,6.09,38,3,1232.39388278
GEMS230,2018_Apr_20_1312,Kramer,SF,orientation,8,6,16,31-30;4-8;26-8;9-39,2,SimpleHill,4-8,22,22,selected,16-6,9-4;10-6;12-2;15-11;22-2;20-1,9-4,2.07,24,-14,1238.02281555
GEMS230,2018_Apr_20_1312,Kramer,SF,orientation,8,6,16,31-30;4-8;26-8;9-39,2,SimpleHill,4-8,22,23,selected,9-4,12-11;10-1;4-3;16-2;13-1;15-2,4-3,1.59,13,-11,1243.17363513
GEMS230,2018_Apr_20_1312,Kramer,SF,orientation,8,6,16,31-30;4-8;26-8;9-39,2,SimpleHill,4-8,22,24,selected,4-3,4-9;12-3;1-5;6-3;8-8;5-7,6-3,0.44,17,4,1247.19087339
GEMS230,2018_Apr_20_1312,Kramer,SF,orientation,8,6,16,31-30;4-8;26-8;9-39,2,SimpleHill,4-8,22,25,selected,6-3,0-1;4-6;4-2;8-7;8-0;2-2,0-1,2.14,1,-16,1252.91189902
GEMS230,2018_Apr_20_1312,Kramer,SF,orientation,8,6,16,31-30;4-8;26-8;9-39,2,SimpleHill,4-8,22,26,selected,0-1,6-3;5-7;6-2;6-5;0-2;0-6,0-2,0.27,3,2,1256.73324484
GEMS230,2018_Apr_20_1312,Kramer,SF,orientation,8,6,16,31-30;4-8;26-8;9-39,2,SimpleHill,4-8,22,27,selected,0-2,1-5;7-1;6-1;4-8;6-7;2-8,6-1,1.56,13,10,1261.86173349
GEMS230,2018_Apr_20_1312,Kramer,SF,orientation,8,6,16,31-30;4-8;26-8;9-39,2,SimpleHill,4-8,22,28,selected,6-1,0-6;10-5;8-8;10-6;4-5;11-6,10-6,5.03,29,16,1270.4476071
GEMS230,2018_Apr_20_1312,Kramer,SF,orientation,8,6,16,31-30;4-8;26-8;9-39,2,SimpleHill,4-8,22,29,selected,10-6,12-4;12-5;12-6;5-7;11-2;9-11,12-4,2.24,28,-1,1276.25679772
GEMS230,2018_Apr_20_1312,Kramer,SF,orientation,8,6,16,31-30;4-8;26-8;9-39,2,SimpleHill,4-8,22,30,selected,12-4,5-4;15-0;16-8;16-0;8-0;6-5,5-4,2.94,17,-11,1282.76756452
GEMS230,2018_Apr_20_1312,Kramer,SF,orientation,8,6,16,31-30;4-8;26-8;9-39,2,SimpleHill,4-8,22,31,selected,5-4,8-11;1-10;4-1;8-2;3-1;5-11,4-1,1.86,9,-8,1288.21399015
GEMS230,2018_Apr_20_1312,Kramer,SF,orientation,8,6,16,31-30;4-8;26-8;9-39,2,SimpleHill,4-8,22,32,selected,4-1,8-3;5-5;2-3;1-0;5-2;9-7,5-2,0.72,13,4,1292.49589049
GEMS230,2018_Apr_20_1312,Kramer,SF,orientation,8,6,16,31-30;4-8;26-8;9-39,2,SimpleHill,4-8,22,33,selected,5-2,3-6;8-6;1-8;1-2;10-3;12-3,1-2,1.04,5,-8,1297.10567726
GEMS230,2018_Apr_20_1312,Kramer,SF,orientation,8,6,16,31-30;4-8;26-8;9-39,2,SimpleHill,4-8,22,34,selected,1-2,0-4;7-3;1-2;1-8;2-0;1-6,7-3,1.4,18,13,1302.08495351
GEMS230,2018_Apr_20_1312,Kramer,SF,orientation,8,6,16,31-30;4-8;26-8;9-39,2,SimpleHill,4-8,22,35,selected,7-3,7-0;14-2;8-7;9-3;4-1;0-0,14-2,0.96,28,10,1306.61880793
GEMS230,2018_Apr_20_1312,Kramer,SF,orientation,8,6,16,31-30;4-8;26-8;9-39,2,SimpleHill,4-8,22,36,selected,14-2,18-6;17-3;7-4;17-9;8-0;19-3,7-4,2.17,20,-8,1312.36458055
GEMS230,2018_Apr_20_1312,Kramer,SF,orientation,8,6,16,31-30;4-8;26-8;9-39,2,SimpleHill,4-8,22,37,selected,7-4,8-4;10-6;10-1;2-8;7-0;6-7,10-6,2.59,29,9,1318.52954086
GEMS230,2018_Apr_20_1312,Kramer,SF,orientation,8,6,16,31-30;4-8;26-8;9-39,2,SimpleHill,4-8,22,38,selected,10-6,7-13;10-1;17-7;6-11;12-11;13-9,10-1,0.72,19,-10,1322.83575094
GEMS230,2018_Apr_20_1312,Kramer,SF,orientation,8,6,16,31-30;4-8;26-8;9-39,2,SimpleHill,4-8,22,39,selected,10-1,13-1;14-2;12-7;8-1;16-1;5-3,13-1,0.87,24,5,1327.27579265
GEMS230,2018_Apr_20_1312,Kramer,SF,orientation,8,6,16,31-30;4-8;26-8;9-39,3,SimpleHill,26-8,53,0,selected,26-8,28-10;30-8;29-9;30-2;21-4;29-12,30-2,1.27,45,-8,1342.16392161
GEMS230,2018_Apr_20_1312,Kramer,SF,orientation,8,6,16,31-30;4-8;26-8;9-39,3,SimpleHill,26-8,53,1,selected,30-2,27-7;27-8;27-3;37-1;23-1;29-5,27-7,3.22,52,7,1348.94584579
GEMS230,2018_Apr_20_1312,Kramer,SF,orientation,8,6,16,31-30;4-8;26-8;9-39,3,SimpleHill,26-8,53,2,selected,27-7,31-11;25-7;26-5;31-9;31-5;26-12,31-5,5.64,52,0,1358.16088073
GEMS230,2018_Apr_20_1312,Kramer,SF,orientation,8,6,16,31-30;4-8;26-8;9-39,3,SimpleHill,26-8,53,3,selected,31-5,31-10;31-0;36-11;38-5;29-10;38-2,38-2,2.97,51,-1,1364.70749404
GEMS230,2018_Apr_20_1312,Kramer,SF,orientation,8,6,16,31-30;4-8;26-8;9-39,3,SimpleHill,26-8,53,4,selected,38-2,38-4;39-5;41-0;34-4;40-1;42-2,34-4,1.41,52,1,1369.67399796
GEMS230,2018_Apr_20_1312,Kramer,SF,orientation,8,6,16,31-30;4-8;26-8;9-39,3,SimpleHill,26-8,53,5,selected,34-4,39-0;40-3;37-7;32-4;32-9;37-8,40-3,2.54,53,1,1375.8024085
GEMS230,2018_Apr_20_1312,Kramer,SF,orientation,8,6,16,31-30;4-8;26-8;9-39,3,SimpleHill,26-8,53,6,selected,40-3,44-8;42-7;39-5;41-10;45-1;41-0,45-1,3.1,51,-2,1382.4723861
GEMS230,2018_Apr_20_1312,Kramer,SF,orientation,8,6,16,31-30;4-8;26-8;9-39,3,SimpleHill,26-8,53,7,selected,45-1,40-7;50-7;52-2;46-3;50-3;50-0,50-0,1.48,50,-1,1387.51539629
GEMS230,2018_Apr_20_1312,Kramer,SF,orientation,8,6,16,31-30;4-8;26-8;9-39,3,SimpleHill,26-8,53,8,selected,50-0,47-3;49-1;54-1;47-5;57-3;52-7,47-5,0.94,59,9,1392.010927
GEMS230,2018_Apr_20_1312,Kramer,SF,orientation,8,6,16,31-30;4-8;26-8;9-39,3,SimpleHill,26-8,53,9,selected,47-5,49-2;52-2;53-0;50-3;41-2;43-7,49-2,3.47,53,-6,1399.03395669
GEMS230,2018_Apr_20_1312,Kramer,SF,orientation,8,6,16,31-30;4-8;26-8;9-39,3,SimpleHill,26-8,53,10,selected,49-2,43-7;52-4;53-0;43-2;56-1;43-5,52-4,1.39,57,4,1404.00497296
GEMS230,2018_Apr_20_1312,Kramer,SF,orientation,8,6,16,31-30;4-8;26-8;9-39,3,SimpleHill,26-8,53,11,selected,52-4,55-10;50-3;47-0;55-4;56-2;58-3,50-3,1.88,55,-2,1409.45256309
GEMS230,2018_Apr_20_1312,Kramer,SF,orientation,8,6,16,31-30;4-8;26-8;9-39,3,SimpleHill,26-8,53,12,selected,50-3,51-2;57-6;49-5;53-4;46-6;54-7,57-6,4.88,60,5,1417.90757745
GEMS230,2018_Apr_20_1312,Kramer,SF,orientation,8,6,16,31-30;4-8;26-8;9-39,3,SimpleHill,26-8,53,13,selected,57-6,55-12;57-2;58-10;54-3;53-6;57-8,54-3,1.24,55,-5,1422.73121737
GEMS230,2018_Apr_20_1312,Kramer,SF,orientation,8,6,16,31-30;4-8;26-8;9-39,3,SimpleHill,26-8,53,14,selected,54-3,57-5;56-7;60-4;52-1;56-5;57-8,57-5,1.06,58,3,1427.34869372
GEMS230,2018_Apr_20_1312,Kramer,SF,orientation,8,6,16,31-30;4-8;26-8;9-39,3,SimpleHill,26-8,53,15,selected,57-5,54-6;60-2;61-9;57-4;53-7;54-8,54-6,0.9,60,2,1431.81422504
GEMS230,2018_Apr_20_1312,Kramer,SF,orientation,8,6,16,31-30;4-8;26-8;9-39,3,SimpleHill,26-8,53,16,selected,54-6,50-5;59-2;51-6;57-8;53-3;52-0,57-8,0.77,63,3,1436.15577813
GEMS230,2018_Apr_20_1312,Kramer,SF,orientation,8,6,16,31-30;4-8;26-8;9-39,3,SimpleHill,26-8,53,17,selected,57-8,56-12;64-8;54-2;52-12;64-11;60-8,64-11,0.86,65,2,1440.58186862
GEMS230,2018_Apr_20_1312,Kramer,SF,orientation,8,6,16,31-30;4-8;26-8;9-39,3,SimpleHill,26-8,53,18,selected,64-11,67-14;64-18;70-14;59-12;64-3;67-10,64-3,1.87,51,-14,1446.00675203
GEMS230,2018_Apr_20_1312,Kramer,SF,orientation,8,6,16,31-30;4-8;26-8;9-39,3,SimpleHill,26-8,53,19,selected,64-3,57-1;58-3;66-5;59-9;68-7;63-1,63-1,0.67,48,-3,1450.26428277
GEMS230,2018_Apr_20_1312,Kramer,SF,orientation,8,6,16,31-30;4-8;26-8;9-39,3,SimpleHill,26-8,53,20,selected,63-1,61-6;69-1;63-9;60-8;56-4;69-5,69-1,0.98,44,-4,1454.81038489
GEMS230,2018_Apr_20_1312,Kramer,SF,orientation,8,6,16,31-30;4-8;26-8;9-39,3,SimpleHill,26-8,53,21,selected,69-1,67-8;65-6;64-4;67-3;63-4;67-4,67-8,2.38,58,14,1460.76754595
GEMS230,2018_Apr_20_1312,Kramer,SF,orientation,8,6,16,31-30;4-8;26-8;9-39,3,SimpleHill,26-8,53,22,selected,67-8,67-11;63-7;64-14;60-5;68-1;65-5,63-7,3.27,59,1,1467.62562558
GEMS230,2018_Apr_20_1312,Kramer,SF,orientation,8,6,16,31-30;4-8;26-8;9-39,3,SimpleHill,26-8,53,23,selected,63-7,57-8;70-8;58-7;56-6;59-13;64-0,57-8,1.54,63,4,1472.75682605
GEMS230,2018_Apr_20_1312,Kramer,SF,orientation,8,6,16,31-30;4-8;26-8;9-39,3,SimpleHill,26-8,53,24,selected,57-8,60-5;63-3;61-6;52-8;52-7;54-10,52-8,3.07,64,1,1479.40836568
GEMS230,2018_Apr_20_1312,Kramer,SF,orientation,8,6,16,31-30;4-8;26-8;9-39,3,SimpleHill,26-8,53,25,selected,52-8,57-8;55-15;49-10;51-3;53-15;49-9,57-8,1.94,63,-1,1484.93073262
GEMS230,2018_Apr_20_1312,Kramer,SF,orientation,8,6,16,31-30;4-8;26-8;9-39,3,SimpleHill,26-8,53,26,selected,57-8,62-4;56-15;53-6;50-5;56-5;63-6,53-6,1.44,61,-2,1489.94351232
GEMS230,2018_Apr_20_1312,Kramer,SF,orientation,8,6,16,31-30;4-8;26-8;9-39,3,SimpleHill,26-8,53,27,selected,53-6,58-0;52-13;51-4;60-8;46-3;56-10,46-3,0.88,55,-6,1494.39678473
GEMS230,2018_Apr_20_1312,Kramer,SF,orientation,8,6,16,31-30;4-8;26-8;9-39,3,SimpleHill,26-8,53,28,selected,46-3,49-9;39-6;46-9;52-2;43-7;53-4,43-7,3.02,62,7,1500.96182321
GEMS230,2018_Apr_20_1312,Kramer,SF,orientation,8,6,16,31-30;4-8;26-8;9-39,3,SimpleHill,26-8,53,29,selected,43-7,44-1;38-10;38-8;38-4;41-4;36-8,38-4,1.79,54,-8,1506.31750583
GEMS230,2018_Apr_20_1312,Kramer,SF,orientation,8,6,16,31-30;4-8;26-8;9-39,3,SimpleHill,26-8,53,30,selected,38-4,31-3;35-2;38-7;34-6;44-4;39-8,31-3,2.63,48,-6,1512.52208046
GEMS230,2018_Apr_20_1312,Kramer,SF,orientation,8,6,16,31-30;4-8;26-8;9-39,3,SimpleHill,26-8,53,31,selected,31-3,25-3;38-3;31-5;28-2;24-3;38-2,31-5,0.5,52,4,1516.60935016
GEMS230,2018_Apr_20_1312,Kramer,SF,orientation,8,6,16,31-30;4-8;26-8;9-39,3,SimpleHill,26-8,53,32,selected,31-5,32-10;33-4;33-5;30-12;28-0;31-1,33-5,0.75,53,1,1520.92060074
GEMS230,2018_Apr_20_1312,Kramer,SF,orientation,8,6,16,31-30;4-8;26-8;9-39,3,SimpleHill,26-8,53,33,selected,33-5,30-8;33-5;38-7;34-10;33-0;29-4,34-10,0.63,62,9,1525.11946364
GEMS230,2018_Apr_20_1312,Kramer,SF,orientation,8,6,16,31-30;4-8;26-8;9-39,3,SimpleHill,26-8,53,34,selected,34-10,41-12;35-8;40-14;27-9;28-9;32-13,28-9,2.65,56,-6,1531.34386352
GEMS230,2018_Apr_20_1312,Kramer,SF,orientation,8,6,16,31-30;4-8;26-8;9-39,3,SimpleHill,26-8,53,35,selected,28-9,27-10;30-12;27-6;23-15;34-8;33-15,30-12,3.58,63,7,1538.50557905
GEMS230,2018_Apr_20_1312,Kramer,SF,orientation,8,6,16,31-30;4-8;26-8;9-39,3,SimpleHill,26-8,53,36,selected,30-12,23-14;29-13;36-13;26-10;32-16;30-5,29-13,2.71,63,0,1544.78225228
GEMS230,2018_Apr_20_1312,Kramer,SF,orientation,8,6,16,31-30;4-8;26-8;9-39,3,SimpleHill,26-8,53,37,selected,29-13,36-10;22-14;33-11;24-10;28-15;33-8,33-8,1.77,58,-5,1550.12722204
GEMS230,2018_Apr_20_1312,Kramer,SF,orientation,8,6,16,31-30;4-8;26-8;9-39,3,SimpleHill,26-8,53,38,selected,33-8,29-12;33-12;31-6;29-2;26-10;37-3,29-2,1.11,45,-13,1554.7917235
GEMS230,2018_Apr_20_1312,Kramer,SF,orientation,8,6,16,31-30;4-8;26-8;9-39,3,SimpleHill,26-8,53,39,selected,29-2,24-1;30-7;24-0;34-8;24-8;28-2,24-8,3.0,51,6,1561.36035917
GEMS230,2018_Apr_20_1312,Kramer,SF,orientation,8,6,16,31-30;4-8;26-8;9-39,4,SimpleHill,9-39,63,0,selected,9-39,3-38;9-36;10-37;9-46;7-42;11-45,10-37,2.5,64,1,1598.44687761
GEMS230,2018_Apr_20_1312,Kramer,SF,orientation,8,6,16,31-30;4-8;26-8;9-39,4,SimpleHill,9-39,63,1,selected,10-37,11-42;8-33;7-32;16-38;8-35;16-41,16-38,3.02,74,10,1605.05072634
GEMS230,2018_Apr_20_1312,Kramer,SF,orientation,8,6,16,31-30;4-8;26-8;9-39,4,SimpleHill,9-39,63,2,selected,16-38,20-41;17-36;13-43;9-41;15-40;19-35,17-36,4.1,74,0,1612.73604245
GEMS230,2018_Apr_20_1312,Kramer,SF,orientation,8,6,16,31-30;4-8;26-8;9-39,4,SimpleHill,9-39,63,3,selected,17-36,14-32;21-39;13-30;12-40;10-34;22-34,21-39,1.95,80,6,1618.25454011
GEMS230,2018_Apr_20_1312,Kramer,SF,orientation,8,6,16,31-30;4-8;26-8;9-39,4,SimpleHill,9-39,63,4,selected,21-39,20-45;16-45;20-32;18-45;25-39;24-41,24-41,3.49,84,4,1625.30651833
GEMS230,2018_Apr_20_1312,Kramer,SF,orientation,8,6,16,31-30;4-8;26-8;9-39,4,SimpleHill,9-39,63,5,selected,24-41,30-39;23-45;27-39;22-39;25-39;26-38,22-39,1.49,81,-3,1630.36824465
GEMS230,2018_Apr_20_1312,Kramer,SF,orientation,8,6,16,31-30;4-8;26-8;9-39,4,SimpleHill,9-39,63,6,selected,22-39,15-36;21-33;28-34;23-44;27-45;17-40,15-36,3.93,71,-10,1637.85670483
GEMS230,2018_Apr_20_1312,Kramer,SF,orientation,8,6,16,31-30;4-8;26-8;9-39,4,SimpleHill,9-39,63,7,selected,15-36,9-37;14-42;19-38;13-33;16-33;13-43,9-37,1.24,63,-8,1642.66477897
GEMS230,2018_Apr_20_1312,Kramer,SF,orientation,8,6,16,31-30;4-8;26-8;9-39,4,SimpleHill,9-39,63,8,selected,9-37,9-36;5-36;2-40;12-44;13-37;2-37,5-36,3.66,55,-8,1649.87574329
GEMS230,2018_Apr_20_1312,Kramer,SF,orientation,8,6,16,31-30;4-8;26-8;9-39,4,SimpleHill,9-39,63,9,selected,5-36,6-43;7-34;2-33;5-39;0-41;7-37,7-37,2.25,59,4,1655.7004965
GEMS230,2018_Apr_20_1312,Kramer,SF,orientation,8,6,16,31-30;4-8;26-8;9-39,4,SimpleHill,9-39,63,10,selected,7-37,5-31;8-32;0-35;9-42;11-35;10-35,9-42,3.43,65,6,1662.67451139
GEMS230,2018_Apr_20_1312,Kramer,SF,orientation,8,6,16,31-30;4-8;26-8;9-39,4,SimpleHill,9-39,63,11,selected,9-42,15-39;10-39;16-44;15-47;5-37;5-44,15-39,4.15,73,8,1670.38865855
GEMS230,2018_Apr_20_1312,Kramer,SF,orientation,8,6,16,31-30;4-8;26-8;9-39,4,SimpleHill,9-39,63,12,selected,15-39,16-36;12-44;19-40;9-39;18-42;22-41,9-39,4.16,63,-10,1678.11963841
GEMS230,2018_Apr_20_1312,Kramer,SF,orientation,8,6,16,31-30;4-8;26-8;9-39,4,SimpleHill,9-39,63,13,selected,9-39,4-40;9-31;7-40;7-36;5-44;4-44,4-40,1.26,55,-8,1682.9515636
GEMS230,2018_Apr_20_1312,Kramer,SF,orientation,8,6,16,31-30;4-8;26-8;9-39,4,SimpleHill,9-39,63,14,selected,4-40,6-38;11-38;5-43;9-42;4-34;3-38,5-43,1.93,58,3,1688.43592757
GEMS230,2018_Apr_20_1312,Kramer,SF,orientation,8,6,16,31-30;4-8;26-8;9-39,4,SimpleHill,9-39,63,15,selected,5-43,9-37;3-36;7-50;1-46;10-48;10-46,10-48,4.37,67,9,1696.37900008
GEMS230,2018_Apr_20_1312,Kramer,SF,orientation,8,6,16,31-30;4-8;26-8;9-39,4,SimpleHill,9-39,63,16,selected,10-48,4-52;16-45;7-49;5-42;7-46;11-44,5-42,3.3,58,-9,1703.25240093
GEMS230,2018_Apr_20_1312,Kramer,SF,orientation,8,6,16,31-30;4-8;26-8;9-39,4,SimpleHill,9-39,63,17,selected,5-42,1-40;0-45;3-46;3-40;2-48;9-45,1-40,1.96,49,-9,1708.75958589
GEMS230,2018_Apr_20_1312,Kramer,SF,orientation,8,6,16,31-30;4-8;26-8;9-39,4,SimpleHill,9-39,63,18,selected,1-40,0-37;5-44;7-41;6-42;1-47;3-35,7-41,3.0,61,12,1715.33712846
GEMS230,2018_Apr_20_1312,Kramer,SF,orientation,8,6,16,31-30;4-8;26-8;9-39,4,SimpleHill,9-39,63,19,selected,7-41,5-44;7-36;3-47;10-45;11-40;4-45,7-36,3.64,59,-2,1722.52399974
GEMS230,2018_Apr_20_1312,Kramer,SF,orientation,8,6,16,31-30;4-8;26-8;9-39,4,SimpleHill,9-39,63,20,selected,7-36,11-37;4-41;2-38;9-31;9-37;3-30,9-31,2.55,59,0,1728.61946124
GEMS230,2018_Apr_20_1312,Kramer,SF,orientation,8,6,16,31-30;4-8;26-8;9-39,4,SimpleHill,9-39,63,21,selected,9-31,9-32;9-30;10-30;12-34;7-25;12-26,12-26,1.09,59,0,1733.28960208
GEMS230,2018_Apr_20_1312,Kramer,SF,orientation,8,6,16,31-30;4-8;26-8;9-39,4,SimpleHill,9-39,63,22,selected,12-26,6-22;7-26;6-30;8-23;9-19;10-27,9-19,1.27,47,-12,1738.13842304
GEMS230,2018_Apr_20_1312,Kramer,SF,orientation,8,6,16,31-30;4-8;26-8;9-39,4,SimpleHill,9-39,63,23,selected,9-19,3-14;8-22;5-24;9-22;14-24;8-24,5-24,1.03,45,-2,1742.75583985
GEMS230,2018_Apr_20_1312,Kramer,SF,orientation,8,6,16,31-30;4-8;26-8;9-39,4,SimpleHill,9-39,63,24,selected,5-24,0-30;5-21;2-18;1-20;8-29;7-24,0-30,1.59,42,-3,1747.92513709
GEMS230,2018_Apr_20_1312,Kramer,SF,orientation,8,6,16,31-30;4-8;26-8;9-39,4,SimpleHill,9-39,63,25,selected,0-30,2-35;5-29;5-27;6-27;6-25;3-27,6-27,0.32,50,8,1751.79278204
GEMS230,2018_Apr_20_1312,Kramer,SF,orientation,8,6,16,31-30;4-8;26-8;9-39,4,SimpleHill,9-39,63,26,selected,6-27,9-23;10-21;10-22;3-20;9-21;3-27,3-27,0.37,45,-5,1755.73454345
GEMS230,2018_Apr_20_1312,Kramer,SF,orientation,8,6,16,31-30;4-8;26-8;9-39,4,SimpleHill,9-39,63,27,selected,3-27,10-26;0-31;8-22;2-22;1-32;2-24,10-26,1.88,56,11,1761.19794776
GEMS230,2018_Apr_20_1312,Kramer,SF,orientation,8,6,16,31-30;4-8;26-8;9-39,4,SimpleHill,9-39,63,28,selected,10-26,15-20;8-27;11-25;5-30;17-27;8-19,17-27,1.52,67,11,1766.29383403
GEMS230,2018_Apr_20_1312,Kramer,SF,orientation,8,6,16,31-30;4-8;26-8;9-39,4,SimpleHill,9-39,63,29,selected,17-27,19-33;18-29;23-24;18-21;10-29;9-27,10-29,1.69,59,-8,1771.55502246
GEMS230,2018_Apr_20_1312,Kramer,SF,orientation,8,6,16,31-30;4-8;26-8;9-39,4,SimpleHill,9-39,63,30,selected,10-29,3-26;7-34;15-35;12-31;14-27;3-31,3-26,0.79,44,-15,1775.91578078
GEMS230,2018_Apr_20_1312,Kramer,SF,orientation,8,6,16,31-30;4-8;26-8;9-39,4,SimpleHill,9-39,63,31,selected,3-26,7-21;1-30;6-24;6-30;1-31;6-20,6-30,3.84,53,9,1783.33926219
GEMS230,2018_Apr_20_1312,Kramer,SF,orientation,8,6,16,31-30;4-8;26-8;9-39,4,SimpleHill,9-39,63,32,selected,6-30,9-23;12-28;3-24;8-32;9-27;1-29,12-28,2.37,61,8,1789.27287981
GEMS230,2018_Apr_20_1312,Kramer,SF,orientation,8,6,16,31-30;4-8;26-8;9-39,4,SimpleHill,9-39,63,33,selected,12-28,8-23;10-27;17-25;10-33;19-26;5-29,10-27,0.71,57,-4,1793.5442155
GEMS230,2018_Apr_20_1312,Kramer,SF,orientation,8,6,16,31-30;4-8;26-8;9-39,4,SimpleHill,9-39,63,34,selected,10-27,9-30;14-31;4-23;9-20;3-27;11-29,9-30,2.91,58,1,1800.03421309
GEMS230,2018_Apr_20_1312,Kramer,SF,orientation,8,6,16,31-30;4-8;26-8;9-39,4,SimpleHill,9-39,63,35,selected,9-30,7-25;7-31;12-31;14-33;12-30;7-35,14-33,0.63,68,10,1804.22702368
GEMS230,2018_Apr_20_1312,Kramer,SF,orientation,8,6,16,31-30;4-8;26-8;9-39,4,SimpleHill,9-39,63,36,selected,14-33,19-29;12-30;12-35;10-30;17-35;18-32,18-32,1.67,73,5,1809.45253492
GEMS230,2018_Apr_20_1312,Kramer,SF,orientation,8,6,16,31-30;4-8;26-8;9-39,4,SimpleHill,9-39,63,37,selected,18-32,23-30;11-32;14-27;23-34;15-28;20-32,23-30,0.97,77,4,1813.98384717
GEMS230,2018_Apr_20_1312,Kramer,SF,orientation,8,6,16,31-30;4-8;26-8;9-39,4,SimpleHill,9-39,63,38,selected,23-30,29-34;22-33;19-32;21-27;27-36;19-33,19-32,2.74,74,-3,1820.2771252
GEMS230,2018_Apr_20_1312,Kramer,SF,orientation,8,6,16,31-30;4-8;26-8;9-39,4,SimpleHill,9-39,63,39,selected,19-32,24-36;15-28;24-29;26-35;23-35;23-30,23-30,1.65,77,3,1825.48310632
