subj_id,date,computer,experimenter,instructions,sight_radius,n_gabors,start_pos_list_ix,start_pos_list,landscape_ix,landscape_name,starting_pos,starting_score,trial,feedback,pos,stims,selected,rt,score,delta,exp_time
GEMS117,2018_Mar_06_1414,Kramer,GH,orientation,8,6,0,0-0;0-0;0-0;0-0,0,OrientationBias,0-0,0,0,training,0-0,5-4;7-0;0-5;7-3;2-0;0-2,0-5,1.17,0,0,215.087159349
GEMS117,2018_Mar_06_1414,Kramer,GH,orientation,8,6,0,0-0;0-0;0-0;0-0,0,OrientationBias,0-0,0,1,training,0-5,4-9;7-6;1-11;6-7;0-13;5-3,7-6,0.87,26,26,220.907648746
GEMS117,2018_Mar_06_1414,Kramer,GH,orientation,8,6,0,0-0;0-0;0-0;0-0,0,OrientationBias,0-0,0,2,training,7-6,7-13;8-7;7-11;9-11;1-1;13-2,8-7,0.72,29,3,225.276243609
GEMS117,2018_Mar_06_1414,Kramer,GH,orientation,8,6,0,0-0;0-0;0-0;0-0,0,OrientationBias,0-0,0,3,training,8-7,16-7;4-5;5-5;14-2;9-6;13-8,13-8,0.75,45,16,230.223395647
GEMS117,2018_Mar_06_1414,Kramer,GH,orientation,8,6,0,0-0;0-0;0-0;0-0,0,OrientationBias,0-0,0,4,training,13-8,10-12;8-8;20-6;12-2;6-6;14-11,10-12,0.63,36,-9,233.367129798
GEMS117,2018_Mar_06_1414,Kramer,GH,orientation,8,6,0,0-0;0-0;0-0;0-0,0,OrientationBias,0-0,0,5,training,10-12,13-6;9-7;8-15;7-8;17-10;12-15,9-7,0.65,32,-4,236.510639885
GEMS117,2018_Mar_06_1414,Kramer,GH,orientation,8,6,0,0-0;0-0;0-0;0-0,0,OrientationBias,0-0,0,6,training,9-7,2-6;10-11;11-12;8-7;7-13;4-2,7-13,0.67,26,-6,239.67718577
GEMS117,2018_Mar_06_1414,Kramer,GH,orientation,8,6,0,0-0;0-0;0-0;0-0,0,OrientationBias,0-0,0,7,training,7-13,13-15;5-9;7-14;13-18;5-18;3-11,7-14,0.53,26,0,244.460151967
GEMS117,2018_Mar_06_1414,Kramer,GH,orientation,8,6,0,0-0;0-0;0-0;0-0,0,OrientationBias,0-0,0,8,training,7-14,3-19;7-18;5-10;13-9;5-9;6-13,3-19,1.27,11,-15,248.41394113
GEMS117,2018_Mar_06_1414,Kramer,GH,orientation,8,6,0,0-0;0-0;0-0;0-0,0,OrientationBias,0-0,0,9,training,3-19,5-19;2-12;4-21;5-20;7-20;6-17,5-20,0.84,19,8,251.86116871
GEMS117,2018_Mar_06_1414,Kramer,GH,orientation,8,6,0,0-0;0-0;0-0;0-0,0,OrientationBias,0-0,0,10,training,5-20,9-19;3-20;7-25;5-15;5-16;12-17,9-19,0.54,32,13,254.849054478
GEMS117,2018_Mar_06_1414,Kramer,GH,orientation,8,6,0,0-0;0-0;0-0;0-0,0,OrientationBias,0-0,0,11,training,9-19,12-19;11-12;16-22;7-18;15-14;10-20,11-12,0.88,39,7,257.946552504
GEMS117,2018_Mar_06_1414,Kramer,GH,orientation,8,6,0,0-0;0-0;0-0;0-0,0,OrientationBias,0-0,0,12,training,11-12,10-11;7-11;13-12;14-9;8-6;12-16,13-12,0.76,45,6,262.959405191
GEMS117,2018_Mar_06_1414,Kramer,GH,orientation,8,6,0,0-0;0-0;0-0;0-0,0,OrientationBias,0-0,0,13,training,13-12,13-12;11-11;11-5;17-13;9-17;17-15,11-5,0.62,39,-6,267.153125034
GEMS117,2018_Mar_06_1414,Kramer,GH,orientation,8,6,0,0-0;0-0;0-0;0-0,0,OrientationBias,0-0,0,14,training,11-5,13-9;8-7;7-7;11-3;9-3;18-3,13-9,0.41,45,6,269.862389224
GEMS117,2018_Mar_06_1414,Kramer,GH,orientation,8,6,0,0-0;0-0;0-0;0-0,0,OrientationBias,0-0,0,15,training,13-9,11-12;8-4;10-15;16-16;14-11;10-10,16-16,0.53,53,8,272.699291058
GEMS117,2018_Mar_06_1414,Kramer,GH,orientation,8,6,0,0-0;0-0;0-0;0-0,0,OrientationBias,0-0,0,16,training,16-16,15-20;9-19;17-20;11-15;16-14;20-12,11-15,0.56,39,-14,277.123607356
GEMS117,2018_Mar_06_1414,Kramer,GH,orientation,8,6,0,0-0;0-0;0-0;0-0,0,OrientationBias,0-0,0,17,training,11-15,12-9;13-21;5-10;10-12;14-16;13-22,13-22,0.68,45,6,280.24596443
GEMS117,2018_Mar_06_1414,Kramer,GH,orientation,8,6,0,0-0;0-0;0-0;0-0,0,OrientationBias,0-0,0,18,training,13-22,9-21;18-21;16-15;20-20;9-20;13-21,16-15,0.91,53,8,284.389662091
GEMS117,2018_Mar_06_1414,Kramer,GH,orientation,8,6,0,0-0;0-0;0-0;0-0,0,OrientationBias,0-0,0,19,training,16-15,23-17;22-13;22-17;23-16;16-14;20-11,22-13,0.64,68,15,287.559141306
GEMS117,2018_Mar_06_1414,Kramer,GH,orientation,8,6,0,0-0;0-0;0-0;0-0,0,OrientationBias,0-0,0,20,training,22-13,18-13;15-14;16-18;23-8;22-16;27-13,16-18,0.81,53,-15,291.420660198
GEMS117,2018_Mar_06_1414,Kramer,GH,orientation,8,6,0,0-0;0-0;0-0;0-0,0,OrientationBias,0-0,0,21,training,16-18,10-22;17-11;17-22;20-20;13-18;14-11,20-20,0.58,64,11,294.4584033
GEMS117,2018_Mar_06_1414,Kramer,GH,orientation,8,6,0,0-0;0-0;0-0;0-0,0,OrientationBias,0-0,0,22,training,20-20,21-20;21-22;19-19;22-18;26-25;25-18,22-18,0.63,68,4,297.921192512
GEMS117,2018_Mar_06_1414,Kramer,GH,orientation,8,6,0,0-0;0-0;0-0;0-0,0,OrientationBias,0-0,0,23,training,22-18,18-22;26-17;24-18;24-24;18-15;24-25,24-18,0.59,72,4,301.896277449
GEMS117,2018_Mar_06_1414,Kramer,GH,orientation,8,6,0,0-0;0-0;0-0;0-0,0,OrientationBias,0-0,0,24,training,24-18,30-22;21-19;31-15;27-24;24-25;24-12,21-19,0.53,66,-6,305.485401528
GEMS117,2018_Mar_06_1414,Kramer,GH,orientation,8,6,0,0-0;0-0;0-0;0-0,0,OrientationBias,0-0,0,25,training,21-19,20-14;27-20;23-17;28-19;20-25;14-18,20-25,0.55,64,-2,309.052833558
GEMS117,2018_Mar_06_1414,Kramer,GH,orientation,8,6,0,0-0;0-0;0-0;0-0,0,OrientationBias,0-0,0,26,training,20-25,23-30;17-28;20-33;20-27;26-30;17-23,20-33,0.76,64,0,312.261522861
GEMS117,2018_Mar_06_1414,Kramer,GH,orientation,8,6,0,0-0;0-0;0-0;0-0,0,OrientationBias,0-0,0,27,training,20-33,24-39;14-35;18-36;14-32;12-33;27-30,24-39,0.62,72,8,315.42573783
GEMS117,2018_Mar_06_1414,Kramer,GH,orientation,8,6,0,0-0;0-0;0-0;0-0,0,OrientationBias,0-0,0,28,training,24-39,17-36;30-40;19-43;24-44;22-42;20-38,30-40,0.7,84,12,318.423166845
GEMS117,2018_Mar_06_1414,Kramer,GH,orientation,8,6,0,0-0;0-0;0-0;0-0,0,OrientationBias,0-0,0,29,training,30-40,37-41;26-34;25-45;30-48;33-39;32-35,26-34,0.68,76,-8,322.198061902
GEMS117,2018_Mar_06_1414,Kramer,GH,orientation,8,6,0,0-0;0-0;0-0;0-0,1,SimpleHill,0-0,0,0,selected,0-0,3-4;0-2;4-1;0-4;6-4;1-2,4-1,1.06,9,9,360.469181785
GEMS117,2018_Mar_06_1414,Kramer,GH,orientation,8,6,0,0-0;0-0;0-0;0-0,1,SimpleHill,0-0,0,1,selected,4-1,6-2;5-1;7-5;9-4;0-0;9-1,7-5,1.83,22,13,365.883534234
GEMS117,2018_Mar_06_1414,Kramer,GH,orientation,8,6,0,0-0;0-0;0-0;0-0,1,SimpleHill,0-0,0,2,selected,7-5,4-6;12-6;4-5;0-7;8-12;11-3,4-5,1.88,17,-5,371.334072214
GEMS117,2018_Mar_06_1414,Kramer,GH,orientation,8,6,0,0-0;0-0;0-0;0-0,1,SimpleHill,0-0,0,3,selected,4-5,2-6;2-4;3-5;8-7;7-12;6-2,2-6,0.69,15,-2,375.584082617
GEMS117,2018_Mar_06_1414,Kramer,GH,orientation,8,6,0,0-0;0-0;0-0;0-0,1,SimpleHill,0-0,0,4,selected,2-6,3-7;0-10;1-7;0-5;0-12;3-10,3-7,0.27,18,3,379.426025593
GEMS117,2018_Mar_06_1414,Kramer,GH,orientation,8,6,0,0-0;0-0;0-0;0-0,1,SimpleHill,0-0,0,5,selected,3-7,10-6;6-1;2-2;3-14;5-2;6-2,3-14,2.01,29,11,385.012196176
GEMS117,2018_Mar_06_1414,Kramer,GH,orientation,8,6,0,0-0;0-0;0-0;0-0,1,SimpleHill,0-0,0,6,selected,3-14,7-11;6-18;6-13;3-16;8-14;6-10,6-18,1.39,40,11,389.970763044
GEMS117,2018_Mar_06_1414,Kramer,GH,orientation,8,6,0,0-0;0-0;0-0;0-0,1,SimpleHill,0-0,0,7,selected,6-18,1-16;9-16;5-24;1-20;8-11;6-22,9-16,0.76,43,3,394.311039937
GEMS117,2018_Mar_06_1414,Kramer,GH,orientation,8,6,0,0-0;0-0;0-0;0-0,1,SimpleHill,0-0,0,8,selected,9-16,9-18;6-16;10-20;11-16;14-18;10-19,11-16,1.41,46,3,399.307447215
GEMS117,2018_Mar_06_1414,Kramer,GH,orientation,8,6,0,0-0;0-0;0-0;0-0,1,SimpleHill,0-0,0,9,selected,11-16,13-14;15-13;8-9;9-18;6-16;10-14,9-18,2.7,45,-1,405.581882299
GEMS117,2018_Mar_06_1414,Kramer,GH,orientation,8,6,0,0-0;0-0;0-0;0-0,1,SimpleHill,0-0,0,10,selected,9-18,5-15;9-19;16-17;14-21;9-18;5-20,14-21,1.06,57,12,410.201728245
GEMS117,2018_Mar_06_1414,Kramer,GH,orientation,8,6,0,0-0;0-0;0-0;0-0,1,SimpleHill,0-0,0,11,selected,14-21,13-26;8-19;20-24;14-17;20-25;14-18,20-25,2.37,69,12,416.153035408
GEMS117,2018_Mar_06_1414,Kramer,GH,orientation,8,6,0,0-0;0-0;0-0;0-0,1,SimpleHill,0-0,0,12,selected,20-25,26-22;24-31;22-19;23-22;19-25;15-23,19-25,2.13,68,-1,421.862736845
GEMS117,2018_Mar_06_1414,Kramer,GH,orientation,8,6,0,0-0;0-0;0-0;0-0,1,SimpleHill,0-0,0,13,selected,19-25,15-30;19-25;20-19;15-24;15-29;22-27,19-25,1.24,68,0,426.709282435
GEMS117,2018_Mar_06_1414,Kramer,GH,orientation,8,6,0,0-0;0-0;0-0;0-0,1,SimpleHill,0-0,0,14,selected,19-25,24-22;26-24;21-20;12-23;20-26;17-23,26-24,2.52,74,6,432.802228742
GEMS117,2018_Mar_06_1414,Kramer,GH,orientation,8,6,0,0-0;0-0;0-0;0-0,1,SimpleHill,0-0,0,15,selected,26-24,28-30;28-29;22-30;19-27;21-20;23-26,22-30,1.8,76,2,438.173522628
GEMS117,2018_Mar_06_1414,Kramer,GH,orientation,8,6,0,0-0;0-0;0-0;0-0,1,SimpleHill,0-0,0,16,selected,22-30,20-37;15-33;22-36;18-36;24-37;28-30,20-37,0.79,78,2,442.545207026
GEMS117,2018_Mar_06_1414,Kramer,GH,orientation,8,6,0,0-0;0-0;0-0;0-0,1,SimpleHill,0-0,0,17,selected,20-37,21-37;26-35;20-29;22-37;25-41;23-34,26-35,1.31,83,5,447.432345506
GEMS117,2018_Mar_06_1414,Kramer,GH,orientation,8,6,0,0-0;0-0;0-0;0-0,1,SimpleHill,0-0,0,18,selected,26-35,32-31;28-30;29-33;30-37;20-35;20-39,28-30,0.84,82,-1,451.852754751
GEMS117,2018_Mar_06_1414,Kramer,GH,orientation,8,6,0,0-0;0-0;0-0;0-0,1,SimpleHill,0-0,0,19,selected,28-30,23-27;31-30;22-30;32-33;26-34;31-35,31-30,0.57,84,2,455.998715468
GEMS117,2018_Mar_06_1414,Kramer,GH,orientation,8,6,0,0-0;0-0;0-0;0-0,1,SimpleHill,0-0,0,20,selected,31-30,29-29;28-25;29-27;33-30;36-36;31-27,33-30,0.67,86,2,460.213858162
GEMS117,2018_Mar_06_1414,Kramer,GH,orientation,8,6,0,0-0;0-0;0-0;0-0,1,SimpleHill,0-0,0,21,selected,33-30,38-28;38-26;27-30;29-26;31-34;35-26,29-26,0.44,79,-7,464.232128419
GEMS117,2018_Mar_06_1414,Kramer,GH,orientation,8,6,0,0-0;0-0;0-0;0-0,1,SimpleHill,0-0,0,22,selected,29-26,24-29;23-30;33-26;28-22;31-31;35-28,23-30,1.26,77,-2,469.071204964
GEMS117,2018_Mar_06_1414,Kramer,GH,orientation,8,6,0,0-0;0-0;0-0;0-0,1,SimpleHill,0-0,0,23,selected,23-30,27-24;18-30;27-28;28-34;19-29;16-30,19-29,1.62,71,-6,474.274724768
GEMS117,2018_Mar_06_1414,Kramer,GH,orientation,8,6,0,0-0;0-0;0-0;0-0,1,SimpleHill,0-0,0,24,selected,19-29,20-24;21-24;19-33;14-34;19-24;24-35,19-33,0.73,75,4,478.589338861
GEMS117,2018_Mar_06_1414,Kramer,GH,orientation,8,6,0,0-0;0-0;0-0;0-0,1,SimpleHill,0-0,0,25,selected,19-33,22-26;27-33;15-35;26-30;12-32;21-39,15-35,0.71,71,-4,482.861214483
GEMS117,2018_Mar_06_1414,Kramer,GH,orientation,8,6,0,0-0;0-0;0-0;0-0,1,SimpleHill,0-0,0,26,selected,15-35,18-37;22-32;14-31;20-29;19-36;10-29,22-32,0.62,77,6,487.063622926
GEMS117,2018_Mar_06_1414,Kramer,GH,orientation,8,6,0,0-0;0-0;0-0;0-0,1,SimpleHill,0-0,0,27,selected,22-32,17-27;20-35;24-30;20-25;25-34;15-34,20-35,1.44,77,0,492.047027714
GEMS117,2018_Mar_06_1414,Kramer,GH,orientation,8,6,0,0-0;0-0;0-0;0-0,1,SimpleHill,0-0,0,28,selected,20-35,13-36;21-42;26-31;20-28;23-29;26-34,21-42,1.66,81,4,497.256781646
GEMS117,2018_Mar_06_1414,Kramer,GH,orientation,8,6,0,0-0;0-0;0-0;0-0,1,SimpleHill,0-0,0,29,selected,21-42,26-47;26-48;26-46;25-37;20-48;29-42,26-47,2.11,88,7,502.938242575
GEMS117,2018_Mar_06_1414,Kramer,GH,orientation,8,6,0,0-0;0-0;0-0;0-0,1,SimpleHill,0-0,0,30,selected,26-47,26-47;31-44;25-41;30-41;29-47;31-45,29-47,2.51,91,3,509.025623749
GEMS117,2018_Mar_06_1414,Kramer,GH,orientation,8,6,0,0-0;0-0;0-0;0-0,1,SimpleHill,0-0,0,31,selected,29-47,23-47;22-45;30-50;24-48;36-46;23-49,23-47,0.78,85,-6,513.371957438
GEMS117,2018_Mar_06_1414,Kramer,GH,orientation,8,6,0,0-0;0-0;0-0;0-0,1,SimpleHill,0-0,0,32,selected,23-47,30-44;27-51;29-46;19-53;28-46;26-51,29-46,0.85,90,5,517.80046183
GEMS117,2018_Mar_06_1414,Kramer,GH,orientation,8,6,0,0-0;0-0;0-0;0-0,1,SimpleHill,0-0,0,33,selected,29-46,22-43;30-51;30-48;30-40;25-45;35-42,35-42,0.72,94,4,522.078358398
GEMS117,2018_Mar_06_1414,Kramer,GH,orientation,8,6,0,0-0;0-0;0-0;0-0,1,SimpleHill,0-0,0,34,selected,35-42,35-38;37-40;37-39;30-40;34-36;38-39,37-40,1.02,94,0,526.678148929
GEMS117,2018_Mar_06_1414,Kramer,GH,orientation,8,6,0,0-0;0-0;0-0;0-0,1,SimpleHill,0-0,0,35,selected,37-40,37-35;34-47;30-38;33-38;32-38;34-44,34-47,1.32,94,0,531.56964131
GEMS117,2018_Mar_06_1414,Kramer,GH,orientation,8,6,0,0-0;0-0;0-0;0-0,1,SimpleHill,0-0,0,36,selected,34-47,32-43;36-42;30-52;38-53;37-54;40-52,40-52,0.81,97,3,535.93294536
GEMS117,2018_Mar_06_1414,Kramer,GH,orientation,8,6,0,0-0;0-0;0-0;0-0,1,SimpleHill,0-0,0,37,selected,40-52,47-50;39-52;44-50;37-57;37-48;43-55,37-57,1.07,95,-2,540.570198912
GEMS117,2018_Mar_06_1414,Kramer,GH,orientation,8,6,0,0-0;0-0;0-0;0-0,1,SimpleHill,0-0,0,38,selected,37-57,33-57;40-64;39-59;31-60;41-62;36-56,40-64,1.85,94,-1,545.963186767
GEMS117,2018_Mar_06_1414,Kramer,GH,orientation,8,6,0,0-0;0-0;0-0;0-0,1,SimpleHill,0-0,0,39,selected,40-64,34-63;41-59;45-68;35-61;41-65;41-66,45-68,0.96,93,-1,550.492231348
GEMS117,2018_Mar_06_1414,Kramer,GH,orientation,8,6,0,0-0;0-0;0-0;0-0,2,SimpleHill,0-0,0,0,selected,0-0,0-4;4-3;4-4;0-8;3-0;5-3,4-4,1.71,15,15,566.134424892
GEMS117,2018_Mar_06_1414,Kramer,GH,orientation,8,6,0,0-0;0-0;0-0;0-0,2,SimpleHill,0-0,0,1,selected,4-4,7-9;3-11;2-6;7-1;6-9;5-3,2-6,1.4,15,0,571.091096811
GEMS117,2018_Mar_06_1414,Kramer,GH,orientation,8,6,0,0-0;0-0;0-0;0-0,2,SimpleHill,0-0,0,2,selected,2-6,0-1;2-8;5-12;4-3;10-6;8-6,0-1,2.83,1,-14,577.493700894
GEMS117,2018_Mar_06_1414,Kramer,GH,orientation,8,6,0,0-0;0-0;0-0;0-0,2,SimpleHill,0-0,0,3,selected,0-1,6-3;7-3;2-6;3-4;4-3;1-6,1-6,2.47,13,12,583.528916223
GEMS117,2018_Mar_06_1414,Kramer,GH,orientation,8,6,0,0-0;0-0;0-0;0-0,2,SimpleHill,0-0,0,4,selected,1-6,0-7;3-12;1-14;7-6;1-11;8-9,7-6,3.73,24,11,590.815875259
GEMS117,2018_Mar_06_1414,Kramer,GH,orientation,8,6,0,0-0;0-0;0-0;0-0,2,SimpleHill,0-0,0,5,selected,7-6,12-4;9-7;3-6;11-3;11-10;9-6,3-6,2.06,17,-7,596.449696776
GEMS117,2018_Mar_06_1414,Kramer,GH,orientation,8,6,0,0-0;0-0;0-0;0-0,2,SimpleHill,0-0,0,6,selected,3-6,10-4;4-10;4-6;9-2;10-6;6-9,10-6,2.85,29,12,602.873487481
GEMS117,2018_Mar_06_1414,Kramer,GH,orientation,8,6,0,0-0;0-0;0-0;0-0,2,SimpleHill,0-0,0,7,selected,10-6,5-6;9-0;13-12;18-6;13-1;13-9,5-6,2.49,20,-9,608.917822255
GEMS117,2018_Mar_06_1414,Kramer,GH,orientation,8,6,0,0-0;0-0;0-0;0-0,2,SimpleHill,0-0,0,8,selected,5-6,5-13;6-12;1-0;4-1;5-1;5-5,6-12,4.2,32,12,616.690478584
GEMS117,2018_Mar_06_1414,Kramer,GH,orientation,8,6,0,0-0;0-0;0-0;0-0,2,SimpleHill,0-0,0,9,selected,6-12,8-7;11-7;2-7;8-16;9-5;12-7,8-7,3.77,27,-5,624.035619927
GEMS117,2018_Mar_06_1414,Kramer,GH,orientation,8,6,0,0-0;0-0;0-0;0-0,2,SimpleHill,0-0,0,10,selected,8-7,9-5;5-10;11-6;12-2;12-10;13-9,12-10,1.46,39,12,629.056411555
GEMS117,2018_Mar_06_1414,Kramer,GH,orientation,8,6,0,0-0;0-0;0-0;0-0,2,SimpleHill,0-0,0,11,selected,12-10,14-12;6-15;13-13;13-14;15-9;16-12,15-9,2.47,41,2,635.10147582
GEMS117,2018_Mar_06_1414,Kramer,GH,orientation,8,6,0,0-0;0-0;0-0;0-0,2,SimpleHill,0-0,0,12,selected,15-9,16-14;9-11;9-12;10-10;8-10;13-9,8-10,2.33,32,-9,641.000647228
GEMS117,2018_Mar_06_1414,Kramer,GH,orientation,8,6,0,0-0;0-0;0-0;0-0,2,SimpleHill,0-0,0,13,selected,8-10,10-16;3-6;11-11;5-6;5-8;14-12,3-6,0.89,17,-15,645.449275854
GEMS117,2018_Mar_06_1414,Kramer,GH,orientation,8,6,0,0-0;0-0;0-0;0-0,2,SimpleHill,0-0,0,14,selected,3-6,2-3;8-1;0-10;2-2;1-3;4-3,0-10,1.6,18,1,650.619591152
GEMS117,2018_Mar_06_1414,Kramer,GH,orientation,8,6,0,0-0;0-0;0-0;0-0,2,SimpleHill,0-0,0,15,selected,0-10,0-11;3-3;1-13;6-10;3-7;4-5,0-11,1.14,19,1,655.323722334
GEMS117,2018_Mar_06_1414,Kramer,GH,orientation,8,6,0,0-0;0-0;0-0;0-0,2,SimpleHill,0-0,0,16,selected,0-11,2-5;0-15;3-13;3-14;1-16;4-17,4-17,1.98,35,16,660.887573485
GEMS117,2018_Mar_06_1414,Kramer,GH,orientation,8,6,0,0-0;0-0;0-0;0-0,2,SimpleHill,0-0,0,17,selected,4-17,1-13;1-22;8-15;3-10;9-16;9-11,1-13,1.07,24,-11,665.52459465
GEMS117,2018_Mar_06_1414,Kramer,GH,orientation,8,6,0,0-0;0-0;0-0;0-0,2,SimpleHill,0-0,0,18,selected,1-13,1-13;3-9;7-11;4-12;1-9;7-13,7-11,0.98,32,8,670.070758434
GEMS117,2018_Mar_06_1414,Kramer,GH,orientation,8,6,0,0-0;0-0;0-0;0-0,2,SimpleHill,0-0,0,19,selected,7-11,5-13;4-8;6-14;8-11;10-11;2-5,4-8,0.58,22,-10,674.217893892
GEMS117,2018_Mar_06_1414,Kramer,GH,orientation,8,6,0,0-0;0-0;0-0;0-0,2,SimpleHill,0-0,0,20,selected,4-8,9-13;1-4;9-2;4-8;3-6;5-9,4-8,0.3,22,0,678.077233271
GEMS117,2018_Mar_06_1414,Kramer,GH,orientation,8,6,0,0-0;0-0;0-0;0-0,2,SimpleHill,0-0,0,21,selected,4-8,1-14;7-12;4-15;10-4;7-10;0-10,7-10,0.37,31,9,682.029473825
GEMS117,2018_Mar_06_1414,Kramer,GH,orientation,8,6,0,0-0;0-0;0-0;0-0,2,SimpleHill,0-0,0,22,selected,7-10,9-4;8-3;9-9;5-6;0-11;2-16,0-11,3.43,19,-12,689.032002878
GEMS117,2018_Mar_06_1414,Kramer,GH,orientation,8,6,0,0-0;0-0;0-0;0-0,2,SimpleHill,0-0,0,23,selected,0-11,0-11;6-9;4-16;5-7;6-14;4-10,4-16,0.87,34,15,693.476349623
GEMS117,2018_Mar_06_1414,Kramer,GH,orientation,8,6,0,0-0;0-0;0-0;0-0,2,SimpleHill,0-0,0,24,selected,4-16,6-23;8-17;7-17;2-23;4-14;4-15,8-17,1.61,42,8,698.648986554
GEMS117,2018_Mar_06_1414,Kramer,GH,orientation,8,6,0,0-0;0-0;0-0;0-0,2,SimpleHill,0-0,0,25,selected,8-17,3-12;12-15;1-15;12-11;8-16;12-12,3-12,0.6,26,-16,702.823338862
GEMS117,2018_Mar_06_1414,Kramer,GH,orientation,8,6,0,0-0;0-0;0-0;0-0,2,SimpleHill,0-0,0,26,selected,3-12,7-17;0-14;1-9;6-10;5-10;3-9,3-9,0.88,22,-4,707.267619988
GEMS117,2018_Mar_06_1414,Kramer,GH,orientation,8,6,0,0-0;0-0;0-0;0-0,2,SimpleHill,0-0,0,27,selected,3-9,0-9;3-10;2-13;4-9;3-14;8-13,3-14,0.38,29,7,711.227381122
GEMS117,2018_Mar_06_1414,Kramer,GH,orientation,8,6,0,0-0;0-0;0-0;0-0,2,SimpleHill,0-0,0,28,selected,3-14,1-18;10-14;4-8;4-12;8-18;6-8,4-12,0.4,28,-1,715.216398418
GEMS117,2018_Mar_06_1414,Kramer,GH,orientation,8,6,0,0-0;0-0;0-0;0-0,2,SimpleHill,0-0,0,29,selected,4-12,2-11;2-16;0-9;7-12;9-8;10-8,0-9,0.95,16,-12,719.745604966
GEMS117,2018_Mar_06_1414,Kramer,GH,orientation,8,6,0,0-0;0-0;0-0;0-0,2,SimpleHill,0-0,0,30,selected,0-9,7-8;0-14;5-8;0-7;5-5;0-8,0-14,1.19,24,8,724.514090485
GEMS117,2018_Mar_06_1414,Kramer,GH,orientation,8,6,0,0-0;0-0;0-0;0-0,2,SimpleHill,0-0,0,31,selected,0-14,2-15;0-15;6-12;1-11;6-19;5-19,1-11,0.73,21,-3,728.810939428
GEMS117,2018_Mar_06_1414,Kramer,GH,orientation,8,6,0,0-0;0-0;0-0;0-0,2,SimpleHill,0-0,0,32,selected,1-11,0-5;5-16;1-13;2-4;5-5;8-14,0-5,0.61,9,-12,732.983805545
GEMS117,2018_Mar_06_1414,Kramer,GH,orientation,8,6,0,0-0;0-0;0-0;0-0,2,SimpleHill,0-0,0,33,selected,0-5,5-3;6-0;3-10;6-1;7-2;4-3,4-3,0.48,13,4,737.040616896
GEMS117,2018_Mar_06_1414,Kramer,GH,orientation,8,6,0,0-0;0-0;0-0;0-0,2,SimpleHill,0-0,0,34,selected,4-3,11-1;6-4;3-3;5-7;4-2;8-5,6-4,0.39,18,5,741.009674805
GEMS117,2018_Mar_06_1414,Kramer,GH,orientation,8,6,0,0-0;0-0;0-0;0-0,2,SimpleHill,0-0,0,35,selected,6-4,1-5;12-3;1-8;13-1;5-11;2-6,1-8,0.63,16,-2,745.205132112
GEMS117,2018_Mar_06_1414,Kramer,GH,orientation,8,6,0,0-0;0-0;0-0;0-0,2,SimpleHill,0-0,0,36,selected,1-8,7-6;0-14;1-14;8-5;3-9;5-6,3-9,0.44,22,6,749.216908006
GEMS117,2018_Mar_06_1414,Kramer,GH,orientation,8,6,0,0-0;0-0;0-0;0-0,2,SimpleHill,0-0,0,37,selected,3-9,0-7;6-11;5-10;6-16;9-5;0-10,6-16,2.41,38,16,755.207589464
GEMS117,2018_Mar_06_1414,Kramer,GH,orientation,8,6,0,0-0;0-0;0-0;0-0,2,SimpleHill,0-0,0,38,selected,6-16,4-17;12-13;6-8;4-21;10-10;1-19,12-13,1.36,43,5,760.13772729
GEMS117,2018_Mar_06_1414,Kramer,GH,orientation,8,6,0,0-0;0-0;0-0;0-0,2,SimpleHill,0-0,0,39,selected,12-13,11-7;19-14;12-11;8-9;17-16;19-11,19-11,1.16,50,7,764.871339659
GEMS117,2018_Mar_06_1414,Kramer,GH,orientation,8,6,0,0-0;0-0;0-0;0-0,3,SimpleHill,0-0,0,0,selected,0-0,0-6;2-2;3-0;3-6;2-4;3-2,0-6,2.03,11,11,776.903093825
GEMS117,2018_Mar_06_1414,Kramer,GH,orientation,8,6,0,0-0;0-0;0-0;0-0,3,SimpleHill,0-0,0,1,selected,0-6,2-1;1-0;0-4;1-3;2-5;3-12,1-3,2.99,7,-4,783.455654984
GEMS117,2018_Mar_06_1414,Kramer,GH,orientation,8,6,0,0-0;0-0;0-0;0-0,3,SimpleHill,0-0,0,2,selected,1-3,0-7;4-10;1-2;3-6;0-2;4-0,0-2,0.87,3,-4,787.880971251
GEMS117,2018_Mar_06_1414,Kramer,GH,orientation,8,6,0,0-0;0-0;0-0;0-0,3,SimpleHill,0-0,0,3,selected,0-2,5-1;0-10;7-1;7-4;0-1;0-2,0-10,0.83,18,15,792.306146998
GEMS117,2018_Mar_06_1414,Kramer,GH,orientation,8,6,0,0-0;0-0;0-0;0-0,3,SimpleHill,0-0,0,4,selected,0-10,1-10;7-7;7-8;1-15;4-12;0-10,7-7,1.15,26,8,797.051577193
GEMS117,2018_Mar_06_1414,Kramer,GH,orientation,8,6,0,0-0;0-0;0-0;0-0,3,SimpleHill,0-0,0,5,selected,7-7,4-10;2-1;6-1;13-10;2-11;14-10,14-10,0.81,42,16,801.431801028
GEMS117,2018_Mar_06_1414,Kramer,GH,orientation,8,6,0,0-0;0-0;0-0;0-0,3,SimpleHill,0-0,0,6,selected,14-10,10-6;19-15;9-11;9-4;19-7;20-10,20-10,3.54,50,8,808.542351479
GEMS117,2018_Mar_06_1414,Kramer,GH,orientation,8,6,0,0-0;0-0;0-0;0-0,3,SimpleHill,0-0,0,7,selected,20-10,28-10;14-6;22-8;23-14;19-4;24-7,22-8,4.33,49,-1,816.444037855
GEMS117,2018_Mar_06_1414,Kramer,GH,orientation,8,6,0,0-0;0-0;0-0;0-0,3,SimpleHill,0-0,0,8,selected,22-8,16-10;21-15;24-2;18-5;26-11;21-9,16-10,1.13,44,-5,821.167500082
GEMS117,2018_Mar_06_1414,Kramer,GH,orientation,8,6,0,0-0;0-0;0-0;0-0,3,SimpleHill,0-0,0,9,selected,16-10,16-14;18-8;16-2;17-13;14-12;15-17,18-8,3.53,44,0,828.250467496
GEMS117,2018_Mar_06_1414,Kramer,GH,orientation,8,6,0,0-0;0-0;0-0;0-0,3,SimpleHill,0-0,0,10,selected,18-8,16-4;18-2;17-7;16-13;19-14;19-2,17-7,2.15,41,-3,833.976493985
GEMS117,2018_Mar_06_1414,Kramer,GH,orientation,8,6,0,0-0;0-0;0-0;0-0,3,SimpleHill,0-0,0,11,selected,17-7,19-6;23-2;17-7;17-14;19-2;14-0,19-6,3.16,42,1,840.725126069
GEMS117,2018_Mar_06_1414,Kramer,GH,orientation,8,6,0,0-0;0-0;0-0;0-0,3,SimpleHill,0-0,0,12,selected,19-6,14-8;21-4;25-4;21-6;20-2;21-8,21-8,2.34,47,5,846.625127797
GEMS117,2018_Mar_06_1414,Kramer,GH,orientation,8,6,0,0-0;0-0;0-0;0-0,3,SimpleHill,0-0,0,13,selected,21-8,27-11;17-10;22-8;27-12;16-5;23-13,27-11,1.21,59,12,851.409510085
GEMS117,2018_Mar_06_1414,Kramer,GH,orientation,8,6,0,0-0;0-0;0-0;0-0,3,SimpleHill,0-0,0,14,selected,27-11,33-10;22-8;34-9;27-9;32-10;34-13,27-9,1.45,55,-4,856.43777524
GEMS117,2018_Mar_06_1414,Kramer,GH,orientation,8,6,0,0-0;0-0;0-0;0-0,3,SimpleHill,0-0,0,15,selected,27-9,23-14;27-12;22-5;30-2;32-8;26-14,32-8,3.13,58,3,863.147911362
GEMS117,2018_Mar_06_1414,Kramer,GH,orientation,8,6,0,0-0;0-0;0-0;0-0,3,SimpleHill,0-0,0,16,selected,32-8,39-6;27-2;39-9;30-12;27-11;33-4,39-6,2.68,58,0,869.404751586
GEMS117,2018_Mar_06_1414,Kramer,GH,orientation,8,6,0,0-0;0-0;0-0;0-0,3,SimpleHill,0-0,0,17,selected,39-6,39-13;44-10;34-6;34-11;35-1;35-3,34-6,2.78,56,-2,875.770104869
GEMS117,2018_Mar_06_1414,Kramer,GH,orientation,8,6,0,0-0;0-0;0-0;0-0,3,SimpleHill,0-0,0,18,selected,34-6,29-2;32-7;34-10;39-9;28-8;40-5,28-8,1.34,55,-1,880.681308565
GEMS117,2018_Mar_06_1414,Kramer,GH,orientation,8,6,0,0-0;0-0;0-0;0-0,3,SimpleHill,0-0,0,19,selected,28-8,32-8;25-6;28-16;32-11;24-5;26-8,26-8,3.4,53,-2,887.64983352
GEMS117,2018_Mar_06_1414,Kramer,GH,orientation,8,6,0,0-0;0-0;0-0;0-0,3,SimpleHill,0-0,0,20,selected,26-8,29-1;24-6;29-15;31-14;24-12;27-7,24-12,2.3,57,4,893.501818127
GEMS117,2018_Mar_06_1414,Kramer,GH,orientation,8,6,0,0-0;0-0;0-0;0-0,3,SimpleHill,0-0,0,21,selected,24-12,29-10;18-14;20-7;24-6;25-6;18-10,20-7,1.85,45,-12,898.921349358
GEMS117,2018_Mar_06_1414,Kramer,GH,orientation,8,6,0,0-0;0-0;0-0;0-0,3,SimpleHill,0-0,0,22,selected,20-7,19-12;15-12;22-14;24-12;17-9;21-7,19-12,0.77,51,6,903.258537995
GEMS117,2018_Mar_06_1414,Kramer,GH,orientation,8,6,0,0-0;0-0;0-0;0-0,3,SimpleHill,0-0,0,23,selected,19-12,21-14;21-11;20-7;21-19;15-17;22-8,15-17,1.62,53,2,908.437210276
GEMS117,2018_Mar_06_1414,Kramer,GH,orientation,8,6,0,0-0;0-0;0-0;0-0,3,SimpleHill,0-0,0,24,selected,15-17,11-22;20-19;9-16;18-13;10-13;14-11,14-11,2.43,43,-10,914.431373704
GEMS117,2018_Mar_06_1414,Kramer,GH,orientation,8,6,0,0-0;0-0;0-0;0-0,3,SimpleHill,0-0,0,25,selected,14-11,19-5;17-15;19-13;14-10;19-6;8-16,14-10,1.34,42,-1,919.337410782
GEMS117,2018_Mar_06_1414,Kramer,GH,orientation,8,6,0,0-0;0-0;0-0;0-0,3,SimpleHill,0-0,0,26,selected,14-10,9-14;7-9;16-11;18-4;8-5;9-16,18-4,3.37,37,-5,926.291752105
GEMS117,2018_Mar_06_1414,Kramer,GH,orientation,8,6,0,0-0;0-0;0-0;0-0,3,SimpleHill,0-0,0,27,selected,18-4,11-7;19-7;19-6;13-3;16-7;11-1,19-7,1.05,43,6,931.044653266
GEMS117,2018_Mar_06_1414,Kramer,GH,orientation,8,6,0,0-0;0-0;0-0;0-0,3,SimpleHill,0-0,0,28,selected,19-7,19-3;23-3;15-5;16-10;26-8;15-13,26-8,1.65,53,10,936.258179491
GEMS117,2018_Mar_06_1414,Kramer,GH,orientation,8,6,0,0-0;0-0;0-0;0-0,3,SimpleHill,0-0,0,29,selected,26-8,29-12;33-6;19-8;31-12;31-6;27-13,29-12,1.39,62,9,941.219168181
GEMS117,2018_Mar_06_1414,Kramer,GH,orientation,8,6,0,0-0;0-0;0-0;0-0,3,SimpleHill,0-0,0,30,selected,29-12,26-19;27-14;29-13;23-13;23-9;30-8,23-9,4.28,51,-11,949.07357077
GEMS117,2018_Mar_06_1414,Kramer,GH,orientation,8,6,0,0-0;0-0;0-0;0-0,3,SimpleHill,0-0,0,31,selected,23-9,17-11;20-7;24-8;27-8;19-4;24-10,27-8,1.32,54,3,953.977932802
GEMS117,2018_Mar_06_1414,Kramer,GH,orientation,8,6,0,0-0;0-0;0-0;0-0,3,SimpleHill,0-0,0,32,selected,27-8,32-11;33-12;34-9;27-9;27-1;24-13,34-9,3.46,61,7,961.000776545
GEMS117,2018_Mar_06_1414,Kramer,GH,orientation,8,6,0,0-0;0-0;0-0;0-0,3,SimpleHill,0-0,0,33,selected,34-9,34-8;31-5;37-12;33-5;31-9;34-13,34-8,1.81,59,-2,966.376616389
GEMS117,2018_Mar_06_1414,Kramer,GH,orientation,8,6,0,0-0;0-0;0-0;0-0,3,SimpleHill,0-0,0,34,selected,34-8,29-6;40-7;39-5;35-5;31-11;34-6,31-11,2.2,62,3,972.142519079
GEMS117,2018_Mar_06_1414,Kramer,GH,orientation,8,6,0,0-0;0-0;0-0;0-0,3,SimpleHill,0-0,0,35,selected,31-11,28-7;25-15;36-5;31-4;30-14;25-7,28-7,3.19,53,-9,978.910791097
GEMS117,2018_Mar_06_1414,Kramer,GH,orientation,8,6,0,0-0;0-0;0-0;0-0,3,SimpleHill,0-0,0,36,selected,28-7,29-2;32-13;26-8;30-6;26-4;29-5,26-8,0.87,53,0,983.351390835
GEMS117,2018_Mar_06_1414,Kramer,GH,orientation,8,6,0,0-0;0-0;0-0;0-0,3,SimpleHill,0-0,0,37,selected,26-8,29-9;25-15;26-1;20-12;31-8;28-9,20-12,0.77,53,0,987.690461299
GEMS117,2018_Mar_06_1414,Kramer,GH,orientation,8,6,0,0-0;0-0;0-0;0-0,3,SimpleHill,0-0,0,38,selected,20-12,14-13;15-7;26-17;17-12;17-5;26-12,17-12,0.75,49,-4,992.022411297
GEMS117,2018_Mar_06_1414,Kramer,GH,orientation,8,6,0,0-0;0-0;0-0;0-0,3,SimpleHill,0-0,0,39,selected,17-12,18-9;11-8;15-18;24-9;20-8;16-6,18-9,1.02,45,-4,996.614591302
GEMS117,2018_Mar_06_1414,Kramer,GH,orientation,8,6,0,0-0;0-0;0-0;0-0,4,SimpleHill,0-0,0,0,selected,0-0,3-6;2-6;6-5;3-4;2-5;8-0,3-6,2.06,17,17,1007.90362966
GEMS117,2018_Mar_06_1414,Kramer,GH,orientation,8,6,0,0-0;0-0;0-0;0-0,4,SimpleHill,0-0,0,1,selected,3-6,3-12;9-2;5-3;6-12;6-1;1-6,1-6,2.28,13,-4,1013.75148347
GEMS117,2018_Mar_06_1414,Kramer,GH,orientation,8,6,0,0-0;0-0;0-0;0-0,4,SimpleHill,0-0,0,2,selected,1-6,7-6;0-7;7-8;4-9;6-9;8-3,4-9,0.47,24,11,1017.77600034
GEMS117,2018_Mar_06_1414,Kramer,GH,orientation,8,6,0,0-0;0-0;0-0;0-0,4,SimpleHill,0-0,0,3,selected,4-9,5-9;6-16;3-2;5-7;2-4;2-11,5-9,1.51,25,1,1022.85528124
GEMS117,2018_Mar_06_1414,Kramer,GH,orientation,8,6,0,0-0;0-0;0-0;0-0,4,SimpleHill,0-0,0,4,selected,5-9,1-7;3-3;5-8;0-10;9-3;7-13,0-10,1.1,18,-7,1027.53549317
GEMS117,2018_Mar_06_1414,Kramer,GH,orientation,8,6,0,0-0;0-0;0-0;0-0,4,SimpleHill,0-0,0,5,selected,0-10,3-9;5-14;3-8;6-9;4-12;4-4,3-8,0.29,20,2,1031.38746049
GEMS117,2018_Mar_06_1414,Kramer,GH,orientation,8,6,0,0-0;0-0;0-0;0-0,4,SimpleHill,0-0,0,6,selected,3-8,7-4;3-8;8-7;0-3;3-16;0-5,3-16,0.96,32,12,1035.89474548
GEMS117,2018_Mar_06_1414,Kramer,GH,orientation,8,6,0,0-0;0-0;0-0;0-0,4,SimpleHill,0-0,0,7,selected,3-16,0-17;2-13;8-19;6-23;0-19;5-15,0-19,0.6,30,-2,1040.04235276
GEMS117,2018_Mar_06_1414,Kramer,GH,orientation,8,6,0,0-0;0-0;0-0;0-0,4,SimpleHill,0-0,0,8,selected,0-19,1-15;2-23;4-24;3-16;2-26;0-16,4-24,1.46,44,14,1045.05445227
GEMS117,2018_Mar_06_1414,Kramer,GH,orientation,8,6,0,0-0;0-0;0-0;0-0,4,SimpleHill,0-0,0,9,selected,4-24,2-21;7-25;3-29;0-21;4-17;3-28,7-25,1.51,50,6,1050.13719626
GEMS117,2018_Mar_06_1414,Kramer,GH,orientation,8,6,0,0-0;0-0;0-0;0-0,4,SimpleHill,0-0,0,10,selected,7-25,8-31;6-25;6-27;9-20;6-21;7-22,6-27,1.26,50,0,1054.96144322
GEMS117,2018_Mar_06_1414,Kramer,GH,orientation,8,6,0,0-0;0-0;0-0;0-0,4,SimpleHill,0-0,0,11,selected,6-27,13-30;7-29;6-31;10-22;8-34;0-25,0-25,3.64,37,-13,1062.1791681
GEMS117,2018_Mar_06_1414,Kramer,GH,orientation,8,6,0,0-0;0-0;0-0;0-0,4,SimpleHill,0-0,0,12,selected,0-25,0-20;7-28;2-27;4-23;6-20;2-20,7-28,1.52,53,16,1067.27224757
GEMS117,2018_Mar_06_1414,Kramer,GH,orientation,8,6,0,0-0;0-0;0-0;0-0,4,SimpleHill,0-0,0,13,selected,7-28,8-27;12-25;11-34;7-23;12-34;10-29,7-23,3.02,48,-5,1073.85649856
GEMS117,2018_Mar_06_1414,Kramer,GH,orientation,8,6,0,0-0;0-0;0-0;0-0,4,SimpleHill,0-0,0,14,selected,7-23,13-21;7-18;7-16;7-24;3-23;6-29,6-29,1.92,52,4,1079.34519832
GEMS117,2018_Mar_06_1414,Kramer,GH,orientation,8,6,0,0-0;0-0;0-0;0-0,4,SimpleHill,0-0,0,15,selected,6-29,2-34;12-32;6-32;11-35;5-23;5-30,6-32,2.97,54,2,1085.89829051
GEMS117,2018_Mar_06_1414,Kramer,GH,orientation,8,6,0,0-0;0-0;0-0;0-0,4,SimpleHill,0-0,0,16,selected,6-32,12-27;1-27;9-37;3-28;4-32;4-27,9-37,1.37,63,9,1090.8385916
GEMS117,2018_Mar_06_1414,Kramer,GH,orientation,8,6,0,0-0;0-0;0-0;0-0,4,SimpleHill,0-0,0,17,selected,9-37,15-42;6-43;12-34;12-37;4-43;9-33,12-37,3.13,67,4,1097.53678955
GEMS117,2018_Mar_06_1414,Kramer,GH,orientation,8,6,0,0-0;0-0;0-0;0-0,4,SimpleHill,0-0,0,18,selected,12-37,12-42;10-36;14-41;14-34;11-35;9-43,12-42,0.99,69,2,1102.09685496
GEMS117,2018_Mar_06_1414,Kramer,GH,orientation,8,6,0,0-0;0-0;0-0;0-0,4,SimpleHill,0-0,0,19,selected,12-42,10-35;5-44;6-43;7-46;12-37;9-39,9-39,2.45,63,-6,1108.11739692
GEMS117,2018_Mar_06_1414,Kramer,GH,orientation,8,6,0,0-0;0-0;0-0;0-0,4,SimpleHill,0-0,0,20,selected,9-39,5-41;5-35;4-43;8-35;13-39;15-42,13-39,2.45,70,7,1114.12589986
GEMS117,2018_Mar_06_1414,Kramer,GH,orientation,8,6,0,0-0;0-0;0-0;0-0,4,SimpleHill,0-0,0,21,selected,13-39,9-34;19-43;11-35;14-38;16-39;10-38,14-38,1.63,71,1,1119.32017763
GEMS117,2018_Mar_06_1414,Kramer,GH,orientation,8,6,0,0-0;0-0;0-0;0-0,4,SimpleHill,0-0,0,22,selected,14-38,11-43;15-33;14-32;12-31;11-42;7-37,11-42,3.22,68,-3,1126.10460953
GEMS117,2018_Mar_06_1414,Kramer,GH,orientation,8,6,0,0-0;0-0;0-0;0-0,4,SimpleHill,0-0,0,23,selected,11-42,10-46;6-38;6-43;7-43;16-41;5-39,6-38,2.46,58,-10,1132.14776508
GEMS117,2018_Mar_06_1414,Kramer,GH,orientation,8,6,0,0-0;0-0;0-0;0-0,4,SimpleHill,0-0,0,24,selected,6-38,10-43;10-44;3-39;10-36;9-45;3-34,3-39,1.33,53,-5,1137.04603031
GEMS117,2018_Mar_06_1414,Kramer,GH,orientation,8,6,0,0-0;0-0;0-0;0-0,4,SimpleHill,0-0,0,25,selected,3-39,3-33;9-41;1-40;6-41;10-39;9-38,6-41,1.21,59,6,1141.81609548
GEMS117,2018_Mar_06_1414,Kramer,GH,orientation,8,6,0,0-0;0-0;0-0;0-0,4,SimpleHill,0-0,0,26,selected,6-41,1-40;4-35;7-45;6-44;8-35;8-48,1-40,1.08,49,-10,1146.45396201
GEMS117,2018_Mar_06_1414,Kramer,GH,orientation,8,6,0,0-0;0-0;0-0;0-0,4,SimpleHill,0-0,0,27,selected,1-40,5-35;8-42;6-42;0-45;7-39;6-35,8-42,1.21,63,14,1151.22128143
GEMS117,2018_Mar_06_1414,Kramer,GH,orientation,8,6,0,0-0;0-0;0-0;0-0,4,SimpleHill,0-0,0,28,selected,8-42,14-39;11-46;8-38;8-44;8-50;8-43,8-38,0.98,61,-2,1155.76009333
GEMS117,2018_Mar_06_1414,Kramer,GH,orientation,8,6,0,0-0;0-0;0-0;0-0,4,SimpleHill,0-0,0,29,selected,8-38,10-32;6-31;14-39;8-30;8-45;5-41,5-41,2.22,57,-4,1161.52694349
GEMS117,2018_Mar_06_1414,Kramer,GH,orientation,8,6,0,0-0;0-0;0-0;0-0,4,SimpleHill,0-0,0,30,selected,5-41,7-48;10-36;8-36;4-46;1-40;11-42,8-36,0.78,60,3,1165.89233327
GEMS117,2018_Mar_06_1414,Kramer,GH,orientation,8,6,0,0-0;0-0;0-0;0-0,4,SimpleHill,0-0,0,31,selected,8-36,5-31;6-42;11-39;3-41;3-33;11-30,6-42,1.01,60,0,1170.47901023
GEMS117,2018_Mar_06_1414,Kramer,GH,orientation,8,6,0,0-0;0-0;0-0;0-0,4,SimpleHill,0-0,0,32,selected,6-42,6-41;7-41;8-43;3-45;0-39;7-49,0-39,2.0,47,-13,1176.04645987
GEMS117,2018_Mar_06_1414,Kramer,GH,orientation,8,6,0,0-0;0-0;0-0;0-0,4,SimpleHill,0-0,0,33,selected,0-39,0-36;4-41;7-36;2-44;0-44;4-43,7-36,2.48,59,12,1182.08986317
GEMS117,2018_Mar_06_1414,Kramer,GH,orientation,8,6,0,0-0;0-0;0-0;0-0,4,SimpleHill,0-0,0,34,selected,7-36,10-43;2-34;12-31;3-41;5-34;2-35,3-41,1.49,54,-5,1187.13697091
GEMS117,2018_Mar_06_1414,Kramer,GH,orientation,8,6,0,0-0;0-0;0-0;0-0,4,SimpleHill,0-0,0,35,selected,3-41,6-35;0-39;5-48;0-35;2-36;2-39,0-39,1.6,47,-7,1192.30617965
GEMS117,2018_Mar_06_1414,Kramer,GH,orientation,8,6,0,0-0;0-0;0-0;0-0,4,SimpleHill,0-0,0,36,selected,0-39,1-41;4-41;0-47;4-45;1-38;0-34,0-47,2.04,49,2,1197.91544557
GEMS117,2018_Mar_06_1414,Kramer,GH,orientation,8,6,0,0-0;0-0;0-0;0-0,4,SimpleHill,0-0,0,37,selected,0-47,7-50;3-41;2-42;4-48;2-47;2-46,3-41,1.55,54,5,1203.03130572
GEMS117,2018_Mar_06_1414,Kramer,GH,orientation,8,6,0,0-0;0-0;0-0;0-0,4,SimpleHill,0-0,0,38,selected,3-41,10-42;3-48;2-41;0-42;2-42;7-37,3-48,1.55,55,1,1208.14956848
GEMS117,2018_Mar_06_1414,Kramer,GH,orientation,8,6,0,0-0;0-0;0-0;0-0,4,SimpleHill,0-0,0,39,selected,3-48,9-43;1-42;10-50;4-51;7-54;5-50,10-50,1.08,68,13,1212.80934569
