subj_id,date,computer,experimenter,instructions,sight_radius,n_gabors,landscape_ix,landscape_name,starting_pos,starting_score,trial,feedback,pos,stims,selected,rt,score,delta,total
GEMS101a,2018_Feb_22_1110,Elaine,PME,spatial_frequency,8,6,0,SpatialFrequencyBias,5-5,10,0,training,5-5,2-10;4-1;4-7;10-1;0-7;10-4,4-7,1.51,14,4,
GEMS101a,2018_Feb_22_1110,Elaine,PME,spatial_frequency,8,6,0,SpatialFrequencyBias,5-5,10,1,training,4-7,8-5;8-2;0-9;9-3;7-2;1-11,8-5,1.09,9,-5,
GEMS101a,2018_Feb_22_1110,Elaine,PME,spatial_frequency,8,6,0,SpatialFrequencyBias,5-5,10,2,training,8-5,6-11;10-9;10-12;5-10;14-9;6-7,14-9,3.18,16,7,
GEMS101a,2018_Feb_22_1110,Elaine,PME,spatial_frequency,8,6,0,SpatialFrequencyBias,5-5,10,3,training,14-9,9-8;9-9;13-2;19-8;13-9;11-9,11-9,2.67,14,-2,
GEMS101a,2018_Feb_22_1110,Elaine,PME,spatial_frequency,8,6,0,SpatialFrequencyBias,5-5,10,4,training,11-9,5-9;11-17;9-14;11-14;5-13;11-2,9-14,2.09,22,8,
GEMS101a,2018_Feb_22_1110,Elaine,PME,spatial_frequency,8,6,0,SpatialFrequencyBias,5-5,10,5,training,9-14,5-20;15-12;5-12;15-10;7-11;9-18,15-12,0.84,22,0,
GEMS101a,2018_Feb_22_1110,Elaine,PME,spatial_frequency,8,6,0,SpatialFrequencyBias,5-5,10,6,training,15-12,17-5;9-7;17-9;20-18;21-12;10-10,17-9,1.56,15,-7,
GEMS101a,2018_Feb_22_1110,Elaine,PME,spatial_frequency,8,6,0,SpatialFrequencyBias,5-5,10,7,training,17-9,21-12;18-14;21-7;18-11;18-13;18-9,18-14,3.07,22,7,
GEMS101a,2018_Feb_22_1110,Elaine,PME,spatial_frequency,8,6,0,SpatialFrequencyBias,5-5,10,8,training,18-14,12-10;15-9;25-13;12-19;20-14;13-19,12-19,1.08,31,9,
GEMS101a,2018_Feb_22_1110,Elaine,PME,spatial_frequency,8,6,0,SpatialFrequencyBias,5-5,10,9,training,12-19,11-21;11-16;14-16;8-13;12-12;8-17,11-21,1.04,33,2,
GEMS101a,2018_Feb_22_1110,Elaine,PME,spatial_frequency,8,6,0,SpatialFrequencyBias,5-5,10,10,training,11-21,11-29;12-22;11-23;16-15;18-19;15-21,16-15,3.01,26,-7,
GEMS101a,2018_Feb_22_1110,Elaine,PME,spatial_frequency,8,6,0,SpatialFrequencyBias,5-5,10,11,training,16-15,24-15;10-19;19-18;14-11;11-11;18-8,10-19,0.65,28,2,
GEMS101a,2018_Feb_22_1110,Elaine,PME,spatial_frequency,8,6,0,SpatialFrequencyBias,5-5,10,12,training,10-19,6-25;11-26;6-14;15-25;9-26;16-15,15-25,0.86,37,9,
GEMS101a,2018_Feb_22_1110,Elaine,PME,spatial_frequency,8,6,0,SpatialFrequencyBias,5-5,10,13,training,15-25,18-27;17-24;13-19;16-18;9-27;21-22,17-24,0.67,37,0,
GEMS101a,2018_Feb_22_1110,Elaine,PME,spatial_frequency,8,6,0,SpatialFrequencyBias,5-5,10,14,training,17-24,21-24;15-21;22-21;17-21;20-30;12-30,20-30,1.29,43,6,
GEMS101a,2018_Feb_22_1110,Elaine,PME,spatial_frequency,8,6,0,SpatialFrequencyBias,5-5,10,15,training,20-30,26-34;20-27;15-33;23-23;21-28;23-29,26-34,1.94,44,1,
GEMS101a,2018_Feb_22_1110,Elaine,PME,spatial_frequency,8,6,0,SpatialFrequencyBias,5-5,10,16,training,26-34,21-39;26-27;24-27;22-32;25-36;30-40,24-27,1.08,38,-6,
GEMS101a,2018_Feb_22_1110,Elaine,PME,spatial_frequency,8,6,0,SpatialFrequencyBias,5-5,10,17,training,24-27,25-31;22-33;20-30;19-23;29-33;31-24,29-33,1.51,43,5,
GEMS101a,2018_Feb_22_1110,Elaine,PME,spatial_frequency,8,6,0,SpatialFrequencyBias,5-5,10,18,training,29-33,36-30;29-36;22-30;29-38;32-39;22-31,32-39,4.52,47,4,
GEMS101a,2018_Feb_22_1110,Elaine,PME,spatial_frequency,8,6,0,SpatialFrequencyBias,5-5,10,19,training,32-39,25-36;25-39;28-36;29-37;35-45;27-40,35-45,2.21,47,0,
GEMS101a,2018_Feb_22_1110,Elaine,PME,spatial_frequency,8,6,0,SpatialFrequencyBias,5-5,10,20,training,35-45,43-45;32-44;30-51;31-47;33-38;40-50,40-50,2.27,50,3,
GEMS101a,2018_Feb_22_1110,Elaine,PME,spatial_frequency,8,6,0,SpatialFrequencyBias,5-5,10,21,training,40-50,35-44;36-45;42-53;45-49;41-47;32-50,32-50,2.84,49,-1,
GEMS101a,2018_Feb_22_1110,Elaine,PME,spatial_frequency,8,6,0,SpatialFrequencyBias,5-5,10,22,training,32-50,32-52;28-47;34-46;37-45;37-53;36-51,37-45,0.98,49,0,
GEMS101a,2018_Feb_22_1110,Elaine,PME,spatial_frequency,8,6,0,SpatialFrequencyBias,5-5,10,23,training,37-45,31-49;35-45;34-42;42-44;36-51;38-43,31-49,1.74,48,-1,
GEMS101a,2018_Feb_22_1110,Elaine,PME,spatial_frequency,8,6,0,SpatialFrequencyBias,5-5,10,24,training,31-49,31-43;35-48;26-45;36-54;36-43;38-47,36-54,0.84,48,0,
GEMS101a,2018_Feb_22_1110,Elaine,PME,spatial_frequency,8,6,1,SimpleHill,5-5,20,0,selected,5-5,2-10;4-1;4-7;10-1;0-7;10-4,4-7,2.3,21,1,
GEMS101a,2018_Feb_22_1110,Elaine,PME,spatial_frequency,8,6,1,SimpleHill,5-5,20,1,selected,4-7,8-5;8-2;0-9;9-3;7-2;1-11,0-9,3.31,14,-7,
GEMS101a,2018_Feb_22_1110,Elaine,PME,spatial_frequency,8,6,1,SimpleHill,5-5,20,2,selected,0-9,3-6;1-11;3-16;0-3;6-11;2-5,3-16,8.17,32,18,
GEMS101a,2018_Feb_22_1110,Elaine,PME,spatial_frequency,8,6,1,SimpleHill,5-5,20,3,selected,3-16,0-22;9-17;9-13;9-16;10-18;1-16,0-22,3.42,35,3,
GEMS101a,2018_Feb_22_1110,Elaine,PME,spatial_frequency,8,6,1,SimpleHill,5-5,20,4,selected,0-22,6-24;0-24;0-22;3-17;3-18;1-15,6-24,2.1,47,12,
GEMS101a,2018_Feb_22_1110,Elaine,PME,spatial_frequency,8,6,1,SimpleHill,5-5,20,5,selected,6-24,1-20;9-26;1-28;7-21;10-26;10-21,1-28,2.23,41,-6,
GEMS101a,2018_Feb_22_1110,Elaine,PME,spatial_frequency,8,6,1,SimpleHill,5-5,20,6,selected,1-28,3-23;5-30;6-31;6-30;5-23;7-33,6-30,1.73,51,10,
GEMS101a,2018_Feb_22_1110,Elaine,PME,spatial_frequency,8,6,1,SimpleHill,5-5,20,7,selected,6-30,6-28;3-26;11-31;7-27;4-35;2-36,2-36,1.32,51,0,
GEMS101a,2018_Feb_22_1110,Elaine,PME,spatial_frequency,8,6,1,SimpleHill,5-5,20,8,selected,2-36,8-34;0-37;8-38;9-33;4-29;1-37,0-37,3.11,45,-6,
GEMS101a,2018_Feb_22_1110,Elaine,PME,spatial_frequency,8,6,1,SimpleHill,5-5,20,9,selected,0-37,0-32;0-45;6-37;2-39;5-31;2-40,2-40,1.47,52,7,
GEMS101a,2018_Feb_22_1110,Elaine,PME,spatial_frequency,8,6,1,SimpleHill,5-5,20,10,selected,2-40,3-46;0-47;8-39;5-35;6-44;4-41,6-44,1.93,60,8,
GEMS101a,2018_Feb_22_1110,Elaine,PME,spatial_frequency,8,6,1,SimpleHill,5-5,20,11,selected,6-44,8-42;10-44;1-38;4-44;11-40;6-43,6-43,1.54,61,1,
GEMS101a,2018_Feb_22_1110,Elaine,PME,spatial_frequency,8,6,1,SimpleHill,5-5,20,12,selected,6-43,13-43;8-49;12-46;1-47;9-40;12-40,12-46,4.81,71,10,
GEMS101a,2018_Feb_22_1110,Elaine,PME,spatial_frequency,8,6,1,SimpleHill,5-5,20,13,selected,12-46,13-41;16-43;19-46;13-49;16-44;11-49,11-49,2.56,68,-3,
GEMS101a,2018_Feb_22_1110,Elaine,PME,spatial_frequency,8,6,1,SimpleHill,5-5,20,14,selected,11-49,5-51;5-47;15-47;6-55;8-54;13-53,15-47,0.79,73,5,
GEMS101a,2018_Feb_22_1110,Elaine,PME,spatial_frequency,8,6,1,SimpleHill,5-5,20,15,selected,15-47,16-44;17-45;15-39;13-43;21-42;9-46,15-39,0.28,74,1,
GEMS101a,2018_Feb_22_1110,Elaine,PME,spatial_frequency,8,6,1,SimpleHill,5-5,20,16,selected,15-39,11-43;10-41;21-34;23-39;13-43;13-37,21-34,0.31,76,2,
GEMS101a,2018_Feb_22_1110,Elaine,PME,spatial_frequency,8,6,1,SimpleHill,5-5,20,17,selected,21-34,25-35;16-40;24-28;26-33;18-35;16-30,24-28,0.44,76,0,
GEMS101a,2018_Feb_22_1110,Elaine,PME,spatial_frequency,8,6,1,SimpleHill,5-5,20,18,selected,24-28,21-31;24-25;20-25;29-33;26-24;26-26,29-33,2.08,84,8,
GEMS101a,2018_Feb_22_1110,Elaine,PME,spatial_frequency,8,6,1,SimpleHill,5-5,20,19,selected,29-33,30-38;33-28;24-28;29-33;33-33;23-28,29-33,0.53,84,0,
GEMS101a,2018_Feb_22_1110,Elaine,PME,spatial_frequency,8,6,1,SimpleHill,5-5,20,20,selected,29-33,29-34;34-36;33-33;26-37;26-28;25-37,34-36,0.46,91,7,
GEMS101a,2018_Feb_22_1110,Elaine,PME,spatial_frequency,8,6,1,SimpleHill,5-5,20,21,selected,34-36,31-37;38-30;28-40;36-41;35-37;34-31,28-40,0.25,86,-5,
GEMS101a,2018_Feb_22_1110,Elaine,PME,spatial_frequency,8,6,1,SimpleHill,5-5,20,22,selected,28-40,30-46;32-44;28-36;28-43;29-47;24-43,28-43,0.5,87,1,
GEMS101a,2018_Feb_22_1110,Elaine,PME,spatial_frequency,8,6,1,SimpleHill,5-5,20,23,selected,28-43,25-48;30-38;22-47;29-45;22-48;29-46,29-45,0.54,88,1,
GEMS101a,2018_Feb_22_1110,Elaine,PME,spatial_frequency,8,6,1,SimpleHill,5-5,20,24,selected,29-45,33-43;26-38;26-43;34-43;24-39;27-52,34-43,0.25,91,3,
GEMS101a,2018_Feb_22_1110,Elaine,PME,spatial_frequency,8,6,1,SimpleHill,5-5,20,25,selected,34-43,33-49;38-46;38-49;41-40;38-38;31-44,41-40,0.28,95,4,
GEMS101a,2018_Feb_22_1110,Elaine,PME,spatial_frequency,8,6,1,SimpleHill,5-5,20,26,selected,41-40,41-42;43-42;42-47;43-35;45-36;39-47,43-35,0.21,95,0,
GEMS101a,2018_Feb_22_1110,Elaine,PME,spatial_frequency,8,6,1,SimpleHill,5-5,20,27,selected,43-35,47-38;37-39;37-37;46-39;43-40;38-30,46-39,0.2,96,1,
GEMS101a,2018_Feb_22_1110,Elaine,PME,spatial_frequency,8,6,1,SimpleHill,5-5,20,28,selected,46-39,44-33;45-33;45-44;45-35;40-34;45-43,45-35,0.22,93,-3,
GEMS101a,2018_Feb_22_1110,Elaine,PME,spatial_frequency,8,6,1,SimpleHill,5-5,20,29,selected,45-35,45-35;44-39;46-38;44-28;48-39;39-36,48-39,1.8,97,4,
GEMS101a,2018_Feb_22_1110,Elaine,PME,spatial_frequency,8,6,1,SimpleHill,5-5,20,30,selected,48-39,53-37;42-37;45-42;48-34;54-34;44-42,54-34,0.2,94,-3,
GEMS101a,2018_Feb_22_1110,Elaine,PME,spatial_frequency,8,6,1,SimpleHill,5-5,20,31,selected,54-34,59-35;51-33;56-31;56-32;57-28;49-28,56-31,0.25,90,-4,
GEMS101a,2018_Feb_22_1110,Elaine,PME,spatial_frequency,8,6,1,SimpleHill,5-5,20,32,selected,56-31,52-29;62-34;53-28;61-27;57-37;61-28,62-34,0.54,93,3,
GEMS101a,2018_Feb_22_1110,Elaine,PME,spatial_frequency,8,6,1,SimpleHill,5-5,20,33,selected,62-34,58-34;66-29;59-31;65-29;68-35;59-27,65-29,2.06,85,-8,
GEMS101a,2018_Feb_22_1110,Elaine,PME,spatial_frequency,8,6,1,SimpleHill,5-5,20,34,selected,65-29,69-32;72-28;59-26;63-23;68-22;67-24,72-28,0.29,81,-4,
GEMS101a,2018_Feb_22_1110,Elaine,PME,spatial_frequency,8,6,1,SimpleHill,5-5,20,35,selected,72-28,72-32;70-21;71-24;78-31;75-32;78-27,72-32,0.24,82,1,
GEMS101a,2018_Feb_22_1110,Elaine,PME,spatial_frequency,8,6,1,SimpleHill,5-5,20,36,selected,72-32,66-28;76-38;72-29;73-33;68-32;70-31,66-28,0.23,83,1,
GEMS101a,2018_Feb_22_1110,Elaine,PME,spatial_frequency,8,6,1,SimpleHill,5-5,20,37,selected,66-28,69-34;66-33;68-22;71-27;72-31;63-32,69-34,0.29,85,2,
GEMS101a,2018_Feb_22_1110,Elaine,PME,spatial_frequency,8,6,1,SimpleHill,5-5,20,38,selected,69-34,71-29;63-36;75-30;65-34;68-34;75-34,71-29,0.28,81,-4,
GEMS101a,2018_Feb_22_1110,Elaine,PME,spatial_frequency,8,6,1,SimpleHill,5-5,20,39,selected,71-29,76-32;76-24;78-26;72-33;70-25;69-25,69-25,0.24,81,0,
GEMS101a,2018_Feb_22_1110,Elaine,PME,spatial_frequency,8,6,1,SimpleHill,5-5,20,40,selected,69-25,69-22;62-23;64-19;74-31;62-26;71-18,74-31,1.5,79,-2,
GEMS101a,2018_Feb_22_1110,Elaine,PME,spatial_frequency,8,6,1,SimpleHill,5-5,20,41,selected,74-31,67-30;69-36;76-36;76-32;77-38;71-29,71-29,0.2,81,2,
GEMS101a,2018_Feb_22_1110,Elaine,PME,spatial_frequency,8,6,1,SimpleHill,5-5,20,42,selected,71-29,70-24;67-34;72-27;76-35;67-28;68-26,68-26,0.23,81,0,
GEMS101a,2018_Feb_22_1110,Elaine,PME,spatial_frequency,8,6,1,SimpleHill,5-5,20,43,selected,68-26,69-22;70-20;72-27;74-30;68-33;68-28,72-27,0.44,77,-4,
GEMS101a,2018_Feb_22_1110,Elaine,PME,spatial_frequency,8,6,1,SimpleHill,5-5,20,44,selected,72-27,70-27;66-30;68-26;66-22;75-32;72-29,66-30,0.19,86,9,
GEMS101a,2018_Feb_22_1110,Elaine,PME,spatial_frequency,8,6,1,SimpleHill,5-5,20,45,selected,66-30,72-28;61-29;71-29;69-26;61-33;61-35,61-29,0.24,86,0,
GEMS101a,2018_Feb_22_1110,Elaine,PME,spatial_frequency,8,6,1,SimpleHill,5-5,20,46,selected,61-29,59-31;56-30;66-26;61-21;58-34;68-26,56-30,0.24,92,6,
GEMS101a,2018_Feb_22_1110,Elaine,PME,spatial_frequency,8,6,1,SimpleHill,5-5,20,47,selected,56-30,52-36;56-29;61-32;56-34;62-27;50-30,56-29,0.21,89,-3,
GEMS101a,2018_Feb_22_1110,Elaine,PME,spatial_frequency,8,6,1,SimpleHill,5-5,20,48,selected,56-29,55-32;56-22;58-33;52-32;51-34;58-24,55-32,0.21,92,3,
GEMS101a,2018_Feb_22_1110,Elaine,PME,spatial_frequency,8,6,1,SimpleHill,5-5,20,49,selected,55-32,59-34;55-26;49-29;60-35;50-29;53-36,59-34,0.29,92,0,
GEMS101a,2018_Feb_22_1110,Elaine,PME,spatial_frequency,8,6,2,ReverseOrientation,5-5,20,0,selected,5-5,2-10;4-1;4-7;10-1;0-7;10-4,4-7,2.44,21,1,
GEMS101a,2018_Feb_22_1110,Elaine,PME,spatial_frequency,8,6,2,ReverseOrientation,5-5,20,1,selected,4-7,8-5;8-2;0-9;9-3;7-2;1-11,0-9,1.01,14,-7,
GEMS101a,2018_Feb_22_1110,Elaine,PME,spatial_frequency,8,6,2,ReverseOrientation,5-5,20,2,selected,0-9,3-6;1-11;3-16;0-3;6-11;2-5,6-11,1.54,29,15,
GEMS101a,2018_Feb_22_1110,Elaine,PME,spatial_frequency,8,6,2,ReverseOrientation,5-5,20,3,selected,6-11,6-9;5-6;3-7;7-17;10-6;3-6,5-6,1.47,20,-9,
GEMS101a,2018_Feb_22_1110,Elaine,PME,spatial_frequency,8,6,2,ReverseOrientation,5-5,20,4,selected,5-6,6-13;8-12;8-5;6-1;3-11;4-10,8-5,1.88,24,4,
GEMS101a,2018_Feb_22_1110,Elaine,PME,spatial_frequency,8,6,2,ReverseOrientation,5-5,20,5,selected,8-5,5-5;12-6;10-10;5-11;12-2;8-5,12-2,2.82,24,0,
GEMS101a,2018_Feb_22_1110,Elaine,PME,spatial_frequency,8,6,2,ReverseOrientation,5-5,20,6,selected,12-2,10-1;15-2;9-3;14-8;12-1;15-8,9-3,2.14,21,-3,
GEMS101a,2018_Feb_22_1110,Elaine,PME,spatial_frequency,8,6,2,ReverseOrientation,5-5,20,7,selected,9-3,3-0;3-2;10-2;12-5;2-5;3-4,3-2,1.17,10,-11,
GEMS101a,2018_Feb_22_1110,Elaine,PME,spatial_frequency,8,6,2,ReverseOrientation,5-5,20,8,selected,3-2,5-5;6-2;7-8;7-0;1-2;3-4,5-5,0.42,20,10,
GEMS101a,2018_Feb_22_1110,Elaine,PME,spatial_frequency,8,6,2,ReverseOrientation,5-5,20,9,selected,5-5,9-0;2-10;10-6;5-6;7-9;5-4,5-4,0.53,15,-5,
GEMS101a,2018_Feb_22_1110,Elaine,PME,spatial_frequency,8,6,2,ReverseOrientation,5-5,20,10,selected,5-4,1-0;5-10;9-6;0-0;2-10;1-1,1-0,0.22,0,-15,
GEMS101a,2018_Feb_22_1110,Elaine,PME,spatial_frequency,8,6,2,ReverseOrientation,5-5,20,11,selected,1-0,1-5;3-0;1-3;7-4;1-6;0-5,7-4,0.24,18,18,
GEMS101a,2018_Feb_22_1110,Elaine,PME,spatial_frequency,8,6,2,ReverseOrientation,5-5,20,12,selected,7-4,12-5;7-5;6-0;8-11;2-4;10-6,6-0,0.51,11,-7,
GEMS101a,2018_Feb_22_1110,Elaine,PME,spatial_frequency,8,6,2,ReverseOrientation,5-5,20,13,selected,6-0,13-3;7-2;2-5;8-4;2-1;10-5,2-5,0.2,11,0,
GEMS101a,2018_Feb_22_1110,Elaine,PME,spatial_frequency,8,6,2,ReverseOrientation,5-5,20,14,selected,2-5,8-4;4-9;6-0;9-7;0-2;2-7,6-0,0.23,11,0,
GEMS101a,2018_Feb_22_1110,Elaine,PME,spatial_frequency,8,6,2,ReverseOrientation,5-5,20,15,selected,6-0,6-3;10-2;5-7;8-2;5-4;7-0,5-7,0.24,23,12,
GEMS101a,2018_Feb_22_1110,Elaine,PME,spatial_frequency,8,6,2,ReverseOrientation,5-5,20,16,selected,5-7,8-12;3-8;0-8;0-7;0-13;5-7,0-8,0.24,13,-10,
GEMS101a,2018_Feb_22_1110,Elaine,PME,spatial_frequency,8,6,2,ReverseOrientation,5-5,20,17,selected,0-8,2-14;6-10;2-2;1-14;5-10;7-7,6-10,0.23,27,14,
GEMS101a,2018_Feb_22_1110,Elaine,PME,spatial_frequency,8,6,2,ReverseOrientation,5-5,20,18,selected,6-10,11-10;4-16;6-18;3-4;10-16;10-14,10-14,0.32,42,15,
GEMS101a,2018_Feb_22_1110,Elaine,PME,spatial_frequency,8,6,2,ReverseOrientation,5-5,20,19,selected,10-14,14-11;8-11;15-9;10-9;13-17;12-21,8-11,0.23,35,-7,
GEMS101a,2018_Feb_22_1110,Elaine,PME,spatial_frequency,8,6,2,ReverseOrientation,5-5,20,20,selected,8-11,14-15;8-8;3-14;11-4;9-9;11-10,9-9,0.23,30,-5,
GEMS101a,2018_Feb_22_1110,Elaine,PME,spatial_frequency,8,6,2,ReverseOrientation,5-5,20,21,selected,9-9,4-14;9-2;7-2;5-7;8-11;13-15,7-2,0.21,17,-13,
GEMS101a,2018_Feb_22_1110,Elaine,PME,spatial_frequency,8,6,2,ReverseOrientation,5-5,20,22,selected,7-2,8-6;12-3;7-10;6-4;10-8;5-7,5-7,0.24,23,6,
GEMS101a,2018_Feb_22_1110,Elaine,PME,spatial_frequency,8,6,2,ReverseOrientation,5-5,20,23,selected,5-7,11-6;8-11;9-8;7-6;8-3;11-7,8-3,2.36,19,-4,
GEMS101a,2018_Feb_22_1110,Elaine,PME,spatial_frequency,8,6,2,ReverseOrientation,5-5,20,24,selected,8-3,3-4;7-0;10-0;11-7;14-6;2-5,7-0,1.52,12,-7,
GEMS101a,2018_Feb_22_1110,Elaine,PME,spatial_frequency,8,6,2,ReverseOrientation,5-5,20,25,selected,7-0,15-0;5-6;13-4;3-0;12-3;9-4,13-4,0.52,30,18,
GEMS101a,2018_Feb_22_1110,Elaine,PME,spatial_frequency,8,6,2,ReverseOrientation,5-5,20,26,selected,13-4,17-5;13-12;13-9;15-4;14-2;15-5,17-5,1.74,38,8,
GEMS101a,2018_Feb_22_1110,Elaine,PME,spatial_frequency,8,6,2,ReverseOrientation,5-5,20,27,selected,17-5,16-6;17-3;11-2;21-2;13-4;23-9,11-2,2.35,22,-16,
GEMS101a,2018_Feb_22_1110,Elaine,PME,spatial_frequency,8,6,2,ReverseOrientation,5-5,20,28,selected,11-2,5-4;15-7;11-1;4-2;12-2;16-8,12-2,1.43,24,2,
GEMS101a,2018_Feb_22_1110,Elaine,PME,spatial_frequency,8,6,2,ReverseOrientation,5-5,20,29,selected,12-2,11-0;13-3;10-5;12-1;13-8;11-1,11-0,1.41,17,-7,
GEMS101a,2018_Feb_22_1110,Elaine,PME,spatial_frequency,8,6,2,ReverseOrientation,5-5,20,30,selected,11-0,14-2;8-1;14-5;16-2;11-1;12-6,12-6,0.22,32,15,
GEMS101a,2018_Feb_22_1110,Elaine,PME,spatial_frequency,8,6,2,ReverseOrientation,5-5,20,31,selected,12-6,18-4;14-9;10-10;15-13;17-12;12-5,12-5,1.15,29,-3,
GEMS101a,2018_Feb_22_1110,Elaine,PME,spatial_frequency,8,6,2,ReverseOrientation,5-5,20,32,selected,12-5,6-9;16-9;12-3;19-7;9-2;7-1,9-2,0.44,18,-11,
GEMS101a,2018_Feb_22_1110,Elaine,PME,spatial_frequency,8,6,2,ReverseOrientation,5-5,20,33,selected,9-2,6-3;16-2;5-3;10-7;15-2;7-9,6-3,1.44,16,-2,
GEMS101a,2018_Feb_22_1110,Elaine,PME,spatial_frequency,8,6,2,ReverseOrientation,5-5,20,34,selected,6-3,6-1;3-4;8-7;9-6;4-9;4-3,8-7,0.74,27,11,
GEMS101a,2018_Feb_22_1110,Elaine,PME,spatial_frequency,8,6,2,ReverseOrientation,5-5,20,35,selected,8-7,5-12;8-2;7-10;9-7;5-9;3-9,8-2,2.69,17,-10,
GEMS101a,2018_Feb_22_1110,Elaine,PME,spatial_frequency,8,6,2,ReverseOrientation,5-5,20,36,selected,8-2,8-5;5-1;13-4;3-0;9-5;1-2,13-4,0.33,30,13,
GEMS101a,2018_Feb_22_1110,Elaine,PME,spatial_frequency,8,6,2,ReverseOrientation,5-5,20,37,selected,13-4,18-3;13-11;12-3;10-9;11-1;17-2,12-3,0.27,27,-3,
GEMS101a,2018_Feb_22_1110,Elaine,PME,spatial_frequency,8,6,2,ReverseOrientation,5-5,20,38,selected,12-3,17-1;13-0;15-2;8-2;6-8;11-7,11-7,0.95,32,5,
GEMS101a,2018_Feb_22_1110,Elaine,PME,spatial_frequency,8,6,2,ReverseOrientation,5-5,20,39,selected,11-7,11-5;13-2;13-10;14-0;17-9;17-6,14-0,1.42,22,-10,
GEMS101a,2018_Feb_22_1110,Elaine,PME,spatial_frequency,8,6,2,ReverseOrientation,5-5,20,40,selected,14-0,12-2;17-2;12-5;11-0;16-0;16-2,17-2,1.27,30,8,
GEMS101a,2018_Feb_22_1110,Elaine,PME,spatial_frequency,8,6,2,ReverseOrientation,5-5,20,41,selected,17-2,22-1;17-6;22-7;11-0;23-1;14-3,14-3,2.05,27,-3,
GEMS101a,2018_Feb_22_1110,Elaine,PME,spatial_frequency,8,6,2,ReverseOrientation,5-5,20,42,selected,14-3,12-9;9-9;16-8;17-6;12-4;9-2,12-9,2.05,38,11,
GEMS101a,2018_Feb_22_1110,Elaine,PME,spatial_frequency,8,6,2,ReverseOrientation,5-5,20,43,selected,12-9,16-9;17-7;9-6;10-4;17-3;10-8,10-8,1.97,32,-6,
GEMS101a,2018_Feb_22_1110,Elaine,PME,spatial_frequency,8,6,2,ReverseOrientation,5-5,20,44,selected,10-8,5-5;11-4;6-13;5-2;8-9;7-13,5-5,1.29,20,-12,
GEMS101a,2018_Feb_22_1110,Elaine,PME,spatial_frequency,8,6,2,ReverseOrientation,5-5,20,45,selected,5-5,0-10;9-6;1-3;11-10;7-1;5-13,1-3,1.27,7,-13,
GEMS101a,2018_Feb_22_1110,Elaine,PME,spatial_frequency,8,6,2,ReverseOrientation,5-5,20,46,selected,1-3,8-4;3-4;0-10;2-6;1-1;6-0,8-4,0.97,21,14,
GEMS101a,2018_Feb_22_1110,Elaine,PME,spatial_frequency,8,6,2,ReverseOrientation,5-5,20,47,selected,8-4,11-6;14-4;9-3;14-7;15-2;8-3,9-3,1.26,21,0,
GEMS101a,2018_Feb_22_1110,Elaine,PME,spatial_frequency,8,6,2,ReverseOrientation,5-5,20,48,selected,9-3,7-0;7-9;4-0;11-5;15-4;9-10,9-10,0.35,33,12,
GEMS101a,2018_Feb_22_1110,Elaine,PME,spatial_frequency,8,6,2,ReverseOrientation,5-5,20,49,selected,9-10,7-14;7-13;8-15;9-8;10-12;4-6,4-6,2.54,16,-17,
GEMS101a,2018_Feb_22_1110,Elaine,PME,spatial_frequency,8,6,3,ReverseSpatialFrequency,5-5,20,0,selected,5-5,2-10;4-1;4-7;10-1;0-7;10-4,10-1,5.54,17,-3,
GEMS101a,2018_Feb_22_1110,Elaine,PME,spatial_frequency,8,6,3,ReverseSpatialFrequency,5-5,20,1,selected,10-1,12-6;10-1;3-0;13-3;14-4;11-1,13-3,1.1,27,10,
GEMS101a,2018_Feb_22_1110,Elaine,PME,spatial_frequency,8,6,3,ReverseSpatialFrequency,5-5,20,2,selected,13-3,18-5;16-2;20-6;15-7;11-5;16-9,15-7,0.64,36,9,
GEMS101a,2018_Feb_22_1110,Elaine,PME,spatial_frequency,8,6,3,ReverseSpatialFrequency,5-5,20,3,selected,15-7,16-13;20-4;20-5;19-6;9-10;14-10,19-6,0.54,41,5,
GEMS101a,2018_Feb_22_1110,Elaine,PME,spatial_frequency,8,6,3,ReverseSpatialFrequency,5-5,20,4,selected,19-6,13-10;15-3;24-9;16-1;13-6;24-1,16-1,0.24,28,-13,
GEMS101a,2018_Feb_22_1110,Elaine,PME,spatial_frequency,8,6,3,ReverseSpatialFrequency,5-5,20,5,selected,16-1,11-0;12-5;16-1;11-6;22-2;19-3,11-6,0.23,29,1,
GEMS101a,2018_Feb_22_1110,Elaine,PME,spatial_frequency,8,6,3,ReverseSpatialFrequency,5-5,20,6,selected,11-6,15-1;4-6;13-5;15-10;15-11;9-7,15-10,0.11,44,15,
GEMS101a,2018_Feb_22_1110,Elaine,PME,spatial_frequency,8,6,3,ReverseSpatialFrequency,5-5,20,7,selected,15-10,16-16;9-9;22-13;19-9;11-12;23-10,19-9,0.23,46,2,
GEMS101a,2018_Feb_22_1110,Elaine,PME,spatial_frequency,8,6,3,ReverseSpatialFrequency,5-5,20,8,selected,19-9,21-16;18-11;14-6;17-11;19-3;23-5,17-11,0.38,46,0,
GEMS101a,2018_Feb_22_1110,Elaine,PME,spatial_frequency,8,6,3,ReverseSpatialFrequency,5-5,20,9,selected,17-11,16-11;20-16;11-10;20-6;18-12;17-10,20-6,0.12,44,-2,
GEMS101a,2018_Feb_22_1110,Elaine,PME,spatial_frequency,8,6,3,ReverseSpatialFrequency,5-5,20,10,selected,20-6,16-5;26-8;19-4;21-3;18-6;15-2,21-3,0.43,37,-7,
GEMS101a,2018_Feb_22_1110,Elaine,PME,spatial_frequency,8,6,3,ReverseSpatialFrequency,5-5,20,11,selected,21-3,20-0;22-7;25-7;26-0;23-8;23-10,26-0,0.01,36,-1,
GEMS101a,2018_Feb_22_1110,Elaine,PME,spatial_frequency,8,6,3,ReverseSpatialFrequency,5-5,20,12,selected,26-0,27-6;22-3;24-7;26-7;23-2;30-4,26-7,0.28,49,13,
GEMS101a,2018_Feb_22_1110,Elaine,PME,spatial_frequency,8,6,3,ReverseSpatialFrequency,5-5,20,13,selected,26-7,31-5;19-10;22-3;25-14;29-9;26-8,25-14,0.23,60,11,
GEMS101a,2018_Feb_22_1110,Elaine,PME,spatial_frequency,8,6,3,ReverseSpatialFrequency,5-5,20,14,selected,25-14,24-9;25-6;20-20;27-17;21-20;24-21,27-17,0.18,65,5,
GEMS101a,2018_Feb_22_1110,Elaine,PME,spatial_frequency,8,6,3,ReverseSpatialFrequency,5-5,20,15,selected,27-17,33-20;24-17;27-14;22-21;23-23;30-23,22-21,0.23,65,0,
GEMS101a,2018_Feb_22_1110,Elaine,PME,spatial_frequency,8,6,3,ReverseSpatialFrequency,5-5,20,16,selected,22-21,20-25;28-25;21-15;21-19;20-18;25-27,21-19,0.33,64,-1,
GEMS101a,2018_Feb_22_1110,Elaine,PME,spatial_frequency,8,6,3,ReverseSpatialFrequency,5-5,20,17,selected,21-19,16-17;15-24;17-19;26-22;26-23;17-13,17-13,1.64,51,-13,
GEMS101a,2018_Feb_22_1110,Elaine,PME,spatial_frequency,8,6,3,ReverseSpatialFrequency,5-5,20,18,selected,17-13,19-6;22-19;23-18;19-13;15-10;19-11,19-13,0.25,53,2,
GEMS101a,2018_Feb_22_1110,Elaine,PME,spatial_frequency,8,6,3,ReverseSpatialFrequency,5-5,20,19,selected,19-13,25-10;12-14;25-13;16-17;16-7;25-14,16-17,0.13,53,0,
GEMS101a,2018_Feb_22_1110,Elaine,PME,spatial_frequency,8,6,3,ReverseSpatialFrequency,5-5,20,20,selected,16-17,19-16;22-15;16-10;21-16;24-17;21-15,21-16,0.39,61,8,
GEMS101a,2018_Feb_22_1110,Elaine,PME,spatial_frequency,8,6,3,ReverseSpatialFrequency,5-5,20,21,selected,21-16,14-13;15-18;18-15;18-12;18-21;23-9,18-12,0.28,50,-11,
GEMS101a,2018_Feb_22_1110,Elaine,PME,spatial_frequency,8,6,3,ReverseSpatialFrequency,5-5,20,22,selected,18-12,16-14;12-16;20-8;23-10;17-19;11-12,23-10,0.35,54,4,
GEMS101a,2018_Feb_22_1110,Elaine,PME,spatial_frequency,8,6,3,ReverseSpatialFrequency,5-5,20,23,selected,23-10,17-8;27-16;21-7;16-9;22-17;21-10,16-9,0.32,41,-13,
GEMS101a,2018_Feb_22_1110,Elaine,PME,spatial_frequency,8,6,3,ReverseSpatialFrequency,5-5,20,24,selected,16-9,16-2;16-15;18-16;20-11;14-16;19-2,20-11,0.26,50,9,
GEMS101a,2018_Feb_22_1110,Elaine,PME,spatial_frequency,8,6,3,ReverseSpatialFrequency,5-5,20,25,selected,20-11,16-11;23-5;18-11;21-14;17-16;18-8,21-14,0.34,57,7,
GEMS101a,2018_Feb_22_1110,Elaine,PME,spatial_frequency,8,6,3,ReverseSpatialFrequency,5-5,20,26,selected,21-14,15-12;19-15;24-10;23-10;21-17;16-16,23-10,0.26,54,-3,
GEMS101a,2018_Feb_22_1110,Elaine,PME,spatial_frequency,8,6,3,ReverseSpatialFrequency,5-5,20,27,selected,23-10,27-16;20-9;24-4;19-14;28-16;19-15,19-14,0.27,52,-2,
GEMS101a,2018_Feb_22_1110,Elaine,PME,spatial_frequency,8,6,3,ReverseSpatialFrequency,5-5,20,28,selected,19-14,13-13;15-13;14-14;15-18;19-17;24-15,15-18,0.23,54,2,
GEMS101a,2018_Feb_22_1110,Elaine,PME,spatial_frequency,8,6,3,ReverseSpatialFrequency,5-5,20,29,selected,15-18,22-17;13-18;19-18;8-17;16-22;20-21,8-17,0.21,41,-13,
GEMS101a,2018_Feb_22_1110,Elaine,PME,spatial_frequency,8,6,3,ReverseSpatialFrequency,5-5,20,30,selected,8-17,3-16;1-17;9-12;11-10;9-23;11-15,11-10,0.27,35,-6,
GEMS101a,2018_Feb_22_1110,Elaine,PME,spatial_frequency,8,6,3,ReverseSpatialFrequency,5-5,20,31,selected,11-10,10-3;14-5;13-3;6-6;11-10;5-15,6-6,0.67,21,-14,
GEMS101a,2018_Feb_22_1110,Elaine,PME,spatial_frequency,8,6,3,ReverseSpatialFrequency,5-5,20,32,selected,6-6,14-6;3-9;1-5;3-8;5-10;6-5,3-8,0.48,19,-2,
GEMS101a,2018_Feb_22_1110,Elaine,PME,spatial_frequency,8,6,3,ReverseSpatialFrequency,5-5,20,33,selected,3-8,9-8;8-2;4-11;5-1;5-13;0-4,5-1,0.25,10,-9,
GEMS101a,2018_Feb_22_1110,Elaine,PME,spatial_frequency,8,6,3,ReverseSpatialFrequency,5-5,20,34,selected,5-1,9-2;8-7;8-6;3-5;2-1;10-3,3-5,1.19,15,5,
GEMS101a,2018_Feb_22_1110,Elaine,PME,spatial_frequency,8,6,3,ReverseSpatialFrequency,5-5,20,35,selected,3-5,8-3;4-5;9-5;6-1;7-7;7-11,6-1,0.25,13,-2,
GEMS101a,2018_Feb_22_1110,Elaine,PME,spatial_frequency,8,6,3,ReverseSpatialFrequency,5-5,20,36,selected,6-1,12-5;11-5;7-2;6-3;12-6;12-0,6-3,0.27,16,3,
GEMS101a,2018_Feb_22_1110,Elaine,PME,spatial_frequency,8,6,3,ReverseSpatialFrequency,5-5,20,37,selected,6-3,8-7;3-9;5-10;11-6;7-9;0-4,11-6,0.42,29,13,
GEMS101a,2018_Feb_22_1110,Elaine,PME,spatial_frequency,8,6,3,ReverseSpatialFrequency,5-5,20,38,selected,11-6,18-7;14-8;15-2;10-5;17-2;18-3,10-5,0.25,25,-4,
GEMS101a,2018_Feb_22_1110,Elaine,PME,spatial_frequency,8,6,3,ReverseSpatialFrequency,5-5,20,39,selected,10-5,17-7;3-5;13-12;15-11;11-4;12-9,17-7,1.3,39,14,
GEMS101a,2018_Feb_22_1110,Elaine,PME,spatial_frequency,8,6,3,ReverseSpatialFrequency,5-5,20,40,selected,17-7,23-7;19-8;13-1;12-8;19-11;17-6,19-8,2.58,44,5,
GEMS101a,2018_Feb_22_1110,Elaine,PME,spatial_frequency,8,6,3,ReverseSpatialFrequency,5-5,20,41,selected,19-8,17-2;15-2;18-5;16-12;21-2;24-13,17-2,1.24,30,-14,
GEMS101a,2018_Feb_22_1110,Elaine,PME,spatial_frequency,8,6,3,ReverseSpatialFrequency,5-5,20,42,selected,17-2,10-2;13-6;24-4;24-0;12-5;15-7,13-6,0.82,33,3,
GEMS101a,2018_Feb_22_1110,Elaine,PME,spatial_frequency,8,6,3,ReverseSpatialFrequency,5-5,20,43,selected,13-6,15-5;13-5;19-2;7-8;18-2;10-4,18-2,1.54,31,-2,
GEMS101a,2018_Feb_22_1110,Elaine,PME,spatial_frequency,8,6,3,ReverseSpatialFrequency,5-5,20,44,selected,18-2,23-1;20-0;13-1;17-3;15-6;15-0,17-3,0.86,35,4,
GEMS101a,2018_Feb_22_1110,Elaine,PME,spatial_frequency,8,6,3,ReverseSpatialFrequency,5-5,20,45,selected,17-3,22-8;21-9;16-8;13-6;14-10;24-1,16-8,0.88,42,7,
GEMS101a,2018_Feb_22_1110,Elaine,PME,spatial_frequency,8,6,3,ReverseSpatialFrequency,5-5,20,46,selected,16-8,22-12;19-3;14-11;18-7;11-11;19-12,18-7,0.66,40,-2,
GEMS101a,2018_Feb_22_1110,Elaine,PME,spatial_frequency,8,6,3,ReverseSpatialFrequency,5-5,20,47,selected,18-7,15-3;17-9;19-11;19-13;24-12;16-4,19-11,1.58,51,11,
GEMS101a,2018_Feb_22_1110,Elaine,PME,spatial_frequency,8,6,3,ReverseSpatialFrequency,5-5,20,48,selected,19-11,14-11;20-16;19-18;21-18;14-6;12-12,12-12,2.79,40,-11,
GEMS101a,2018_Feb_22_1110,Elaine,PME,spatial_frequency,8,6,3,ReverseSpatialFrequency,5-5,20,49,selected,12-12,17-17;10-17;12-14;19-11;11-14;10-14,19-11,1.35,51,11,
GEMS101a,2018_Feb_22_1110,Elaine,PME,spatial_frequency,8,6,4,ReverseBoth,5-5,20,0,selected,5-5,2-10;4-1;4-7;10-1;0-7;10-4,2-10,1.86,21,1,
GEMS101a,2018_Feb_22_1110,Elaine,PME,spatial_frequency,8,6,4,ReverseBoth,5-5,20,1,selected,2-10,0-11;0-4;8-7;2-17;0-5;4-4,2-17,1.87,30,9,
GEMS101a,2018_Feb_22_1110,Elaine,PME,spatial_frequency,8,6,4,ReverseBoth,5-5,20,2,selected,2-17,0-18;7-17;8-17;7-22;0-19;2-23,2-23,1.65,37,7,
GEMS101a,2018_Feb_22_1110,Elaine,PME,spatial_frequency,8,6,4,ReverseBoth,5-5,20,3,selected,2-23,5-17;1-25;7-26;1-24;8-27;0-30,0-30,1.72,43,6,
GEMS101a,2018_Feb_22_1110,Elaine,PME,spatial_frequency,8,6,4,ReverseBoth,5-5,20,4,selected,0-30,4-34;0-26;0-32;1-36;6-30;4-31,4-34,1.22,50,7,
GEMS101a,2018_Feb_22_1110,Elaine,PME,spatial_frequency,8,6,4,ReverseBoth,5-5,20,5,selected,4-34,0-40;11-32;4-29;1-27;4-26;7-36,0-40,0.98,47,-3,
GEMS101a,2018_Feb_22_1110,Elaine,PME,spatial_frequency,8,6,4,ReverseBoth,5-5,20,6,selected,0-40,1-35;1-40;6-40;5-44;8-40;1-42,6-40,1.45,58,11,
GEMS101a,2018_Feb_22_1110,Elaine,PME,spatial_frequency,8,6,4,ReverseBoth,5-5,20,7,selected,6-40,1-38;0-39;9-44;6-45;8-39;3-34,8-39,1.53,62,4,
GEMS101a,2018_Feb_22_1110,Elaine,PME,spatial_frequency,8,6,4,ReverseBoth,5-5,20,8,selected,8-39,4-33;7-41;7-42;5-38;11-35;15-38,4-33,1.05,51,-11,
GEMS101a,2018_Feb_22_1110,Elaine,PME,spatial_frequency,8,6,4,ReverseBoth,5-5,20,9,selected,4-33,5-28;6-31;10-35;7-35;7-37;10-31,10-35,0.31,64,13,
GEMS101a,2018_Feb_22_1110,Elaine,PME,spatial_frequency,8,6,4,ReverseBoth,5-5,20,10,selected,10-35,4-31;7-30;17-34;4-40;12-35;5-40,7-30,0.51,54,-10,
GEMS101a,2018_Feb_22_1110,Elaine,PME,spatial_frequency,8,6,4,ReverseBoth,5-5,20,11,selected,7-30,6-31;6-25;2-27;6-30;10-36;10-32,10-36,1.28,62,8,
GEMS101a,2018_Feb_22_1110,Elaine,PME,spatial_frequency,8,6,4,ReverseBoth,5-5,20,12,selected,10-36,10-44;11-37;10-38;15-30;17-34;14-36,10-38,1.36,64,2,
GEMS101a,2018_Feb_22_1110,Elaine,PME,spatial_frequency,8,6,4,ReverseBoth,5-5,20,13,selected,10-38,18-38;4-42;13-41;8-34;5-34;12-31,5-34,0.86,53,-11,
GEMS101a,2018_Feb_22_1110,Elaine,PME,spatial_frequency,8,6,4,ReverseBoth,5-5,20,14,selected,5-34,4-33;4-32;10-33;0-40;2-35;1-34,4-33,1.57,51,-2,
GEMS101a,2018_Feb_22_1110,Elaine,PME,spatial_frequency,8,6,4,ReverseBoth,5-5,20,15,selected,4-33,6-37;4-41;5-31;2-26;9-31;7-27,5-31,0.65,53,2,
GEMS101a,2018_Feb_22_1110,Elaine,PME,spatial_frequency,8,6,4,ReverseBoth,5-5,20,16,selected,5-31,11-30;11-33;6-25;2-36;8-36;12-28,12-28,1.25,59,6,
GEMS101a,2018_Feb_22_1110,Elaine,PME,spatial_frequency,8,6,4,ReverseBoth,5-5,20,17,selected,12-28,9-22;12-21;6-33;18-31;7-30;13-21,9-22,2.21,50,-9,
GEMS101a,2018_Feb_22_1110,Elaine,PME,spatial_frequency,8,6,4,ReverseBoth,5-5,20,18,selected,9-22,12-17;10-24;13-20;11-15;13-26;4-17,13-26,1.47,60,10,
GEMS101a,2018_Feb_22_1110,Elaine,PME,spatial_frequency,8,6,4,ReverseBoth,5-5,20,19,selected,13-26,19-23;18-27;7-31;10-26;18-32;18-22,7-31,1.5,53,-7,
GEMS101a,2018_Feb_22_1110,Elaine,PME,spatial_frequency,8,6,4,ReverseBoth,5-5,20,20,selected,7-31,8-38;7-37;13-27;5-34;5-37;6-34,7-37,0.89,60,7,
GEMS101a,2018_Feb_22_1110,Elaine,PME,spatial_frequency,8,6,4,ReverseBoth,5-5,20,21,selected,7-37,1-34;5-43;3-42;6-39;10-31;8-33,8-33,1.59,56,-4,
