subj_id,date,computer,experimenter,instructions,sight_radius,n_gabors,landscape_ix,landscape_name,starting_pos,starting_score,trial,feedback,pos,stims,selected,rt,score,delta,exp_time
GEMS130,2018_Mar_09_1555,Kramer,MP,spatial_frequency,8,6,0,SpatialFrequencyBias,0-0,0,0,training,0-0,2-4;3-6;6-4;4-5;6-2;5-6,2-4,5.82,15,15,523.989586117
GEMS130,2018_Mar_09_1555,Kramer,MP,spatial_frequency,8,6,0,SpatialFrequencyBias,0-0,0,1,training,2-4,6-7;5-5;2-9;1-5;1-4;10-4,10-4,8.28,15,0,542.436381498
GEMS130,2018_Mar_09_1555,Kramer,MP,spatial_frequency,8,6,0,SpatialFrequencyBias,0-0,0,2,training,10-4,18-4;12-5;14-4;12-7;9-10;5-6,9-10,10.32,36,21,569.056532139
GEMS130,2018_Mar_09_1555,Kramer,MP,spatial_frequency,8,6,0,SpatialFrequencyBias,0-0,0,3,training,9-10,13-16;5-6;9-7;13-14;16-11;8-4,9-7,8.3,26,-10,587.780721418
GEMS130,2018_Mar_09_1555,Kramer,MP,spatial_frequency,8,6,0,SpatialFrequencyBias,0-0,0,4,training,9-7,10-0;12-3;7-13;15-2;4-2;3-3,7-13,4.95,45,19,602.930827416
GEMS130,2018_Mar_09_1555,Kramer,MP,spatial_frequency,8,6,0,SpatialFrequencyBias,0-0,0,5,training,7-13,3-12;10-17;3-16;5-10;6-16;3-14,6-16,19.76,53,8,629.493388654
GEMS130,2018_Mar_09_1555,Kramer,MP,spatial_frequency,8,6,0,SpatialFrequencyBias,0-0,0,6,training,6-16,6-10;9-14;11-16;11-20;5-18;5-23,5-18,8.01,59,6,643.914736697
GEMS130,2018_Mar_09_1555,Kramer,MP,spatial_frequency,8,6,0,SpatialFrequencyBias,0-0,0,7,training,5-18,11-14;7-13;10-14;0-21;1-23;3-16,0-21,8.36,66,7,666.395665438
GEMS130,2018_Mar_09_1555,Kramer,MP,spatial_frequency,8,6,0,SpatialFrequencyBias,0-0,0,8,training,0-21,0-13;0-17;6-19;1-19;1-20;2-28,2-28,9.36,80,14,680.621440294
GEMS130,2018_Mar_09_1555,Kramer,MP,spatial_frequency,8,6,0,SpatialFrequencyBias,0-0,0,9,training,2-28,3-25;4-35;6-30;4-31;2-32;8-32,3-25,8.71,75,-5,695.579535412
GEMS130,2018_Mar_09_1555,Kramer,MP,spatial_frequency,8,6,0,SpatialFrequencyBias,0-0,0,10,training,3-25,8-24;0-21;7-25;8-28;4-28;8-19,4-28,2.97,80,5,707.464863629
GEMS130,2018_Mar_09_1555,Kramer,MP,spatial_frequency,8,6,0,SpatialFrequencyBias,0-0,0,11,training,4-28,11-26;0-26;6-31;6-33;7-21;12-28,6-31,6.72,85,5,718.998570148
GEMS130,2018_Mar_09_1555,Kramer,MP,spatial_frequency,8,6,0,SpatialFrequencyBias,0-0,0,12,training,6-31,9-29;1-26;1-34;2-27;5-32;0-28,1-34,5.29,89,4,733.247255289
GEMS130,2018_Mar_09_1555,Kramer,MP,spatial_frequency,8,6,0,SpatialFrequencyBias,0-0,0,13,training,1-34,7-31;6-40;2-37;6-35;5-30;4-39,4-39,5.09,95,6,742.310199517
GEMS130,2018_Mar_09_1555,Kramer,MP,spatial_frequency,8,6,0,SpatialFrequencyBias,0-0,0,14,training,4-39,2-40;1-36;2-45;3-33;10-35;6-43,2-45,6.61,99,4,753.170454585
GEMS130,2018_Mar_09_1555,Kramer,MP,spatial_frequency,8,6,0,SpatialFrequencyBias,0-0,0,15,training,2-45,7-47;1-52;4-51;2-40;3-50;5-49,5-49,10.78,99,0,769.008468042
GEMS130,2018_Mar_09_1555,Kramer,MP,spatial_frequency,8,6,0,SpatialFrequencyBias,0-0,0,16,training,5-49,13-49;1-53;0-43;3-55;2-50;12-48,1-53,7.41,99,0,786.34933432
GEMS130,2018_Mar_09_1555,Kramer,MP,spatial_frequency,8,6,0,SpatialFrequencyBias,0-0,0,17,training,1-53,6-51;1-59;5-52;4-51;5-49;4-57,6-51,5.23,99,0,800.87399375
GEMS130,2018_Mar_09_1555,Kramer,MP,spatial_frequency,8,6,0,SpatialFrequencyBias,0-0,0,18,training,6-51,5-49;8-54;6-43;10-53;4-57;6-50,6-50,4.9,100,1,813.428247312
GEMS130,2018_Mar_09_1555,Kramer,MP,spatial_frequency,8,6,0,SpatialFrequencyBias,0-0,0,19,training,6-50,7-54;7-52;7-48;3-52;6-47;10-50,10-50,4.48,100,0,824.305030026
GEMS130,2018_Mar_09_1555,Kramer,MP,spatial_frequency,8,6,0,SpatialFrequencyBias,0-0,0,20,training,10-50,10-45;3-51;12-45;4-49;11-54;5-55,3-51,4.86,99,-1,836.054960166
GEMS130,2018_Mar_09_1555,Kramer,MP,spatial_frequency,8,6,0,SpatialFrequencyBias,0-0,0,21,training,3-51,4-48;6-58;3-50;8-55;4-47;7-45,3-50,3.65,100,1,846.117045907
GEMS130,2018_Mar_09_1555,Kramer,MP,spatial_frequency,8,6,0,SpatialFrequencyBias,0-0,0,22,training,3-50,4-46;4-43;9-54;7-53;8-53;2-51,2-51,3.35,99,-1,857.7120565
GEMS130,2018_Mar_09_1555,Kramer,MP,spatial_frequency,8,6,0,SpatialFrequencyBias,0-0,0,23,training,2-51,2-44;3-57;2-50;3-55;7-53;8-49,8-49,6.12,99,0,868.954366043
GEMS130,2018_Mar_09_1555,Kramer,MP,spatial_frequency,8,6,0,SpatialFrequencyBias,0-0,0,24,training,8-49,11-51;10-56;7-45;1-51;6-55;14-45,1-51,6.67,99,0,883.379549112
GEMS130,2018_Mar_09_1555,Kramer,MP,spatial_frequency,8,6,0,SpatialFrequencyBias,0-0,0,25,training,1-51,0-46;0-49;7-55;1-53;6-55;2-44,0-49,3.87,99,0,891.290455904
GEMS130,2018_Mar_09_1555,Kramer,MP,spatial_frequency,8,6,0,SpatialFrequencyBias,0-0,0,26,training,0-49,7-47;1-55;1-53;5-55;4-54;5-44,7-47,6.34,99,0,901.390037896
GEMS130,2018_Mar_09_1555,Kramer,MP,spatial_frequency,8,6,0,SpatialFrequencyBias,0-0,0,27,training,7-47,4-44;9-48;0-50;11-49;7-41;7-48,0-50,3.43,100,1,908.070090929
GEMS130,2018_Mar_09_1555,Kramer,MP,spatial_frequency,8,6,0,SpatialFrequencyBias,0-0,0,28,training,0-50,7-52;4-45;0-47;6-47;0-55;3-51,3-51,5.42,99,-1,918.707404599
GEMS130,2018_Mar_09_1555,Kramer,MP,spatial_frequency,8,6,0,SpatialFrequencyBias,0-0,0,29,training,3-51,0-55;6-47;4-46;4-57;1-57;6-53,4-57,5.46,98,-1,927.999286834
GEMS130,2018_Mar_09_1555,Kramer,MP,spatial_frequency,8,6,1,SimpleHill,0-0,0,0,selected,0-0,4-2;4-1;2-3;0-1;0-2;3-6,3-6,6.42,17,17,978.622043027
GEMS130,2018_Mar_09_1555,Kramer,MP,spatial_frequency,8,6,1,SimpleHill,0-0,0,1,selected,3-6,3-0;6-0;3-2;1-8;3-12;2-3,3-12,3.34,26,9,985.519648065
GEMS130,2018_Mar_09_1555,Kramer,MP,spatial_frequency,8,6,1,SimpleHill,0-0,0,2,selected,3-12,4-18;8-7;6-11;5-7;6-8;3-15,4-18,3.32,37,11,992.403546431
GEMS130,2018_Mar_09_1555,Kramer,MP,spatial_frequency,8,6,1,SimpleHill,0-0,0,3,selected,4-18,4-11;6-24;8-23;5-15;0-18;2-23,6-24,3.98,47,10,999.939079075
GEMS130,2018_Mar_09_1555,Kramer,MP,spatial_frequency,8,6,1,SimpleHill,0-0,0,4,selected,6-24,3-17;8-20;2-22;9-19;10-23;2-20,10-23,6.53,53,6,1010.03376974
GEMS130,2018_Mar_09_1555,Kramer,MP,spatial_frequency,8,6,1,SimpleHill,0-0,0,5,selected,10-23,10-25;11-29;10-20;6-21;15-19;7-24,11-29,4.12,60,7,1017.70173384
GEMS130,2018_Mar_09_1555,Kramer,MP,spatial_frequency,8,6,1,SimpleHill,0-0,0,6,selected,11-29,13-22;14-25;13-35;4-29;5-24;6-25,13-35,4.36,68,8,1025.64881555
GEMS130,2018_Mar_09_1555,Kramer,MP,spatial_frequency,8,6,1,SimpleHill,0-0,0,7,selected,13-35,11-42;12-28;11-29;9-32;20-36;16-28,11-29,10.7,60,-8,1039.92287184
GEMS130,2018_Mar_09_1555,Kramer,MP,spatial_frequency,8,6,1,SimpleHill,0-0,0,8,selected,11-29,13-25;9-26;10-27;7-31;17-27;12-23,7-31,3.0,55,-5,1046.48397442
GEMS130,2018_Mar_09_1555,Kramer,MP,spatial_frequency,8,6,1,SimpleHill,0-0,0,9,selected,7-31,13-34;8-32;7-33;12-28;4-28;12-31,4-28,3.98,48,-7,1054.04872669
GEMS130,2018_Mar_09_1555,Kramer,MP,spatial_frequency,8,6,1,SimpleHill,0-0,0,10,selected,4-28,1-23;2-23;8-25;1-21;1-28;6-30,1-28,4.22,42,-6,1061.83265255
GEMS130,2018_Mar_09_1555,Kramer,MP,spatial_frequency,8,6,1,SimpleHill,0-0,0,11,selected,1-28,4-32;2-28;1-32;5-29;7-31;5-34,2-28,2.5,44,2,1067.89831948
GEMS130,2018_Mar_09_1555,Kramer,MP,spatial_frequency,8,6,1,SimpleHill,0-0,0,12,selected,2-28,2-36;2-33;7-31;8-32;8-25;7-34,2-33,5.65,48,4,1077.10629913
GEMS130,2018_Mar_09_1555,Kramer,MP,spatial_frequency,8,6,1,SimpleHill,0-0,0,13,selected,2-33,2-29;6-36;2-41;0-37;4-38;4-37,4-38,3.73,54,6,1084.40190884
GEMS130,2018_Mar_09_1555,Kramer,MP,spatial_frequency,8,6,1,SimpleHill,0-0,0,14,selected,4-38,9-39;6-39;0-34;10-33;5-42;7-43,7-43,4.21,62,8,1092.20158676
GEMS130,2018_Mar_09_1555,Kramer,MP,spatial_frequency,8,6,1,SimpleHill,0-0,0,15,selected,7-43,11-37;0-46;2-38;4-39;7-51;13-44,7-51,4.98,63,1,1100.7527111
GEMS130,2018_Mar_09_1555,Kramer,MP,spatial_frequency,8,6,1,SimpleHill,0-0,0,16,selected,7-51,10-44;13-54;5-48;15-51;2-49;4-45,13-54,4.1,72,9,1108.43456273
GEMS130,2018_Mar_09_1555,Kramer,MP,spatial_frequency,8,6,1,SimpleHill,0-0,0,17,selected,13-54,10-47;9-58;9-60;13-49;15-48;19-57,13-49,3.0,72,0,1115.01585513
GEMS130,2018_Mar_09_1555,Kramer,MP,spatial_frequency,8,6,1,SimpleHill,0-0,0,18,selected,13-49,15-44;12-51;15-49;11-48;6-49;13-57,6-49,3.16,61,-11,1121.74531281
GEMS130,2018_Mar_09_1555,Kramer,MP,spatial_frequency,8,6,1,SimpleHill,0-0,0,19,selected,6-49,2-55;3-50;3-42;4-56;5-56;9-45,3-50,3.51,55,-6,1128.82436696
GEMS130,2018_Mar_09_1555,Kramer,MP,spatial_frequency,8,6,1,SimpleHill,0-0,0,20,selected,3-50,5-52;9-53;3-50;5-50;4-52;5-46,3-50,3.05,55,0,1135.44019924
GEMS130,2018_Mar_09_1555,Kramer,MP,spatial_frequency,8,6,1,SimpleHill,0-0,0,21,selected,3-50,5-53;5-46;2-54;11-50;2-57;3-52,2-57,3.36,52,-3,1142.37768938
GEMS130,2018_Mar_09_1555,Kramer,MP,spatial_frequency,8,6,1,SimpleHill,0-0,0,22,selected,2-57,6-56;7-52;1-62;6-58;1-61;6-51,7-52,3.45,62,10,1149.40490458
GEMS130,2018_Mar_09_1555,Kramer,MP,spatial_frequency,8,6,1,SimpleHill,0-0,0,23,selected,7-52,12-56;14-54;8-52;8-59;2-54;6-59,14-54,2.48,73,11,1155.43730624
GEMS130,2018_Mar_09_1555,Kramer,MP,spatial_frequency,8,6,1,SimpleHill,0-0,0,24,selected,14-54,15-61;16-57;10-52;20-56;20-50;20-49,10-52,3.39,67,-6,1162.39148663
GEMS130,2018_Mar_09_1555,Kramer,MP,spatial_frequency,8,6,1,SimpleHill,0-0,0,25,selected,10-52,14-47;11-46;13-52;5-55;15-58;4-54,14-47,5.45,73,6,1171.4044859
GEMS130,2018_Mar_09_1555,Kramer,MP,spatial_frequency,8,6,1,SimpleHill,0-0,0,26,selected,14-47,15-40;17-42;8-44;11-52;17-48;18-41,17-42,4.69,76,3,1179.65659219
GEMS130,2018_Mar_09_1555,Kramer,MP,spatial_frequency,8,6,1,SimpleHill,0-0,0,27,selected,17-42,13-47;15-48;16-42;12-43;23-44;17-35,16-42,10.98,75,-1,1194.20949368
GEMS130,2018_Mar_09_1555,Kramer,MP,spatial_frequency,8,6,1,SimpleHill,0-0,0,28,selected,16-42,17-47;14-49;22-38;14-48;16-38;19-37,14-49,4.82,74,-1,1202.59724132
GEMS130,2018_Mar_09_1555,Kramer,MP,spatial_frequency,8,6,1,SimpleHill,0-0,0,29,selected,14-49,18-44;12-46;16-54;18-48;17-50;10-53,16-54,2.88,76,2,1209.03527449
GEMS130,2018_Mar_09_1555,Kramer,MP,spatial_frequency,8,6,1,SimpleHill,0-0,0,30,selected,16-54,15-61;21-54;10-56;10-49;22-53;12-54,10-49,4.45,67,-9,1217.04800904
GEMS130,2018_Mar_09_1555,Kramer,MP,spatial_frequency,8,6,1,SimpleHill,0-0,0,31,selected,10-49,5-45;14-54;11-50;9-52;12-48;14-52,5-45,2.24,59,-8,1222.851143
GEMS130,2018_Mar_09_1555,Kramer,MP,spatial_frequency,8,6,1,SimpleHill,0-0,0,32,selected,5-45,10-48;4-50;12-48;10-40;1-40;0-48,4-50,2.56,57,-2,1228.97973496
GEMS130,2018_Mar_09_1555,Kramer,MP,spatial_frequency,8,6,1,SimpleHill,0-0,0,33,selected,4-50,6-49;8-48;3-44;4-48;1-51;2-57,1-51,2.14,51,-6,1234.68774677
GEMS130,2018_Mar_09_1555,Kramer,MP,spatial_frequency,8,6,1,SimpleHill,0-0,0,34,selected,1-51,4-47;8-49;0-55;1-54;0-54;2-55,8-49,2.89,64,13,1241.15474414
GEMS130,2018_Mar_09_1555,Kramer,MP,spatial_frequency,8,6,1,SimpleHill,0-0,0,35,selected,8-49,7-49;7-47;8-47;7-43;2-51;11-48,2-51,2.9,53,-11,1247.61754381
GEMS130,2018_Mar_09_1555,Kramer,MP,spatial_frequency,8,6,1,SimpleHill,0-0,0,36,selected,2-51,0-54;7-50;4-48;4-52;2-43;6-54,7-50,2.46,63,10,1253.64163364
GEMS130,2018_Mar_09_1555,Kramer,MP,spatial_frequency,8,6,1,SimpleHill,0-0,0,37,selected,7-50,10-54;11-45;12-56;7-56;3-55;8-54,7-56,6.42,62,-1,1263.64636844
GEMS130,2018_Mar_09_1555,Kramer,MP,spatial_frequency,8,6,1,SimpleHill,0-0,0,38,selected,7-56,11-56;7-54;3-52;4-49;10-61;8-53,3-52,6.9,55,-7,1274.10736055
GEMS130,2018_Mar_09_1555,Kramer,MP,spatial_frequency,8,6,1,SimpleHill,0-0,0,39,selected,3-52,1-46;3-45;9-54;0-48;0-55;6-49,6-49,3.36,61,6,1281.04619732
GEMS130,2018_Mar_09_1555,Kramer,MP,spatial_frequency,8,6,2,SimpleHill,0-0,0,0,selected,0-0,0-7;5-2;1-4;2-4;7-2;1-1,1-4,11.31,9,9,1319.49109839
GEMS130,2018_Mar_09_1555,Kramer,MP,spatial_frequency,8,6,2,SimpleHill,0-0,0,1,selected,1-4,7-7;6-3;5-4;8-4;5-10;3-8,5-10,11.48,27,18,1334.54284035
GEMS130,2018_Mar_09_1555,Kramer,MP,spatial_frequency,8,6,2,SimpleHill,0-0,0,2,selected,5-10,4-17;3-17;0-15;0-12;1-15;0-13,0-15,8.93,25,-2,1347.043973
GEMS130,2018_Mar_09_1555,Kramer,MP,spatial_frequency,8,6,2,SimpleHill,0-0,0,3,selected,0-15,6-18;2-8;0-13;0-16;6-16;2-20,0-16,2.79,26,1,1353.41041273
GEMS130,2018_Mar_09_1555,Kramer,MP,spatial_frequency,8,6,2,SimpleHill,0-0,0,4,selected,0-16,1-12;4-15;1-22;6-17;2-17;7-19,1-22,3.83,36,10,1360.82116764
GEMS130,2018_Mar_09_1555,Kramer,MP,spatial_frequency,8,6,2,SimpleHill,0-0,0,5,selected,1-22,4-15;1-16;4-16;1-21;5-20;2-19,2-19,4.27,34,-2,1368.65440564
GEMS130,2018_Mar_09_1555,Kramer,MP,spatial_frequency,8,6,2,SimpleHill,0-0,0,6,selected,2-19,4-13;2-23;2-12;4-22;8-21;7-23,2-23,3.81,39,5,1376.02651869
GEMS130,2018_Mar_09_1555,Kramer,MP,spatial_frequency,8,6,2,SimpleHill,0-0,0,7,selected,2-23,2-17;1-20;2-16;0-18;8-22;8-27,8-27,2.94,54,15,1382.54329488
GEMS130,2018_Mar_09_1555,Kramer,MP,spatial_frequency,8,6,2,SimpleHill,0-0,0,8,selected,8-27,6-30;6-26;5-32;15-30;12-25;10-34,5-32,4.94,53,-1,1391.0513969
GEMS130,2018_Mar_09_1555,Kramer,MP,spatial_frequency,8,6,2,SimpleHill,0-0,0,9,selected,5-32,0-36;7-25;3-34;6-25;7-28;11-32,3-34,6.69,50,-3,1401.32244785
GEMS130,2018_Mar_09_1555,Kramer,MP,spatial_frequency,8,6,2,SimpleHill,0-0,0,10,selected,3-34,3-32;6-27;5-37;7-28;1-41;4-36,3-32,8.31,49,-1,1413.21337192
GEMS130,2018_Mar_09_1555,Kramer,MP,spatial_frequency,8,6,2,SimpleHill,0-0,0,11,selected,3-32,9-36;4-36;8-31;5-39;2-28;0-32,8-31,3.77,57,8,1420.53861161
GEMS130,2018_Mar_09_1555,Kramer,MP,spatial_frequency,8,6,2,SimpleHill,0-0,0,12,selected,8-31,9-24;10-28;9-32;10-29;12-34;12-35,10-29,2.93,59,2,1427.05233285
GEMS130,2018_Mar_09_1555,Kramer,MP,spatial_frequency,8,6,2,SimpleHill,0-0,0,13,selected,10-29,13-24;3-32;5-26;14-27;15-33;8-22,5-26,3.75,47,-12,1434.36880009
GEMS130,2018_Mar_09_1555,Kramer,MP,spatial_frequency,8,6,2,SimpleHill,0-0,0,14,selected,5-26,1-23;6-21;0-32;3-33;10-28;11-30,3-33,3.33,50,3,1441.26721592
GEMS130,2018_Mar_09_1555,Kramer,MP,spatial_frequency,8,6,2,SimpleHill,0-0,0,15,selected,3-33,7-28;7-35;0-27;2-33;5-29;9-34,2-33,3.2,48,-2,1448.04642811
GEMS130,2018_Mar_09_1555,Kramer,MP,spatial_frequency,8,6,2,SimpleHill,0-0,0,16,selected,2-33,4-36;1-40;0-26;6-34;2-41;3-31,1-40,2.16,49,1,1453.79005691
GEMS130,2018_Mar_09_1555,Kramer,MP,spatial_frequency,8,6,2,SimpleHill,0-0,0,17,selected,1-40,1-42;0-35;0-34;5-41;3-41;8-41,0-34,2.39,44,-5,1459.75167432
GEMS130,2018_Mar_09_1555,Kramer,MP,spatial_frequency,8,6,2,SimpleHill,0-0,0,18,selected,0-34,4-33;0-37;6-36;2-32;6-35;7-31,0-37,10.01,46,2,1473.32793231
GEMS130,2018_Mar_09_1555,Kramer,MP,spatial_frequency,8,6,2,SimpleHill,0-0,0,19,selected,0-37,1-31;3-39;5-32;0-33;4-39;6-34,4-39,1.89,55,9,1478.80095221
GEMS130,2018_Mar_09_1555,Kramer,MP,spatial_frequency,8,6,2,SimpleHill,0-0,0,20,selected,4-39,2-45;5-34;2-44;4-38;7-32;5-41,4-38,1.33,54,-1,1483.70694751
GEMS130,2018_Mar_09_1555,Kramer,MP,spatial_frequency,8,6,2,SimpleHill,0-0,0,21,selected,4-38,7-36;8-44;6-42;6-38;4-37;7-34,8-44,1.85,64,10,1489.12052179
GEMS130,2018_Mar_09_1555,Kramer,MP,spatial_frequency,8,6,2,SimpleHill,0-0,0,22,selected,8-44,6-49;4-42;5-40;12-41;13-39;7-51,12-41,1.79,69,5,1494.48970023
GEMS130,2018_Mar_09_1555,Kramer,MP,spatial_frequency,8,6,2,SimpleHill,0-0,0,23,selected,12-41,6-39;10-43;19-39;12-46;5-41;16-42,19-39,1.43,78,9,1499.49721472
GEMS130,2018_Mar_09_1555,Kramer,MP,spatial_frequency,8,6,2,SimpleHill,0-0,0,24,selected,19-39,18-46;21-44;13-43;22-44;23-41;14-42,13-43,1.08,71,-7,1504.12775395
GEMS130,2018_Mar_09_1555,Kramer,MP,spatial_frequency,8,6,2,SimpleHill,0-0,0,25,selected,13-43,20-42;19-38;18-42;18-37;9-45;17-48,18-37,0.99,76,5,1508.68476127
GEMS130,2018_Mar_09_1555,Kramer,MP,spatial_frequency,8,6,2,SimpleHill,0-0,0,26,selected,18-37,16-35;18-32;19-31;19-38;25-40;18-44,25-40,1.43,85,9,1513.68318642
GEMS130,2018_Mar_09_1555,Kramer,MP,spatial_frequency,8,6,2,SimpleHill,0-0,0,27,selected,25-40,24-41;25-44;23-44;23-36;30-40;30-35,23-36,1.91,81,-4,1519.16411068
GEMS130,2018_Mar_09_1555,Kramer,MP,spatial_frequency,8,6,2,SimpleHill,0-0,0,28,selected,23-36,23-44;21-29;25-38;25-43;16-35;26-40,16-35,3.15,72,-9,1525.88496075
GEMS130,2018_Mar_09_1555,Kramer,MP,spatial_frequency,8,6,2,SimpleHill,0-0,0,29,selected,16-35,15-29;12-40;13-42;20-36;20-34;13-30,13-42,0.8,71,-1,1530.25371891
GEMS130,2018_Mar_09_1555,Kramer,MP,spatial_frequency,8,6,2,SimpleHill,0-0,0,30,selected,13-42,15-41;9-42;13-46;11-43;14-46;18-48,9-42,1.62,65,-6,1535.46168735
GEMS130,2018_Mar_09_1555,Kramer,MP,spatial_frequency,8,6,2,SimpleHill,0-0,0,31,selected,9-42,11-41;9-43;13-44;4-44;12-44;8-45,11-41,2.4,67,2,1541.42226479
GEMS130,2018_Mar_09_1555,Kramer,MP,spatial_frequency,8,6,2,SimpleHill,0-0,0,32,selected,11-41,14-38;7-38;7-35;17-46;12-44;10-43,7-38,3.81,60,-7,1548.81444986
GEMS130,2018_Mar_09_1555,Kramer,MP,spatial_frequency,8,6,2,SimpleHill,0-0,0,33,selected,7-38,6-37;3-39;10-39;9-35;5-45;1-35,10-39,1.3,65,5,1553.69015931
GEMS130,2018_Mar_09_1555,Kramer,MP,spatial_frequency,8,6,2,SimpleHill,0-0,0,34,selected,10-39,4-41;16-43;7-37;8-33;16-34;8-34,4-41,2.81,56,-9,1560.07471914
GEMS130,2018_Mar_09_1555,Kramer,MP,spatial_frequency,8,6,2,SimpleHill,0-0,0,35,selected,4-41,1-44;1-40;4-36;7-44;2-43;1-36,2-43,2.17,52,-4,1565.81994297
GEMS130,2018_Mar_09_1555,Kramer,MP,spatial_frequency,8,6,2,SimpleHill,0-0,0,36,selected,2-43,5-37;2-37;0-47;7-42;0-43;6-47,7-42,2.25,61,9,1571.63630506
GEMS130,2018_Mar_09_1555,Kramer,MP,spatial_frequency,8,6,2,SimpleHill,0-0,0,37,selected,7-42,3-45;7-37;0-44;7-38;5-48;12-38,5-48,1.71,59,-2,1576.9409132
GEMS130,2018_Mar_09_1555,Kramer,MP,spatial_frequency,8,6,2,SimpleHill,0-0,0,38,selected,5-48,10-53;2-44;6-55;8-41;5-52;3-52,2-44,3.01,53,-6,1583.52688631
GEMS130,2018_Mar_09_1555,Kramer,MP,spatial_frequency,8,6,2,SimpleHill,0-0,0,39,selected,2-44,1-43;7-43;2-41;4-44;1-40;3-41,1-43,1.45,51,-2,1588.5352452
GEMS130,2018_Mar_09_1555,Kramer,MP,spatial_frequency,8,6,3,SimpleHill,0-0,0,0,selected,0-0,3-1;0-4;4-3;4-6;2-2;6-3,3-1,7.46,7,7,1617.72287434
GEMS130,2018_Mar_09_1555,Kramer,MP,spatial_frequency,8,6,3,SimpleHill,0-0,0,1,selected,3-1,0-5;10-0;7-1;0-3;2-8;6-7,2-8,10.1,18,11,1631.39221036
GEMS130,2018_Mar_09_1555,Kramer,MP,spatial_frequency,8,6,3,SimpleHill,0-0,0,2,selected,2-8,6-2;9-10;5-14;5-12;7-3;3-7,5-14,2.26,33,15,1637.22486355
GEMS130,2018_Mar_09_1555,Kramer,MP,spatial_frequency,8,6,3,SimpleHill,0-0,0,3,selected,5-14,5-20;10-20;2-18;12-16;1-12;4-8,12-16,3.08,48,15,1643.87593127
GEMS130,2018_Mar_09_1555,Kramer,MP,spatial_frequency,8,6,3,SimpleHill,0-0,0,4,selected,12-16,16-12;6-14;15-18;17-17;17-14;8-17,15-18,3.46,55,7,1650.90003646
GEMS130,2018_Mar_09_1555,Kramer,MP,spatial_frequency,8,6,3,SimpleHill,0-0,0,5,selected,15-18,15-13;22-21;17-20;12-13;16-17;12-15,22-21,3.48,67,12,1657.95196983
GEMS130,2018_Mar_09_1555,Kramer,MP,spatial_frequency,8,6,3,SimpleHill,0-0,0,6,selected,22-21,16-24;17-21;20-17;19-26;18-21;17-27,19-26,5.21,69,2,1666.72993782
GEMS130,2018_Mar_09_1555,Kramer,MP,spatial_frequency,8,6,3,SimpleHill,0-0,0,7,selected,19-26,20-32;16-29;26-24;13-26;13-31;12-25,16-29,2.14,68,-1,1672.42219757
GEMS130,2018_Mar_09_1555,Kramer,MP,spatial_frequency,8,6,3,SimpleHill,0-0,0,8,selected,16-29,18-24;14-24;22-34;15-28;19-22;20-30,22-34,1.89,79,11,1677.86993306
GEMS130,2018_Mar_09_1555,Kramer,MP,spatial_frequency,8,6,3,SimpleHill,0-0,0,9,selected,22-34,17-36;27-33;23-37;17-38;26-39;23-35,23-37,1.65,82,3,1683.09652991
GEMS130,2018_Mar_09_1555,Kramer,MP,spatial_frequency,8,6,3,SimpleHill,0-0,0,10,selected,23-37,20-34;29-34;21-43;29-38;26-32;30-35,29-38,2.86,88,6,1689.53220913
GEMS130,2018_Mar_09_1555,Kramer,MP,spatial_frequency,8,6,3,SimpleHill,0-0,0,11,selected,29-38,30-32;22-41;29-41;29-37;34-43;28-44,22-41,2.47,82,-6,1695.57199532
GEMS130,2018_Mar_09_1555,Kramer,MP,spatial_frequency,8,6,3,SimpleHill,0-0,0,12,selected,22-41,19-41;22-43;25-40;25-46;17-35;22-33,25-40,1.43,85,3,1700.57583643
GEMS130,2018_Mar_09_1555,Kramer,MP,spatial_frequency,8,6,3,SimpleHill,0-0,0,13,selected,25-40,28-36;26-34;25-43;26-46;22-45;23-41,28-36,3.24,86,1,1707.37246963
GEMS130,2018_Mar_09_1555,Kramer,MP,spatial_frequency,8,6,3,SimpleHill,0-0,0,14,selected,28-36,33-41;27-31;25-42;28-32;29-35;25-30,33-41,6.94,92,6,1717.8833875
GEMS130,2018_Mar_09_1555,Kramer,MP,spatial_frequency,8,6,3,SimpleHill,0-0,0,15,selected,33-41,37-40;37-42;26-39;29-42;29-43;34-39,26-39,6.66,86,-6,1728.11995779
GEMS130,2018_Mar_09_1555,Kramer,MP,spatial_frequency,8,6,3,SimpleHill,0-0,0,16,selected,26-39,25-42;22-33;32-39;30-42;26-32;29-39,30-42,3.02,90,4,1734.69238331
GEMS130,2018_Mar_09_1555,Kramer,MP,spatial_frequency,8,6,3,SimpleHill,0-0,0,17,selected,30-42,29-40;24-44;27-41;31-48;27-37;26-38,31-48,6.33,92,2,1744.5992771
GEMS130,2018_Mar_09_1555,Kramer,MP,spatial_frequency,8,6,3,SimpleHill,0-0,0,18,selected,31-48,26-46;32-43;36-51;30-41;32-53;28-49,32-43,4.38,92,0,1752.54516326
GEMS130,2018_Mar_09_1555,Kramer,MP,spatial_frequency,8,6,3,SimpleHill,0-0,0,19,selected,32-43,34-49;40-43;37-44;29-46;34-36;28-43,34-49,2.74,94,2,1758.86214425
GEMS130,2018_Mar_09_1555,Kramer,MP,spatial_frequency,8,6,3,SimpleHill,0-0,0,20,selected,34-49,35-46;29-47;34-55;37-56;35-50;34-43,35-50,2.96,95,1,1765.38323946
GEMS130,2018_Mar_09_1555,Kramer,MP,spatial_frequency,8,6,3,SimpleHill,0-0,0,21,selected,35-50,28-47;31-54;37-44;30-46;37-55;38-54,31-54,3.46,92,-3,1772.40102346
GEMS130,2018_Mar_09_1555,Kramer,MP,spatial_frequency,8,6,3,SimpleHill,0-0,0,22,selected,31-54,36-50;30-48;34-47;28-57;35-55;28-52,30-48,2.68,91,-1,1778.66216115
GEMS130,2018_Mar_09_1555,Kramer,MP,spatial_frequency,8,6,3,SimpleHill,0-0,0,23,selected,30-48,29-41;31-54;30-42;24-47;31-42;26-54,24-47,3.99,86,-5,1786.23372787
GEMS130,2018_Mar_09_1555,Kramer,MP,spatial_frequency,8,6,3,SimpleHill,0-0,0,24,selected,24-47,17-44;28-45;22-49;27-44;21-52;31-46,17-44,1.68,77,-9,1791.47713501
GEMS130,2018_Mar_09_1555,Kramer,MP,spatial_frequency,8,6,3,SimpleHill,0-0,0,25,selected,17-44,14-43;21-41;22-48;23-43;17-38;18-38,22-48,1.33,84,7,1796.38397119
GEMS130,2018_Mar_09_1555,Kramer,MP,spatial_frequency,8,6,3,SimpleHill,0-0,0,26,selected,22-48,17-53;27-49;27-50;20-47;27-54;17-52,27-50,1.55,89,5,1801.50271582
GEMS130,2018_Mar_09_1555,Kramer,MP,spatial_frequency,8,6,3,SimpleHill,0-0,0,27,selected,27-50,31-44;29-45;32-53;27-47;28-50;25-43,27-47,1.97,89,0,1807.05260877
GEMS130,2018_Mar_09_1555,Kramer,MP,spatial_frequency,8,6,3,SimpleHill,0-0,0,28,selected,27-47,22-50;33-44;20-44;30-52;23-41;35-47,22-50,1.99,84,-5,1812.61053763
GEMS130,2018_Mar_09_1555,Kramer,MP,spatial_frequency,8,6,3,SimpleHill,0-0,0,29,selected,22-50,18-46;16-54;17-48;26-51;28-49;20-47,17-48,1.7,78,-6,1817.87816295
GEMS130,2018_Mar_09_1555,Kramer,MP,spatial_frequency,8,6,3,SimpleHill,0-0,0,30,selected,17-48,17-54;18-46;16-55;14-49;20-52;19-54,19-54,2.34,80,2,1823.78050856
GEMS130,2018_Mar_09_1555,Kramer,MP,spatial_frequency,8,6,3,SimpleHill,0-0,0,31,selected,19-54,22-50;25-55;13-53;21-60;26-57;23-58,13-53,3.81,72,-8,1831.15762977
GEMS130,2018_Mar_09_1555,Kramer,MP,spatial_frequency,8,6,3,SimpleHill,0-0,0,32,selected,13-53,10-50;14-53;12-54;17-47;11-53;12-60,10-50,2.57,68,-4,1837.31099879
GEMS130,2018_Mar_09_1555,Kramer,MP,spatial_frequency,8,6,3,SimpleHill,0-0,0,33,selected,10-50,6-46;9-55;10-57;14-51;3-52;12-43,6-46,2.95,60,-8,1843.82541782
GEMS130,2018_Mar_09_1555,Kramer,MP,spatial_frequency,8,6,3,SimpleHill,0-0,0,34,selected,6-46,9-45;8-53;10-42;5-47;2-46;11-48,11-48,2.14,69,9,1849.5229018
GEMS130,2018_Mar_09_1555,Kramer,MP,spatial_frequency,8,6,3,SimpleHill,0-0,0,35,selected,11-48,13-50;15-46;4-49;13-45;17-44;18-49,18-49,1.47,79,10,1854.54563124
GEMS130,2018_Mar_09_1555,Kramer,MP,spatial_frequency,8,6,3,SimpleHill,0-0,0,36,selected,18-49,14-46;21-52;24-52;14-50;20-55;17-46,20-55,1.74,81,2,1859.8376175
GEMS130,2018_Mar_09_1555,Kramer,MP,spatial_frequency,8,6,3,SimpleHill,0-0,0,37,selected,20-55,24-50;16-58;18-60;27-53;23-53;25-61,23-53,1.86,85,4,1865.27180637
GEMS130,2018_Mar_09_1555,Kramer,MP,spatial_frequency,8,6,3,SimpleHill,0-0,0,38,selected,23-53,17-55;21-59;17-51;17-48;22-56;18-59,21-59,1.59,81,-4,1870.42891438
GEMS130,2018_Mar_09_1555,Kramer,MP,spatial_frequency,8,6,3,SimpleHill,0-0,0,39,selected,21-59,27-57;24-52;14-62;21-61;26-59;25-64,27-57,3.77,88,7,1877.76508491
GEMS130,2018_Mar_09_1555,Kramer,MP,spatial_frequency,8,6,4,SimpleHill,0-0,0,0,selected,0-0,4-1;1-7;4-2;5-2;4-3;3-3,1-7,1.89,15,15,1890.48422889
GEMS130,2018_Mar_09_1555,Kramer,MP,spatial_frequency,8,6,4,SimpleHill,0-0,0,1,selected,1-7,1-14;9-7;1-5;6-9;4-3;6-12,1-14,1.85,26,11,1895.89160939
GEMS130,2018_Mar_09_1555,Kramer,MP,spatial_frequency,8,6,4,SimpleHill,0-0,0,2,selected,1-14,1-17;0-14;2-19;2-15;4-16;4-21,2-19,2.79,34,8,1902.27228683
GEMS130,2018_Mar_09_1555,Kramer,MP,spatial_frequency,8,6,4,SimpleHill,0-0,0,3,selected,2-19,9-17;1-25;0-24;6-13;5-14;2-21,1-25,3.18,39,5,1909.01967735
GEMS130,2018_Mar_09_1555,Kramer,MP,spatial_frequency,8,6,4,SimpleHill,0-0,0,4,selected,1-25,6-26;3-27;0-18;0-29;4-30;4-19,0-29,3.03,41,2,1915.61704191
GEMS130,2018_Mar_09_1555,Kramer,MP,spatial_frequency,8,6,4,SimpleHill,0-0,0,5,selected,0-29,4-28;0-29;0-26;0-28;7-30;0-33,0-33,1.81,44,3,1920.98637655
GEMS130,2018_Mar_09_1555,Kramer,MP,spatial_frequency,8,6,4,SimpleHill,0-0,0,6,selected,0-33,4-30;0-37;5-32;6-32;0-36;2-34,5-32,1.7,53,9,1926.2676839
GEMS130,2018_Mar_09_1555,Kramer,MP,spatial_frequency,8,6,4,SimpleHill,0-0,0,7,selected,5-32,5-40;5-24;10-27;9-36;8-35;4-33,5-40,2.84,57,4,1932.68438612
GEMS130,2018_Mar_09_1555,Kramer,MP,spatial_frequency,8,6,4,SimpleHill,0-0,0,8,selected,5-40,1-46;12-41;11-45;6-34;0-41;12-42,12-41,1.92,69,12,1938.16266226
GEMS130,2018_Mar_09_1555,Kramer,MP,spatial_frequency,8,6,4,SimpleHill,0-0,0,9,selected,12-41,10-41;14-38;13-43;10-37;10-42;8-36,14-38,3.6,71,2,1945.34194787
GEMS130,2018_Mar_09_1555,Kramer,MP,spatial_frequency,8,6,4,SimpleHill,0-0,0,10,selected,14-38,18-39;7-35;10-41;13-40;20-36;18-40,10-41,2.07,66,-5,1950.99916136
GEMS130,2018_Mar_09_1555,Kramer,MP,spatial_frequency,8,6,4,SimpleHill,0-0,0,11,selected,10-41,6-43;5-44;10-38;9-40;15-35;13-36,6-43,1.4,60,-6,1955.96051822
GEMS130,2018_Mar_09_1555,Kramer,MP,spatial_frequency,8,6,4,SimpleHill,0-0,0,12,selected,6-43,4-38;5-41;8-36;1-43;0-41;8-50,1-43,2.13,51,-9,1961.65158915
GEMS130,2018_Mar_09_1555,Kramer,MP,spatial_frequency,8,6,4,SimpleHill,0-0,0,13,selected,1-43,4-49;3-38;1-40;7-44;4-36;2-48,4-49,2.52,57,6,1967.74380197
GEMS130,2018_Mar_09_1555,Kramer,MP,spatial_frequency,8,6,4,SimpleHill,0-0,0,14,selected,4-49,1-51;5-52;4-46;0-49;2-53;1-49,1-49,1.06,51,-6,1972.3757605
GEMS130,2018_Mar_09_1555,Kramer,MP,spatial_frequency,8,6,4,SimpleHill,0-0,0,15,selected,1-49,8-46;1-41;2-55;7-51;4-56;7-45,2-55,1.3,53,2,1977.25503449
GEMS130,2018_Mar_09_1555,Kramer,MP,spatial_frequency,8,6,4,SimpleHill,0-0,0,16,selected,2-55,4-54;0-50;3-52;3-55;6-56;0-60,3-52,1.68,55,2,1982.51670066
GEMS130,2018_Mar_09_1555,Kramer,MP,spatial_frequency,8,6,4,SimpleHill,0-0,0,17,selected,3-52,3-59;2-45;3-54;6-58;6-45;10-52,3-59,2.44,54,-1,1988.5266933
GEMS130,2018_Mar_09_1555,Kramer,MP,spatial_frequency,8,6,4,SimpleHill,0-0,0,18,selected,3-59,2-55;7-55;1-66;5-59;7-53;5-53,7-55,2.96,62,8,1995.04266574
GEMS130,2018_Mar_09_1555,Kramer,MP,spatial_frequency,8,6,4,SimpleHill,0-0,0,19,selected,7-55,3-50;4-62;9-48;12-58;7-47;9-59,9-48,2.82,66,4,2001.41348818
GEMS130,2018_Mar_09_1555,Kramer,MP,spatial_frequency,8,6,4,SimpleHill,0-0,0,20,selected,9-48,9-42;5-54;10-54;9-47;7-43;8-46,10-54,3.27,67,1,2008.25323813
GEMS130,2018_Mar_09_1555,Kramer,MP,spatial_frequency,8,6,4,SimpleHill,0-0,0,21,selected,10-54,10-47;8-48;14-56;9-50;9-55;4-55,4-55,2.06,57,-10,2013.89636916
GEMS130,2018_Mar_09_1555,Kramer,MP,spatial_frequency,8,6,4,SimpleHill,0-0,0,22,selected,4-55,1-54;7-52;11-52;0-60;1-48;10-60,7-52,1.11,62,5,2018.58671668
GEMS130,2018_Mar_09_1555,Kramer,MP,spatial_frequency,8,6,4,SimpleHill,0-0,0,23,selected,7-52,2-52;2-48;3-50;1-56;4-53;4-58,4-53,2.28,57,-5,2024.44386878
GEMS130,2018_Mar_09_1555,Kramer,MP,spatial_frequency,8,6,4,SimpleHill,0-0,0,24,selected,4-53,8-55;4-52;9-59;3-51;4-51;11-52,9-59,2.13,64,7,2030.1262364
GEMS130,2018_Mar_09_1555,Kramer,MP,spatial_frequency,8,6,4,SimpleHill,0-0,0,25,selected,9-59,8-53;4-62;4-63;13-56;6-53;9-59,13-56,1.96,71,7,2035.6376152
GEMS130,2018_Mar_09_1555,Kramer,MP,spatial_frequency,8,6,4,SimpleHill,0-0,0,26,selected,13-56,17-57;6-59;11-59;13-63;19-54;15-53,17-57,1.3,77,6,2040.5163812
GEMS130,2018_Mar_09_1555,Kramer,MP,spatial_frequency,8,6,4,SimpleHill,0-0,0,27,selected,17-57,21-55;21-52;16-50;15-55;13-57;13-63,16-50,1.75,76,-1,2045.83166218
