subj_id,date,computer,experimenter,instructions,sight_radius,n_gabors,start_pos_list_ix,start_pos_list,landscape_ix,landscape_name,starting_pos,starting_score,trial,feedback,pos,stims,selected,rt,score,delta,exp_time
GEMS140,2018_Apr_26_1203,Kramer,MP,spatial_frequency,8,6,0,0-0;0-0;0-0;0-0,0,SpatialFrequencyBias,0-0,0,0,training,0-0,6-3;2-4;7-0;1-2;5-5;5-4,5-5,5.9,19,19,120.70105541
GEMS140,2018_Apr_26_1203,Kramer,MP,spatial_frequency,8,6,0,0-0;0-0;0-0;0-0,0,SpatialFrequencyBias,0-0,0,1,training,5-5,7-3;2-7;5-12;12-5;12-2;1-7,1-7,2.95,26,7,129.233289395
GEMS140,2018_Apr_26_1203,Kramer,MP,spatial_frequency,8,6,0,0-0;0-0;0-0;0-0,0,SpatialFrequencyBias,0-0,0,2,training,1-7,4-2;5-11;5-2;7-3;3-4;0-8,3-4,2.6,15,-11,136.879873653
GEMS140,2018_Apr_26_1203,Kramer,MP,spatial_frequency,8,6,0,0-0;0-0;0-0;0-0,0,SpatialFrequencyBias,0-0,0,3,training,3-4,1-1;7-10;9-6;6-10;6-7;7-0,6-7,2.35,26,11,143.157529831
GEMS140,2018_Apr_26_1203,Kramer,MP,spatial_frequency,8,6,0,0-0;0-0;0-0;0-0,0,SpatialFrequencyBias,0-0,0,4,training,6-7,8-2;9-8;6-1;4-9;3-10;10-2,9-8,1.98,29,3,148.993386883
GEMS140,2018_Apr_26_1203,Kramer,MP,spatial_frequency,8,6,0,0-0;0-0;0-0;0-0,0,SpatialFrequencyBias,0-0,0,5,training,9-8,14-13;11-7;2-6;13-12;15-6;8-11,13-12,1.03,42,13,153.991385663
GEMS140,2018_Apr_26_1203,Kramer,MP,spatial_frequency,8,6,0,0-0;0-0;0-0;0-0,0,SpatialFrequencyBias,0-0,0,6,training,13-12,12-17;18-16;12-11;10-8;6-12;14-11,12-17,1.59,56,14,158.970011146
GEMS140,2018_Apr_26_1203,Kramer,MP,spatial_frequency,8,6,0,0-0;0-0;0-0;0-0,0,SpatialFrequencyBias,0-0,0,7,training,12-17,14-15;9-13;19-19;6-13;4-17;13-22,13-22,1.53,68,12,164.61301676600002
GEMS140,2018_Apr_26_1203,Kramer,MP,spatial_frequency,8,6,0,0-0;0-0;0-0;0-0,0,SpatialFrequencyBias,0-0,0,8,training,13-22,16-22;10-24;14-24;12-19;18-21;13-23,10-24,1.47,72,4,169.110504357
GEMS140,2018_Apr_26_1203,Kramer,MP,spatial_frequency,8,6,0,0-0;0-0;0-0;0-0,0,SpatialFrequencyBias,0-0,0,9,training,10-24,16-27;11-24;4-29;8-17;3-22;6-27,16-27,1.47,78,6,173.95185420200002
GEMS140,2018_Apr_26_1203,Kramer,MP,spatial_frequency,8,6,0,0-0;0-0;0-0;0-0,0,SpatialFrequencyBias,0-0,0,10,training,16-27,18-29;18-30;14-25;15-23;18-26;14-27,18-30,1.51,84,6,178.981392365
GEMS140,2018_Apr_26_1203,Kramer,MP,spatial_frequency,8,6,0,0-0;0-0;0-0;0-0,0,SpatialFrequencyBias,0-0,0,11,training,18-30,14-24;15-29;24-35;23-26;17-29;14-25,23-26,2.21,76,-8,184.07791506900003
GEMS140,2018_Apr_26_1203,Kramer,MP,spatial_frequency,8,6,0,0-0;0-0;0-0;0-0,0,SpatialFrequencyBias,0-0,0,12,training,23-26,26-30;20-27;21-27;19-22;21-33;19-30,21-33,2.03,88,12,189.926626728
GEMS140,2018_Apr_26_1203,Kramer,MP,spatial_frequency,8,6,0,0-0;0-0;0-0;0-0,0,SpatialFrequencyBias,0-0,0,13,training,21-33,16-29;17-36;24-33;22-36;14-33;19-28,16-29,3.16,82,-6,196.890585879
GEMS140,2018_Apr_26_1203,Kramer,MP,spatial_frequency,8,6,0,0-0;0-0;0-0;0-0,0,SpatialFrequencyBias,0-0,0,14,training,16-29,17-25;21-34;11-25;18-36;15-25;15-26,21-34,2.49,89,7,203.48532886700002
GEMS140,2018_Apr_26_1203,Kramer,MP,spatial_frequency,8,6,0,0-0;0-0;0-0;0-0,0,SpatialFrequencyBias,0-0,0,15,training,21-34,23-37;20-40;16-40;25-28;16-30;28-35,23-37,3.09,93,4,213.53876131799998
GEMS140,2018_Apr_26_1203,Kramer,MP,spatial_frequency,8,6,0,0-0;0-0;0-0;0-0,0,SpatialFrequencyBias,0-0,0,16,training,23-37,23-45;24-37;16-36;25-33;25-38;20-30,25-38,1.51,94,1,218.930032835
GEMS140,2018_Apr_26_1203,Kramer,MP,spatial_frequency,8,6,0,0-0;0-0;0-0;0-0,0,SpatialFrequencyBias,0-0,0,17,training,25-38,25-46;18-37;19-36;22-35;23-31;28-40,19-36,2.6,92,-2,224.420108998
GEMS140,2018_Apr_26_1203,Kramer,MP,spatial_frequency,8,6,0,0-0;0-0;0-0;0-0,0,SpatialFrequencyBias,0-0,0,18,training,19-36,21-29;20-33;17-41;19-38;13-37;19-28,20-33,3.0,88,-4,230.229042404
GEMS140,2018_Apr_26_1203,Kramer,MP,spatial_frequency,8,6,0,0-0;0-0;0-0;0-0,0,SpatialFrequencyBias,0-0,0,19,training,20-33,18-26;27-30;26-35;22-31;23-33;19-39,19-39,3.3,95,7,236.611843626
GEMS140,2018_Apr_26_1203,Kramer,MP,spatial_frequency,8,6,0,0-0;0-0;0-0;0-0,0,SpatialFrequencyBias,0-0,0,20,training,19-39,26-37;16-38;22-45;14-38;22-44;20-35,16-38,3.81,94,-1,243.261421711
GEMS140,2018_Apr_26_1203,Kramer,MP,spatial_frequency,8,6,0,0-0;0-0;0-0;0-0,0,SpatialFrequencyBias,0-0,0,21,training,16-38,12-39;11-40;13-37;16-39;20-38;9-41,20-38,3.94,94,0,251.316458788
GEMS140,2018_Apr_26_1203,Kramer,MP,spatial_frequency,8,6,0,0-0;0-0;0-0;0-0,0,SpatialFrequencyBias,0-0,0,22,training,20-38,23-44;17-34;20-41;15-32;20-31;13-38,23-44,1.78,98,4,257.52263696299997
GEMS140,2018_Apr_26_1203,Kramer,MP,spatial_frequency,8,6,0,0-0;0-0;0-0;0-0,0,SpatialFrequencyBias,0-0,0,23,training,23-44,28-38;29-49;24-42;21-38;28-44;24-40,24-42,2.85,97,-1,263.338932823
GEMS140,2018_Apr_26_1203,Kramer,MP,spatial_frequency,8,6,0,0-0;0-0;0-0;0-0,0,SpatialFrequencyBias,0-0,0,24,training,24-42,24-47;21-42;27-44;29-44;24-46;21-47,21-47,3.54,99,2,269.96877046599997
GEMS140,2018_Apr_26_1203,Kramer,MP,spatial_frequency,8,6,0,0-0;0-0;0-0;0-0,0,SpatialFrequencyBias,0-0,0,25,training,21-47,28-44;19-41;25-41;20-43;18-54;28-49,25-41,2.93,96,-3,276.137014123
GEMS140,2018_Apr_26_1203,Kramer,MP,spatial_frequency,8,6,0,0-0;0-0;0-0;0-0,0,SpatialFrequencyBias,0-0,0,26,training,25-41,32-40;30-35;19-46;31-46;31-40;24-46,19-46,6.0,99,3,285.127677016
GEMS140,2018_Apr_26_1203,Kramer,MP,spatial_frequency,8,6,0,0-0;0-0;0-0;0-0,0,SpatialFrequencyBias,0-0,0,27,training,19-46,16-50;16-51;27-46;23-52;23-40;20-45,20-45,3.34,99,0,291.510722149
GEMS140,2018_Apr_26_1203,Kramer,MP,spatial_frequency,8,6,0,0-0;0-0;0-0;0-0,0,SpatialFrequencyBias,0-0,0,28,training,20-45,16-47;15-39;24-42;18-38;26-43;21-52,26-43,7.58,98,-1,303.118968891
GEMS140,2018_Apr_26_1203,Kramer,MP,spatial_frequency,8,6,0,0-0;0-0;0-0;0-0,0,SpatialFrequencyBias,0-0,0,29,training,26-43,23-38;31-39;30-47;28-45;26-35;31-43,30-47,6.9,99,1,312.812198353
GEMS140,2018_Apr_26_1203,Kramer,MP,spatial_frequency,8,6,0,0-0;0-0;0-0;0-0,1,SimpleHill,0-0,0,0,selected,0-0,1-5;5-5;1-4;3-4;5-4;4-3,4-3,8.85,13,13,335.636627131
GEMS140,2018_Apr_26_1203,Kramer,MP,spatial_frequency,8,6,0,0-0;0-0;0-0;0-0,1,SimpleHill,0-0,0,1,selected,4-3,0-0;7-0;2-1;3-9;2-7;4-1,2-1,6.09,5,-8,345.269921776
GEMS140,2018_Apr_26_1203,Kramer,MP,spatial_frequency,8,6,0,0-0;0-0;0-0;0-0,1,SimpleHill,0-0,0,2,selected,2-1,1-3;6-0;1-1;7-0;2-7;4-1,2-7,1.9,16,11,350.73159098300005
GEMS140,2018_Apr_26_1203,Kramer,MP,spatial_frequency,8,6,0,0-0;0-0;0-0;0-0,1,SimpleHill,0-0,0,3,selected,2-7,6-10;7-6;7-4;2-10;3-4;5-9,7-6,7.73,24,8,362.02600626
GEMS140,2018_Apr_26_1203,Kramer,MP,spatial_frequency,8,6,0,0-0;0-0;0-0;0-0,1,SimpleHill,0-0,0,4,selected,7-6,5-12;6-12;8-7;1-8;2-5;10-13,8-7,5.2,27,3,370.789092454
GEMS140,2018_Apr_26_1203,Kramer,MP,spatial_frequency,8,6,0,0-0;0-0;0-0;0-0,1,SimpleHill,0-0,0,5,selected,8-7,4-9;12-9;8-5;12-6;9-3;4-4,12-9,4.23,37,10,378.576403911
GEMS140,2018_Apr_26_1203,Kramer,MP,spatial_frequency,8,6,0,0-0;0-0;0-0;0-0,1,SimpleHill,0-0,0,6,selected,12-9,15-7;12-10;17-11;19-11;13-4;12-6,12-6,4.52,32,-5,386.670752224
GEMS140,2018_Apr_26_1203,Kramer,MP,spatial_frequency,8,6,0,0-0;0-0;0-0;0-0,1,SimpleHill,0-0,0,7,selected,12-6,11-0;10-10;7-3;15-3;11-9;10-13,7-3,4.28,18,-14,394.502602995
GEMS140,2018_Apr_26_1203,Kramer,MP,spatial_frequency,8,6,0,0-0;0-0;0-0;0-0,1,SimpleHill,0-0,0,8,selected,7-3,2-5;6-3;7-11;11-5;0-2;0-1,11-5,1.0,29,11,399.06153336
GEMS140,2018_Apr_26_1203,Kramer,MP,spatial_frequency,8,6,0,0-0;0-0;0-0;0-0,1,SimpleHill,0-0,0,9,selected,11-5,5-3;6-7;14-0;18-7;14-5;11-9,6-7,0.89,24,-5,403.505550729
GEMS140,2018_Apr_26_1203,Kramer,MP,spatial_frequency,8,6,0,0-0;0-0;0-0;0-0,1,SimpleHill,0-0,0,10,selected,6-7,10-3;1-12;13-10;9-13;5-2;9-9,9-9,2.91,32,8,409.99406580000004
GEMS140,2018_Apr_26_1203,Kramer,MP,spatial_frequency,8,6,0,0-0;0-0;0-0;0-0,1,SimpleHill,0-0,0,11,selected,9-9,11-5;2-10;11-7;4-7;11-16;5-13,11-5,3.32,29,-3,416.861032991
GEMS140,2018_Apr_26_1203,Kramer,MP,spatial_frequency,8,6,0,0-0;0-0;0-0;0-0,1,SimpleHill,0-0,0,12,selected,11-5,14-6;12-6;16-2;9-10;12-1;7-2,12-6,4.94,32,3,425.369849307
GEMS140,2018_Apr_26_1203,Kramer,MP,spatial_frequency,8,6,0,0-0;0-0;0-0;0-0,1,SimpleHill,0-0,0,13,selected,12-6,15-2;6-9;12-14;14-4;18-11;9-1,12-14,2.21,45,13,431.158705212
GEMS140,2018_Apr_26_1203,Kramer,MP,spatial_frequency,8,6,0,0-0;0-0;0-0;0-0,1,SimpleHill,0-0,0,14,selected,12-14,6-9;18-19;12-12;10-15;13-10;8-13,8-13,3.58,37,-8,438.314934506
GEMS140,2018_Apr_26_1203,Kramer,MP,spatial_frequency,8,6,0,0-0;0-0;0-0;0-0,1,SimpleHill,0-0,0,15,selected,8-13,1-11;10-10;10-18;5-16;13-10;4-18,4-18,4.21,37,0,446.09326319900003
GEMS140,2018_Apr_26_1203,Kramer,MP,spatial_frequency,8,6,0,0-0;0-0;0-0;0-0,1,SimpleHill,0-0,0,16,selected,4-18,0-12;3-12;2-19;5-14;8-16;5-17,2-19,3.93,34,-3,453.60344151
GEMS140,2018_Apr_26_1203,Kramer,MP,spatial_frequency,8,6,0,0-0;0-0;0-0;0-0,1,SimpleHill,0-0,0,17,selected,2-19,3-19;2-12;7-16;8-14;2-18;7-25,3-19,1.4,36,2,458.564118749
GEMS140,2018_Apr_26_1203,Kramer,MP,spatial_frequency,8,6,0,0-0;0-0;0-0;0-0,1,SimpleHill,0-0,0,18,selected,3-19,7-24;7-16;1-26;5-14;5-23;9-21,5-23,0.91,44,8,463.04688591300004
GEMS140,2018_Apr_26_1203,Kramer,MP,spatial_frequency,8,6,0,0-0;0-0;0-0;0-0,1,SimpleHill,0-0,0,19,selected,5-23,3-16;7-28;0-29;8-22;10-17;7-25,7-25,0.89,50,6,467.505073791
GEMS140,2018_Apr_26_1203,Kramer,MP,spatial_frequency,8,6,0,0-0;0-0;0-0;0-0,1,SimpleHill,0-0,0,20,selected,7-25,1-22;8-18;13-20;5-31;11-24;8-24,8-18,1.24,44,-6,472.32691237800003
GEMS140,2018_Apr_26_1203,Kramer,MP,spatial_frequency,8,6,0,0-0;0-0;0-0;0-0,1,SimpleHill,0-0,0,21,selected,8-18,7-19;1-18;5-19;13-14;15-19;4-24,4-24,1.5,44,0,477.385259534
GEMS140,2018_Apr_26_1203,Kramer,MP,spatial_frequency,8,6,0,0-0;0-0;0-0;0-0,1,SimpleHill,0-0,0,22,selected,4-24,8-20;10-24;1-17;5-23;6-24;1-21,5-23,1.39,44,0,482.334802026
GEMS140,2018_Apr_26_1203,Kramer,MP,spatial_frequency,8,6,0,0-0;0-0;0-0;0-0,1,SimpleHill,0-0,0,23,selected,5-23,11-21;9-17;9-25;4-30;2-21;10-20,2-21,1.34,37,-7,487.255156855
GEMS140,2018_Apr_26_1203,Kramer,MP,spatial_frequency,8,6,0,0-0;0-0;0-0;0-0,1,SimpleHill,0-0,0,24,selected,2-21,4-25;9-22;4-18;2-21;7-26;9-19,4-25,0.71,45,8,491.545275846
GEMS140,2018_Apr_26_1203,Kramer,MP,spatial_frequency,8,6,0,0-0;0-0;0-0;0-0,1,SimpleHill,0-0,0,25,selected,4-25,10-22;6-27;7-19;3-31;5-29;7-18,10-22,1.69,52,7,496.811827685
GEMS140,2018_Apr_26_1203,Kramer,MP,spatial_frequency,8,6,0,0-0;0-0;0-0;0-0,1,SimpleHill,0-0,0,26,selected,10-22,11-24;5-28;14-17;12-15;14-18;9-28,5-28,1.14,49,-3,501.49299156800004
GEMS140,2018_Apr_26_1203,Kramer,MP,spatial_frequency,8,6,0,0-0;0-0;0-0;0-0,1,SimpleHill,0-0,0,27,selected,5-28,3-34;5-25;7-34;11-25;1-25;6-34,7-34,1.66,57,8,506.715469829
GEMS140,2018_Apr_26_1203,Kramer,MP,spatial_frequency,8,6,0,0-0;0-0;0-0;0-0,1,SimpleHill,0-0,0,28,selected,7-34,14-36;11-38;5-31;10-36;5-32;6-35,6-35,0.88,56,-1,511.158977291
GEMS140,2018_Apr_26_1203,Kramer,MP,spatial_frequency,8,6,0,0-0;0-0;0-0;0-0,1,SimpleHill,0-0,0,29,selected,6-35,4-31;5-34;13-38;5-32;8-35;2-40,13-38,0.58,69,13,515.306593528
GEMS140,2018_Apr_26_1203,Kramer,MP,spatial_frequency,8,6,0,0-0;0-0;0-0;0-0,1,SimpleHill,0-0,0,30,selected,13-38,10-31;12-41;18-43;7-35;14-44;15-34,14-44,0.69,73,4,519.553778151
GEMS140,2018_Apr_26_1203,Kramer,MP,spatial_frequency,8,6,0,0-0;0-0;0-0;0-0,1,SimpleHill,0-0,0,31,selected,14-44,16-37;10-49;18-49;21-42;13-45;20-42,18-49,0.44,79,6,523.5614955890001
GEMS140,2018_Apr_26_1203,Kramer,MP,spatial_frequency,8,6,0,0-0;0-0;0-0;0-0,1,SimpleHill,0-0,0,32,selected,18-49,22-48;19-56;18-41;18-50;11-48;13-45,11-48,0.42,69,-10,527.5486752319999
GEMS140,2018_Apr_26_1203,Kramer,MP,spatial_frequency,8,6,0,0-0;0-0;0-0;0-0,1,SimpleHill,0-0,0,33,selected,11-48,11-45;5-52;10-51;5-46;15-54;10-54,11-45,0.25,69,0,531.3470718230001
GEMS140,2018_Apr_26_1203,Kramer,MP,spatial_frequency,8,6,0,0-0;0-0;0-0;0-0,1,SimpleHill,0-0,0,34,selected,11-45,11-42;14-41;16-47;5-42;14-38;13-47,16-47,0.58,76,7,535.4943413990001
GEMS140,2018_Apr_26_1203,Kramer,MP,spatial_frequency,8,6,0,0-0;0-0;0-0;0-0,1,SimpleHill,0-0,0,35,selected,16-47,11-52;13-54;17-43;12-52;23-47;16-54,12-52,0.5,71,-5,539.551674181
GEMS140,2018_Apr_26_1203,Kramer,MP,spatial_frequency,8,6,0,0-0;0-0;0-0;0-0,1,SimpleHill,0-0,0,36,selected,12-52,19-55;15-57;14-47;9-53;12-58;5-51,14-47,0.28,73,2,543.397761719
GEMS140,2018_Apr_26_1203,Kramer,MP,spatial_frequency,8,6,0,0-0;0-0;0-0;0-0,1,SimpleHill,0-0,0,37,selected,14-47,19-51;7-48;15-47;13-40;9-44;14-49,15-47,0.33,75,2,547.311207665
GEMS140,2018_Apr_26_1203,Kramer,MP,spatial_frequency,8,6,0,0-0;0-0;0-0;0-0,1,SimpleHill,0-0,0,38,selected,15-47,10-44;10-43;15-42;13-45;10-41;16-47,10-43,0.42,67,-8,551.295348667
GEMS140,2018_Apr_26_1203,Kramer,MP,spatial_frequency,8,6,0,0-0;0-0;0-0;0-0,1,SimpleHill,0-0,0,39,selected,10-43,4-42;16-48;16-39;7-44;17-40;15-49,16-39,0.52,74,7,555.39000555
GEMS140,2018_Apr_26_1203,Kramer,MP,spatial_frequency,8,6,0,0-0;0-0;0-0;0-0,2,SimpleHill,0-0,0,0,selected,0-0,4-5;1-3;3-4;5-1;0-7;4-1,1-3,1.29,7,7,566.941851942
GEMS140,2018_Apr_26_1203,Kramer,MP,spatial_frequency,8,6,0,0-0;0-0;0-0;0-0,2,SimpleHill,0-0,0,1,selected,1-3,6-9;7-2;8-1;1-9;0-2;3-3,8-1,0.81,16,9,571.313467521
GEMS140,2018_Apr_26_1203,Kramer,MP,spatial_frequency,8,6,0,0-0;0-0;0-0;0-0,2,SimpleHill,0-0,0,2,selected,8-1,4-2;11-8;7-6;2-5;9-3;1-2,4-2,0.38,11,-5,575.259477468
GEMS140,2018_Apr_26_1203,Kramer,MP,spatial_frequency,8,6,0,0-0;0-0;0-0;0-0,2,SimpleHill,0-0,0,3,selected,4-2,5-7;2-4;7-5;5-2;4-4;2-5,5-2,0.23,13,2,579.070451465
GEMS140,2018_Apr_26_1203,Kramer,MP,spatial_frequency,8,6,0,0-0;0-0;0-0;0-0,2,SimpleHill,0-0,0,4,selected,5-2,1-0;5-9;6-7;10-0;3-2;4-2,4-2,0.61,11,-2,583.238418242
GEMS140,2018_Apr_26_1203,Kramer,MP,spatial_frequency,8,6,0,0-0;0-0;0-0;0-0,2,SimpleHill,0-0,0,5,selected,4-2,5-2;8-7;7-0;8-5;2-3;10-6,2-3,0.28,9,-2,587.0911707519999
GEMS140,2018_Apr_26_1203,Kramer,MP,spatial_frequency,8,6,0,0-0;0-0;0-0;0-0,2,SimpleHill,0-0,0,6,selected,2-3,4-1;8-1;5-7;3-2;9-5;7-6,5-7,0.27,22,13,590.915037448
GEMS140,2018_Apr_26_1203,Kramer,MP,spatial_frequency,8,6,0,0-0;0-0;0-0;0-0,2,SimpleHill,0-0,0,7,selected,5-7,0-3;3-14;5-7;8-9;10-3;7-12,3-14,0.51,29,7,594.98192468
GEMS140,2018_Apr_26_1203,Kramer,MP,spatial_frequency,8,6,0,0-0;0-0;0-0;0-0,2,SimpleHill,0-0,0,8,selected,3-14,3-12;2-19;7-13;3-20;8-8;3-16,3-20,0.41,37,8,598.930845231
GEMS140,2018_Apr_26_1203,Kramer,MP,spatial_frequency,8,6,0,0-0;0-0;0-0;0-0,2,SimpleHill,0-0,0,9,selected,3-20,3-25;3-23;4-27;4-25;0-13;6-14,4-27,0.43,47,10,602.907742213
GEMS140,2018_Apr_26_1203,Kramer,MP,spatial_frequency,8,6,0,0-0;0-0;0-0;0-0,2,SimpleHill,0-0,0,10,selected,4-27,9-28;4-28;3-28;3-25;8-33;5-34,4-28,0.48,48,1,606.948292849
GEMS140,2018_Apr_26_1203,Kramer,MP,spatial_frequency,8,6,0,0-0;0-0;0-0;0-0,2,SimpleHill,0-0,0,11,selected,4-28,9-34;6-25;6-27;2-28;10-33;5-24,2-28,0.22,44,-4,610.738522272
GEMS140,2018_Apr_26_1203,Kramer,MP,spatial_frequency,8,6,0,0-0;0-0;0-0;0-0,2,SimpleHill,0-0,0,12,selected,2-28,5-23;2-27;2-36;8-30;5-22;5-33,2-36,0.26,50,6,614.5759925919999
GEMS140,2018_Apr_26_1203,Kramer,MP,spatial_frequency,8,6,0,0-0;0-0;0-0;0-0,2,SimpleHill,0-0,0,13,selected,2-36,5-41;6-37;5-36;5-39;2-35;4-31,6-37,0.36,57,7,618.5188541059999
GEMS140,2018_Apr_26_1203,Kramer,MP,spatial_frequency,8,6,0,0-0;0-0;0-0;0-0,2,SimpleHill,0-0,0,14,selected,6-37,3-35;6-29;5-39;8-34;10-31;9-35,5-39,0.25,57,0,622.349168431
GEMS140,2018_Apr_26_1203,Kramer,MP,spatial_frequency,8,6,0,0-0;0-0;0-0;0-0,2,SimpleHill,0-0,0,15,selected,5-39,9-43;6-35;1-45;7-33;2-41;2-43,6-35,0.23,56,-1,626.13879832
GEMS140,2018_Apr_26_1203,Kramer,MP,spatial_frequency,8,6,0,0-0;0-0;0-0;0-0,2,SimpleHill,0-0,0,16,selected,6-35,8-33;6-39;8-29;7-40;4-35;1-30,8-29,0.24,55,-1,629.974638727
GEMS140,2018_Apr_26_1203,Kramer,MP,spatial_frequency,8,6,0,0-0;0-0;0-0;0-0,2,SimpleHill,0-0,0,17,selected,8-29,4-27;7-35;5-31;4-29;2-28;14-30,14-30,0.22,66,11,633.7631303669999
GEMS140,2018_Apr_26_1203,Kramer,MP,spatial_frequency,8,6,0,0-0;0-0;0-0;0-0,2,SimpleHill,0-0,0,18,selected,14-30,7-32;17-29;17-24;9-24;19-26;9-27,19-26,0.71,69,3,638.048848722
GEMS140,2018_Apr_26_1203,Kramer,MP,spatial_frequency,8,6,0,0-0;0-0;0-0;0-0,2,SimpleHill,0-0,0,19,selected,19-26,16-22;26-28;18-25;14-26;26-23;18-29,16-22,0.38,61,-8,642.010938851
GEMS140,2018_Apr_26_1203,Kramer,MP,spatial_frequency,8,6,0,0-0;0-0;0-0;0-0,2,SimpleHill,0-0,0,20,selected,16-22,12-26;16-20;11-27;23-21;20-16;22-25,22-25,0.29,71,10,645.886994758
GEMS140,2018_Apr_26_1203,Kramer,MP,spatial_frequency,8,6,0,0-0;0-0;0-0;0-0,2,SimpleHill,0-0,0,21,selected,22-25,19-27;16-23;26-22;22-17;22-24;25-30,22-24,0.3,70,-1,649.740503967
GEMS140,2018_Apr_26_1203,Kramer,MP,spatial_frequency,8,6,0,0-0;0-0;0-0;0-0,2,SimpleHill,0-0,0,22,selected,22-24,26-21;18-18;24-23;23-18;23-26;16-24,16-24,0.23,63,-7,653.523166396
GEMS140,2018_Apr_26_1203,Kramer,MP,spatial_frequency,8,6,0,0-0;0-0;0-0;0-0,2,SimpleHill,0-0,0,23,selected,16-24,19-18;16-17;19-20;17-20;14-22;16-32,19-20,0.23,62,-1,657.326721603
GEMS140,2018_Apr_26_1203,Kramer,MP,spatial_frequency,8,6,0,0-0;0-0;0-0;0-0,2,SimpleHill,0-0,0,24,selected,19-20,16-21;19-15;20-24;17-15;24-26;20-27,20-27,0.19,71,9,661.111874675
GEMS140,2018_Apr_26_1203,Kramer,MP,spatial_frequency,8,6,0,0-0;0-0;0-0;0-0,2,SimpleHill,0-0,0,25,selected,20-27,28-27;15-30;19-33;24-33;23-34;21-22,19-33,0.37,75,4,665.0341705469999
GEMS140,2018_Apr_26_1203,Kramer,MP,spatial_frequency,8,6,0,0-0;0-0;0-0;0-0,2,SimpleHill,0-0,0,26,selected,19-33,14-30;18-33;19-37;25-32;21-29;25-37,25-37,0.35,84,9,668.968015367
GEMS140,2018_Apr_26_1203,Kramer,MP,spatial_frequency,8,6,0,0-0;0-0;0-0;0-0,2,SimpleHill,0-0,0,27,selected,25-37,21-43;28-35;28-39;31-37;28-30;19-40,28-39,0.61,87,3,673.143871791
GEMS140,2018_Apr_26_1203,Kramer,MP,spatial_frequency,8,6,0,0-0;0-0;0-0;0-0,2,SimpleHill,0-0,0,28,selected,28-39,24-38;24-35;28-43;26-35;31-32;31-46,31-46,0.61,92,5,677.33374572
GEMS140,2018_Apr_26_1203,Kramer,MP,spatial_frequency,8,6,0,0-0;0-0;0-0;0-0,2,SimpleHill,0-0,0,29,selected,31-46,29-42;30-53;37-46;36-51;36-47;36-41,37-46,0.64,96,4,681.539420069
GEMS140,2018_Apr_26_1203,Kramer,MP,spatial_frequency,8,6,0,0-0;0-0;0-0;0-0,2,SimpleHill,0-0,0,30,selected,37-46,35-40;31-48;38-53;34-44;43-49;31-50,31-50,0.31,92,-4,685.429994104
GEMS140,2018_Apr_26_1203,Kramer,MP,spatial_frequency,8,6,0,0-0;0-0;0-0;0-0,2,SimpleHill,0-0,0,31,selected,31-50,30-43;32-55;28-57;33-52;32-43;33-56,28-57,0.24,89,-3,689.2337333639999
GEMS140,2018_Apr_26_1203,Kramer,MP,spatial_frequency,8,6,0,0-0;0-0;0-0;0-0,2,SimpleHill,0-0,0,32,selected,28-57,31-60;31-56;24-53;23-51;27-58;27-59,24-53,0.2,86,-3,692.982901923
GEMS140,2018_Apr_26_1203,Kramer,MP,spatial_frequency,8,6,0,0-0;0-0;0-0;0-0,2,SimpleHill,0-0,0,33,selected,24-53,27-53;30-57;22-57;25-47;25-56;30-49,25-56,0.22,86,0,696.786403674
GEMS140,2018_Apr_26_1203,Kramer,MP,spatial_frequency,8,6,0,0-0;0-0;0-0;0-0,2,SimpleHill,0-0,0,34,selected,25-56,33-56;26-49;30-62;25-57;23-62;32-55,26-49,0.22,88,2,700.573767947
GEMS140,2018_Apr_26_1203,Kramer,MP,spatial_frequency,8,6,0,0-0;0-0;0-0;0-0,2,SimpleHill,0-0,0,35,selected,26-49,34-49;24-56;23-44;26-52;29-50;33-46,29-50,0.49,91,3,704.63631248
GEMS140,2018_Apr_26_1203,Kramer,MP,spatial_frequency,8,6,0,0-0;0-0;0-0;0-0,2,SimpleHill,0-0,0,36,selected,29-50,34-49;23-55;25-45;28-54;34-50;33-51,23-55,0.62,84,-7,708.817219648
GEMS140,2018_Apr_26_1203,Kramer,MP,spatial_frequency,8,6,0,0-0;0-0;0-0;0-0,2,SimpleHill,0-0,0,37,selected,23-55,28-55;30-56;22-58;17-57;26-57;23-53,26-57,0.2,87,3,712.59302473
GEMS140,2018_Apr_26_1203,Kramer,MP,spatial_frequency,8,6,0,0-0;0-0;0-0;0-0,2,SimpleHill,0-0,0,38,selected,26-57,30-52;21-60;31-52;22-59;26-56;32-60,32-60,0.27,91,4,716.4461767160001
GEMS140,2018_Apr_26_1203,Kramer,MP,spatial_frequency,8,6,0,0-0;0-0;0-0;0-0,2,SimpleHill,0-0,0,39,selected,32-60,33-62;37-62;34-62;27-56;28-63;38-59,37-62,0.55,93,2,720.561851212
GEMS140,2018_Apr_26_1203,Kramer,MP,spatial_frequency,8,6,0,0-0;0-0;0-0;0-0,3,SimpleHill,0-0,0,0,selected,0-0,6-2;5-5;5-6;2-3;4-4;2-4,4-4,1.49,15,15,731.93001587
GEMS140,2018_Apr_26_1203,Kramer,MP,spatial_frequency,8,6,0,0-0;0-0;0-0;0-0,3,SimpleHill,0-0,0,1,selected,4-4,7-1;2-10;1-10;7-8;7-9;6-3,7-1,0.27,15,0,735.756460593
GEMS140,2018_Apr_26_1203,Kramer,MP,spatial_frequency,8,6,0,0-0;0-0;0-0;0-0,3,SimpleHill,0-0,0,2,selected,7-1,9-0;7-3;2-7;8-6;7-4;2-3,2-7,0.27,16,1,739.6023589560001
GEMS140,2018_Apr_26_1203,Kramer,MP,spatial_frequency,8,6,0,0-0;0-0;0-0;0-0,3,SimpleHill,0-0,0,3,selected,2-7,4-2;0-14;2-13;6-4;8-8;5-6,8-8,0.29,29,13,743.4401957819999
GEMS140,2018_Apr_26_1203,Kramer,MP,spatial_frequency,8,6,0,0-0;0-0;0-0;0-0,3,SimpleHill,0-0,0,4,selected,8-8,9-3;8-2;10-13;8-8;12-8;12-4,9-3,0.55,22,-7,747.5394159069999
GEMS140,2018_Apr_26_1203,Kramer,MP,spatial_frequency,8,6,0,0-0;0-0;0-0;0-0,3,SimpleHill,0-0,0,5,selected,9-3,8-7;2-3;11-6;8-10;4-3;8-8,11-6,0.24,30,8,751.339452974
GEMS140,2018_Apr_26_1203,Kramer,MP,spatial_frequency,8,6,0,0-0;0-0;0-0;0-0,3,SimpleHill,0-0,0,6,selected,11-6,16-7;14-5;15-2;18-9;11-2;16-4,11-2,0.57,23,-7,755.495382981
GEMS140,2018_Apr_26_1203,Kramer,MP,spatial_frequency,8,6,0,0-0;0-0;0-0;0-0,3,SimpleHill,0-0,0,7,selected,11-2,16-1;3-2;13-3;14-0;17-2;14-9,17-2,2.37,32,9,761.418518457
GEMS140,2018_Apr_26_1203,Kramer,MP,spatial_frequency,8,6,0,0-0;0-0;0-0;0-0,3,SimpleHill,0-0,0,8,selected,17-2,23-4;12-4;24-4;13-1;16-8;12-2,23-4,1.14,43,11,766.121914385
GEMS140,2018_Apr_26_1203,Kramer,MP,spatial_frequency,8,6,0,0-0;0-0;0-0;0-0,3,SimpleHill,0-0,0,9,selected,23-4,23-10;21-5;29-5;26-0;19-5;22-8,23-10,2.17,53,10,771.857482201
GEMS140,2018_Apr_26_1203,Kramer,MP,spatial_frequency,8,6,0,0-0;0-0;0-0;0-0,3,SimpleHill,0-0,0,10,selected,23-10,23-18;24-8;23-14;21-3;29-6;29-8,23-14,1.34,59,6,776.770118313
GEMS140,2018_Apr_26_1203,Kramer,MP,spatial_frequency,8,6,0,0-0;0-0;0-0;0-0,3,SimpleHill,0-0,0,11,selected,23-14,23-6;28-16;28-18;25-16;19-14;19-16,19-14,0.64,54,-5,780.989290015
GEMS140,2018_Apr_26_1203,Kramer,MP,spatial_frequency,8,6,0,0-0;0-0;0-0;0-0,3,SimpleHill,0-0,0,12,selected,19-14,17-16;21-16;19-7;16-8;17-13;13-11,19-7,2.04,43,-11,786.57398721
GEMS140,2018_Apr_26_1203,Kramer,MP,spatial_frequency,8,6,0,0-0;0-0;0-0;0-0,3,SimpleHill,0-0,0,13,selected,19-7,23-7;16-6;25-3;20-4;24-8;26-5,24-8,3.29,51,8,793.4456783310001
GEMS140,2018_Apr_26_1203,Kramer,MP,spatial_frequency,8,6,0,0-0;0-0;0-0;0-0,3,SimpleHill,0-0,0,14,selected,24-8,19-12;27-4;29-6;21-10;19-10;23-2,21-10,2.0,51,0,799.00348389
GEMS140,2018_Apr_26_1203,Kramer,MP,spatial_frequency,8,6,0,0-0;0-0;0-0;0-0,3,SimpleHill,0-0,0,15,selected,21-10,14-8;24-14;18-5;16-7;18-17;26-4,18-17,1.48,57,6,804.068806828
GEMS140,2018_Apr_26_1203,Kramer,MP,spatial_frequency,8,6,0,0-0;0-0;0-0;0-0,3,SimpleHill,0-0,0,16,selected,18-17,19-17;19-10;12-14;20-23;12-17;13-13,19-17,0.99,59,2,808.639569104
GEMS140,2018_Apr_26_1203,Kramer,MP,spatial_frequency,8,6,0,0-0;0-0;0-0;0-0,3,SimpleHill,0-0,0,17,selected,19-17,13-13;14-23;11-17;19-23;12-14;19-16,11-17,0.95,47,-12,813.1423263830001
GEMS140,2018_Apr_26_1203,Kramer,MP,spatial_frequency,8,6,0,0-0;0-0;0-0;0-0,3,SimpleHill,0-0,0,18,selected,11-17,10-11;16-19;9-12;6-15;13-10;16-16,6-15,1.46,36,-11,818.164197364
GEMS140,2018_Apr_26_1203,Kramer,MP,spatial_frequency,8,6,0,0-0;0-0;0-0;0-0,3,SimpleHill,0-0,0,19,selected,6-15,10-21;2-20;3-14;2-13;6-12;5-9,6-12,0.76,32,-4,822.483805545
GEMS140,2018_Apr_26_1203,Kramer,MP,spatial_frequency,8,6,0,0-0;0-0;0-0;0-0,3,SimpleHill,0-0,0,20,selected,6-12,0-7;12-9;7-6;4-10;9-19;3-13,9-19,1.48,47,15,827.520543556
GEMS140,2018_Apr_26_1203,Kramer,MP,spatial_frequency,8,6,0,0-0;0-0;0-0;0-0,3,SimpleHill,0-0,0,21,selected,9-19,9-24;9-14;12-12;7-22;5-25;3-18,9-24,0.5,52,5,831.5547416310001
GEMS140,2018_Apr_26_1203,Kramer,MP,spatial_frequency,8,6,0,0-0;0-0;0-0;0-0,3,SimpleHill,0-0,0,22,selected,9-24,11-22;10-19;3-23;8-25;10-17;16-24,10-17,0.44,46,-6,835.536074139
GEMS140,2018_Apr_26_1203,Kramer,MP,spatial_frequency,8,6,0,0-0;0-0;0-0;0-0,3,SimpleHill,0-0,0,23,selected,10-17,2-17;18-17;8-16;11-11;5-23;8-19,8-16,0.45,41,-5,839.532084502
GEMS140,2018_Apr_26_1203,Kramer,MP,spatial_frequency,8,6,0,0-0;0-0;0-0;0-0,3,SimpleHill,0-0,0,24,selected,8-16,10-23;12-13;11-14;9-10;13-18;7-11,10-23,0.19,53,12,843.299558208
GEMS140,2018_Apr_26_1203,Kramer,MP,spatial_frequency,8,6,0,0-0;0-0;0-0;0-0,3,SimpleHill,0-0,0,25,selected,10-23,9-20;10-17;15-28;6-22;3-22;16-28,9-20,0.44,48,-5,847.3287260239999
GEMS140,2018_Apr_26_1203,Kramer,MP,spatial_frequency,8,6,0,0-0;0-0;0-0;0-0,3,SimpleHill,0-0,0,26,selected,9-20,13-15;11-14;8-27;9-20;14-21;12-24,9-20,0.63,48,0,851.5212960939999
GEMS140,2018_Apr_26_1203,Kramer,MP,spatial_frequency,8,6,0,0-0;0-0;0-0;0-0,3,SimpleHill,0-0,0,27,selected,9-20,14-16;3-19;9-21;8-16;13-16;8-24,8-24,0.59,51,3,855.672560109
GEMS140,2018_Apr_26_1203,Kramer,MP,spatial_frequency,8,6,0,0-0;0-0;0-0;0-0,3,SimpleHill,0-0,0,28,selected,8-24,9-31;8-30;13-27;9-24;5-17;11-24,13-27,1.14,62,11,860.381013824
GEMS140,2018_Apr_26_1203,Kramer,MP,spatial_frequency,8,6,0,0-0;0-0;0-0;0-0,3,SimpleHill,0-0,0,29,selected,13-27,16-28;13-35;11-27;9-25;11-23;17-22,16-28,1.94,67,5,865.865967541
GEMS140,2018_Apr_26_1203,Kramer,MP,spatial_frequency,8,6,0,0-0;0-0;0-0;0-0,3,SimpleHill,0-0,0,30,selected,16-28,17-23;20-26;16-33;15-32;20-23;18-33,16-33,1.17,71,4,870.603482162
GEMS140,2018_Apr_26_1203,Kramer,MP,spatial_frequency,8,6,0,0-0;0-0;0-0;0-0,3,SimpleHill,0-0,0,31,selected,16-33,16-37;14-40;21-30;16-36;15-26;9-32,16-37,1.26,73,2,875.418600081
GEMS140,2018_Apr_26_1203,Kramer,MP,spatial_frequency,8,6,0,0-0;0-0;0-0;0-0,3,SimpleHill,0-0,0,32,selected,16-37,14-35;23-35;16-37;21-36;21-38;14-41,21-36,1.23,79,6,880.215280014
GEMS140,2018_Apr_26_1203,Kramer,MP,spatial_frequency,8,6,0,0-0;0-0;0-0;0-0,3,SimpleHill,0-0,0,33,selected,21-36,22-30;22-36;23-42;18-31;25-35;19-33,19-33,2.31,75,-4,886.0788129289999
GEMS140,2018_Apr_26_1203,Kramer,MP,spatial_frequency,8,6,0,0-0;0-0;0-0;0-0,3,SimpleHill,0-0,0,34,selected,19-33,12-36;20-36;12-30;19-25;19-39;19-37,12-36,0.45,67,-8,890.1003817430001
GEMS140,2018_Apr_26_1203,Kramer,MP,spatial_frequency,8,6,0,0-0;0-0;0-0;0-0,3,SimpleHill,0-0,0,35,selected,12-36,15-38;16-35;17-42;5-34;9-41;8-39,15-38,0.3,72,5,893.978600516
GEMS140,2018_Apr_26_1203,Kramer,MP,spatial_frequency,8,6,0,0-0;0-0;0-0;0-0,3,SimpleHill,0-0,0,36,selected,15-38,8-37;22-35;16-36;13-31;14-42;18-43,18-43,0.45,78,6,897.9890982789999
GEMS140,2018_Apr_26_1203,Kramer,MP,spatial_frequency,8,6,0,0-0;0-0;0-0;0-0,3,SimpleHill,0-0,0,37,selected,18-43,13-39;21-47;15-49;19-42;18-49;21-45,13-39,0.61,70,-8,902.1697705
GEMS140,2018_Apr_26_1203,Kramer,MP,spatial_frequency,8,6,0,0-0;0-0;0-0;0-0,3,SimpleHill,0-0,0,38,selected,13-39,18-41;9-39;16-43;17-37;17-38;15-44,16-43,0.56,75,5,906.2841790289999
GEMS140,2018_Apr_26_1203,Kramer,MP,spatial_frequency,8,6,0,0-0;0-0;0-0;0-0,3,SimpleHill,0-0,0,39,selected,16-43,17-40;14-40;21-38;21-45;19-46;10-46,14-40,0.76,72,-3,910.6084912939999
GEMS140,2018_Apr_26_1203,Kramer,MP,spatial_frequency,8,6,0,0-0;0-0;0-0;0-0,4,SimpleHill,0-0,0,0,selected,0-0,0-8;0-2;1-5;3-5;1-1;0-5,3-5,2.07,15,15,921.71833626
GEMS140,2018_Apr_26_1203,Kramer,MP,spatial_frequency,8,6,0,0-0;0-0;0-0;0-0,4,SimpleHill,0-0,0,1,selected,3-5,6-10;10-7;1-9;2-4;8-11;4-4,6-10,1.13,29,14,926.4183203189999
GEMS140,2018_Apr_26_1203,Kramer,MP,spatial_frequency,8,6,0,0-0;0-0;0-0;0-0,4,SimpleHill,0-0,0,2,selected,6-10,3-5;10-4;7-17;4-17;4-8;12-15,4-8,3.3,22,-7,933.28004151
GEMS140,2018_Apr_26_1203,Kramer,MP,spatial_frequency,8,6,0,0-0;0-0;0-0;0-0,4,SimpleHill,0-0,0,3,selected,4-8,2-5;3-7;10-8;3-8;5-6;8-4,3-7,0.88,18,-4,937.727771636
GEMS140,2018_Apr_26_1203,Kramer,MP,spatial_frequency,8,6,0,0-0;0-0;0-0;0-0,4,SimpleHill,0-0,0,4,selected,3-7,10-9;8-1;10-4;6-4;10-7;1-5,10-9,1.41,34,16,942.698976727
GEMS140,2018_Apr_26_1203,Kramer,MP,spatial_frequency,8,6,0,0-0;0-0;0-0;0-0,4,SimpleHill,0-0,0,5,selected,10-9,10-9;4-12;10-4;5-15;15-13;3-8,15-13,2.81,48,14,949.092458486
GEMS140,2018_Apr_26_1203,Kramer,MP,spatial_frequency,8,6,0,0-0;0-0;0-0;0-0,4,SimpleHill,0-0,0,6,selected,15-13,16-19;15-6;14-15;21-10;22-16;18-16,14-15,3.77,49,1,956.4262323730001
GEMS140,2018_Apr_26_1203,Kramer,MP,spatial_frequency,8,6,0,0-0;0-0;0-0;0-0,4,SimpleHill,0-0,0,7,selected,14-15,12-13;8-19;17-22;13-19;19-16;11-13,13-19,2.01,53,4,962.0051250060001
GEMS140,2018_Apr_26_1203,Kramer,MP,spatial_frequency,8,6,0,0-0;0-0;0-0;0-0,4,SimpleHill,0-0,0,8,selected,13-19,16-13;19-19;7-22;16-23;8-22;9-16,16-13,2.72,49,-4,968.3082772160001
GEMS140,2018_Apr_26_1203,Kramer,MP,spatial_frequency,8,6,0,0-0;0-0;0-0;0-0,4,SimpleHill,0-0,0,9,selected,16-13,19-18;18-6;10-9;20-17;22-13;12-8,10-9,1.35,34,-15,973.224414822
GEMS140,2018_Apr_26_1203,Kramer,MP,spatial_frequency,8,6,0,0-0;0-0;0-0;0-0,4,SimpleHill,0-0,0,10,selected,10-9,9-11;7-16;17-12;15-9;7-7;6-4,7-7,0.33,26,-8,977.137137999
GEMS140,2018_Apr_26_1203,Kramer,MP,spatial_frequency,8,6,0,0-0;0-0;0-0;0-0,4,SimpleHill,0-0,0,11,selected,7-7,13-4;11-5;2-7;6-3;9-11;4-3,13-4,0.28,30,4,980.982002782
GEMS140,2018_Apr_26_1203,Kramer,MP,spatial_frequency,8,6,0,0-0;0-0;0-0;0-0,4,SimpleHill,0-0,0,12,selected,13-4,18-4;6-5;6-2;21-4;16-9;8-9,21-4,0.23,40,10,984.7885815860001
GEMS140,2018_Apr_26_1203,Kramer,MP,spatial_frequency,8,6,0,0-0;0-0;0-0;0-0,4,SimpleHill,0-0,0,13,selected,21-4,24-9;24-3;14-5;20-10;27-1;25-6,25-6,0.54,48,8,988.8860501639999
GEMS140,2018_Apr_26_1203,Kramer,MP,spatial_frequency,8,6,0,0-0;0-0;0-0;0-0,4,SimpleHill,0-0,0,14,selected,25-6,29-4;32-9;22-10;26-0;21-10;28-2,22-10,2.05,52,4,994.504430725
GEMS140,2018_Apr_26_1203,Kramer,MP,spatial_frequency,8,6,0,0-0;0-0;0-0;0-0,4,SimpleHill,0-0,0,15,selected,22-10,18-4;29-7;21-8;19-3;29-10;21-6,29-7,1.6,54,2,999.673180128
GEMS140,2018_Apr_26_1203,Kramer,MP,spatial_frequency,8,6,0,0-0;0-0;0-0;0-0,4,SimpleHill,0-0,0,16,selected,29-7,31-4;31-9;30-9;36-5;22-8;28-6,36-5,2.14,55,1,1005.39888909
GEMS140,2018_Apr_26_1203,Kramer,MP,spatial_frequency,8,6,0,0-0;0-0;0-0;0-0,4,SimpleHill,0-0,0,17,selected,36-5,42-10;39-8;31-9;43-4;39-4;37-2,42-10,3.78,66,11,1012.74103308
GEMS140,2018_Apr_26_1203,Kramer,MP,spatial_frequency,8,6,0,0-0;0-0;0-0;0-0,4,SimpleHill,0-0,0,18,selected,42-10,47-7;38-12;43-5;40-16;43-16;41-8,41-8,1.71,63,-3,1018.00905927
GEMS140,2018_Apr_26_1203,Kramer,MP,spatial_frequency,8,6,0,0-0;0-0;0-0;0-0,4,SimpleHill,0-0,0,19,selected,41-8,41-7;41-0;43-5;40-7;46-14;45-2,43-5,2.48,58,-5,1024.05841053
GEMS140,2018_Apr_26_1203,Kramer,MP,spatial_frequency,8,6,0,0-0;0-0;0-0;0-0,4,SimpleHill,0-0,0,20,selected,43-5,38-5;39-8;48-0;42-2;48-10;38-7,38-5,0.85,56,-2,1028.46421875
GEMS140,2018_Apr_26_1203,Kramer,MP,spatial_frequency,8,6,0,0-0;0-0;0-0;0-0,4,SimpleHill,0-0,0,21,selected,38-5,35-7;33-1;35-4;45-7;43-4;44-0,35-7,3.66,58,2,1035.67537436
GEMS140,2018_Apr_26_1203,Kramer,MP,spatial_frequency,8,6,0,0-0;0-0;0-0;0-0,4,SimpleHill,0-0,0,22,selected,35-7,38-9;42-4;31-3;38-13;36-5;37-3,31-3,2.42,48,-10,1041.66890113
GEMS140,2018_Apr_26_1203,Kramer,MP,spatial_frequency,8,6,0,0-0;0-0;0-0;0-0,4,SimpleHill,0-0,0,23,selected,31-3,34-6;25-8;32-3;38-1;24-6;25-5,25-5,0.27,47,-1,1045.50551264
GEMS140,2018_Apr_26_1203,Kramer,MP,spatial_frequency,8,6,0,0-0;0-0;0-0;0-0,4,SimpleHill,0-0,0,24,selected,25-5,27-4;26-7;19-4;26-1;30-10;28-12,26-1,0.24,40,-7,1049.30496778
GEMS140,2018_Apr_26_1203,Kramer,MP,spatial_frequency,8,6,0,0-0;0-0;0-0;0-0,4,SimpleHill,0-0,0,25,selected,26-1,25-6;23-6;22-0;22-3;21-2;28-1,23-6,1.19,46,6,1054.06238897
GEMS140,2018_Apr_26_1203,Kramer,MP,spatial_frequency,8,6,0,0-0;0-0;0-0;0-0,4,SimpleHill,0-0,0,26,selected,23-6,22-8;16-5;17-1;24-3;28-4;26-10,28-4,0.59,48,2,1058.22741281
GEMS140,2018_Apr_26_1203,Kramer,MP,spatial_frequency,8,6,0,0-0;0-0;0-0;0-0,4,SimpleHill,0-0,0,27,selected,28-4,28-10;27-6;30-4;23-4;32-1;24-2,28-10,0.73,58,10,1062.53020396
GEMS140,2018_Apr_26_1203,Kramer,MP,spatial_frequency,8,6,0,0-0;0-0;0-0;0-0,4,SimpleHill,0-0,0,28,selected,28-10,23-4;30-5;27-15;24-11;28-6;33-15,24-11,0.66,56,-2,1066.76924542
GEMS140,2018_Apr_26_1203,Kramer,MP,spatial_frequency,8,6,0,0-0;0-0;0-0;0-0,4,SimpleHill,0-0,0,29,selected,24-11,26-15;31-12;29-12;27-8;23-5;18-13,18-13,0.24,52,-4,1070.5888408
GEMS140,2018_Apr_26_1203,Kramer,MP,spatial_frequency,8,6,0,0-0;0-0;0-0;0-0,4,SimpleHill,0-0,0,30,selected,18-13,17-6;21-11;18-17;24-18;17-9;20-11,18-17,0.22,57,5,1074.38834491
GEMS140,2018_Apr_26_1203,Kramer,MP,spatial_frequency,8,6,0,0-0;0-0;0-0;0-0,4,SimpleHill,0-0,0,31,selected,18-17,11-19;20-11;23-22;24-15;14-21;11-20,14-21,4.05,57,0,1082.01229188
GEMS140,2018_Apr_26_1203,Kramer,MP,spatial_frequency,8,6,0,0-0;0-0;0-0;0-0,4,SimpleHill,0-0,0,32,selected,14-21,20-26;11-28;9-15;10-23;14-28;20-23,20-26,1.08,70,13,1086.62719144
GEMS140,2018_Apr_26_1203,Kramer,MP,spatial_frequency,8,6,0,0-0;0-0;0-0;0-0,4,SimpleHill,0-0,0,33,selected,20-26,26-24;23-26;20-24;18-20;17-25;20-28,23-26,4.52,73,3,1094.69285079
GEMS140,2018_Apr_26_1203,Kramer,MP,spatial_frequency,8,6,0,0-0;0-0;0-0;0-0,4,SimpleHill,0-0,0,34,selected,23-26,22-32;27-20;20-28;30-25;21-29;29-22,22-32,3.65,77,4,1101.92495328
GEMS140,2018_Apr_26_1203,Kramer,MP,spatial_frequency,8,6,0,0-0;0-0;0-0;0-0,4,SimpleHill,0-0,0,35,selected,22-32,25-30;24-28;24-38;19-39;15-31;19-28,15-31,1.87,68,-9,1107.35395382
GEMS140,2018_Apr_26_1203,Kramer,MP,spatial_frequency,8,6,0,0-0;0-0;0-0;0-0,4,SimpleHill,0-0,0,36,selected,15-31,12-28;16-26;12-33;16-30;18-33;13-24,12-33,0.93,65,-3,1111.85820945
GEMS140,2018_Apr_26_1203,Kramer,MP,spatial_frequency,8,6,0,0-0;0-0;0-0;0-0,4,SimpleHill,0-0,0,37,selected,12-33,6-28;12-27;12-35;17-29;17-30;8-38,6-28,0.56,51,-14,1115.99324284
GEMS140,2018_Apr_26_1203,Kramer,MP,spatial_frequency,8,6,0,0-0;0-0;0-0;0-0,4,SimpleHill,0-0,0,38,selected,6-28,7-31;13-26;3-21;2-33;8-28;1-30,1-30,0.36,43,-8,1119.91704219
GEMS140,2018_Apr_26_1203,Kramer,MP,spatial_frequency,8,6,0,0-0;0-0;0-0;0-0,4,SimpleHill,0-0,0,39,selected,1-30,1-27;0-36;2-37;5-28;3-36;3-30,0-36,0.66,46,3,1124.15136644
