subj_id,date,computer,experimenter,instructions,sight_radius,n_gabors,start_pos_list_ix,start_pos_list,landscape_ix,landscape_name,starting_pos,starting_score,trial,feedback,pos,stims,selected,rt,score,delta,exp_time
GEMS225,2018_Apr_18_1415,Kramer,SF,orientation,8,6,13,35-5;37-4;28-22;25-23,0,OrientationBias,0-0,0,0,training,0-0,7-3;3-6;5-4;5-2;6-4;2-4,2-4,5.26,7,7,148.677159832
GEMS225,2018_Apr_18_1415,Kramer,SF,orientation,8,6,13,35-5;37-4;28-22;25-23,0,OrientationBias,0-0,0,1,training,2-4,7-0;7-3;3-4;7-7;7-1;0-0,7-7,3.04,26,19,161.720233079
GEMS225,2018_Apr_18_1415,Kramer,SF,orientation,8,6,13,35-5;37-4;28-22;25-23,0,OrientationBias,0-0,0,2,training,7-7,10-2;1-8;2-13;6-10;0-6;1-12,1-8,5.58,3,-23,187.207834776
GEMS225,2018_Apr_18_1415,Kramer,SF,orientation,8,6,13,35-5;37-4;28-22;25-23,0,OrientationBias,0-0,0,3,training,1-8,3-13;7-7;3-1;3-5;5-6;7-11,3-1,7.46,11,8,201.479328907
GEMS225,2018_Apr_18_1415,Kramer,SF,orientation,8,6,13,35-5;37-4;28-22;25-23,0,OrientationBias,0-0,0,4,training,3-1,6-5;1-7;6-4;2-1;3-2;3-6,6-4,8.31,22,11,214.501301976
GEMS225,2018_Apr_18_1415,Kramer,SF,orientation,8,6,13,35-5;37-4;28-22;25-23,0,OrientationBias,0-0,0,5,training,6-4,10-6;6-5;9-2;10-5;8-8;0-5,8-8,6.22,29,7,224.161174253
GEMS225,2018_Apr_18_1415,Kramer,SF,orientation,8,6,13,35-5;37-4;28-22;25-23,0,OrientationBias,0-0,0,6,training,8-8,5-6;3-14;2-10;8-15;10-3;6-15,5-6,5.41,19,-10,234.608437254
GEMS225,2018_Apr_18_1415,Kramer,SF,orientation,8,6,13,35-5;37-4;28-22;25-23,0,OrientationBias,0-0,0,7,training,5-6,2-5;10-5;10-4;6-2;3-9;5-6,2-5,8.96,7,-12,248.346332076
GEMS225,2018_Apr_18_1415,Kramer,SF,orientation,8,6,13,35-5;37-4;28-22;25-23,0,OrientationBias,0-0,0,8,training,2-5,5-6;3-11;2-10;1-2;2-11;7-4,5-6,5.55,19,12,257.574072444
GEMS225,2018_Apr_18_1415,Kramer,SF,orientation,8,6,13,35-5;37-4;28-22;25-23,0,OrientationBias,0-0,0,9,training,5-6,11-3;8-4;11-9;6-7;1-7;1-2,11-3,3.36,39,20,264.506974335
GEMS225,2018_Apr_18_1415,Kramer,SF,orientation,8,6,13,35-5;37-4;28-22;25-23,0,OrientationBias,0-0,0,10,training,11-3,10-0;7-2;14-4;13-6;17-7;11-11,7-2,7.42,26,-13,274.864091288
GEMS225,2018_Apr_18_1415,Kramer,SF,orientation,8,6,13,35-5;37-4;28-22;25-23,0,OrientationBias,0-0,0,11,training,7-2,3-7;13-2;7-6;2-1;3-1;8-6,13-2,5.14,45,19,283.684499873
GEMS225,2018_Apr_18_1415,Kramer,SF,orientation,8,6,13,35-5;37-4;28-22;25-23,0,OrientationBias,0-0,0,12,training,13-2,20-0;13-4;12-3;19-1;11-1;19-7,20-0,6.29,64,19,292.507676938
GEMS225,2018_Apr_18_1415,Kramer,SF,orientation,8,6,13,35-5;37-4;28-22;25-23,0,OrientationBias,0-0,0,13,training,20-0,17-7;23-1;21-2;18-1;14-2;17-0,23-1,3.74,70,6,299.045496987
GEMS225,2018_Apr_18_1415,Kramer,SF,orientation,8,6,13,35-5;37-4;28-22;25-23,0,OrientationBias,0-0,0,14,training,23-1,26-7;23-1;18-1;21-4;24-1;27-0,24-1,6.46,72,2,308.779431625
GEMS225,2018_Apr_18_1415,Kramer,SF,orientation,8,6,13,35-5;37-4;28-22;25-23,0,OrientationBias,0-0,0,15,training,24-1,24-8;28-4;25-1;19-6;26-0;21-4,25-1,15.39,75,3,327.237132842
GEMS225,2018_Apr_18_1415,Kramer,SF,orientation,8,6,13,35-5;37-4;28-22;25-23,0,OrientationBias,0-0,0,16,training,25-1,28-8;26-1;26-2;21-0;22-6;26-8,26-1,6.85,76,1,337.177121581
GEMS225,2018_Apr_18_1415,Kramer,SF,orientation,8,6,13,35-5;37-4;28-22;25-23,0,OrientationBias,0-0,0,17,training,26-1,26-7;24-5;23-6;26-9;20-6;21-0,26-9,9.89,76,0,350.468661825
GEMS225,2018_Apr_18_1415,Kramer,SF,orientation,8,6,13,35-5;37-4;28-22;25-23,0,OrientationBias,0-0,0,18,training,26-9,20-11;28-15;31-9;30-13;18-9;32-4,32-4,7.59,87,11,361.074586032
GEMS225,2018_Apr_18_1415,Kramer,SF,orientation,8,6,13,35-5;37-4;28-22;25-23,0,OrientationBias,0-0,0,19,training,32-4,26-8;31-6;37-10;27-6;27-1;31-8,26-8,5.09,76,-11,369.105172791
GEMS225,2018_Apr_18_1415,Kramer,SF,orientation,8,6,13,35-5;37-4;28-22;25-23,0,OrientationBias,0-0,0,20,training,26-8,28-6;32-6;30-2;25-14;21-11;29-1,32-6,6.2,87,11,379.565704586
GEMS225,2018_Apr_18_1415,Kramer,SF,orientation,8,6,13,35-5;37-4;28-22;25-23,0,OrientationBias,0-0,0,21,training,32-6,32-12;29-1;27-11;32-13;25-7;38-7,25-7,9.29,75,-12,391.642714359
GEMS225,2018_Apr_18_1415,Kramer,SF,orientation,8,6,13,35-5;37-4;28-22;25-23,0,OrientationBias,0-0,0,22,training,25-7,20-10;19-4;30-1;28-0;25-15;18-9,20-10,6.81,64,-11,406.507850749
GEMS225,2018_Apr_18_1415,Kramer,SF,orientation,8,6,13,35-5;37-4;28-22;25-23,0,OrientationBias,0-0,0,23,training,20-10,18-3;15-8;22-5;21-11;28-10;25-15,22-5,4.17,68,4,415.927125182
GEMS225,2018_Apr_18_1415,Kramer,SF,orientation,8,6,13,35-5;37-4;28-22;25-23,0,OrientationBias,0-0,0,24,training,22-5,22-8;17-2;28-8;20-5;28-3;15-6,28-3,5.43,80,12,424.807197408
GEMS225,2018_Apr_18_1415,Kramer,SF,orientation,8,6,13,35-5;37-4;28-22;25-23,0,OrientationBias,0-0,0,25,training,28-3,29-10;25-3;33-5;29-4;25-9;30-8,33-5,2.0,88,8,429.767605807
GEMS225,2018_Apr_18_1415,Kramer,SF,orientation,8,6,13,35-5;37-4;28-22;25-23,0,OrientationBias,0-0,0,26,training,33-5,40-2;30-9;27-3;31-7;39-6;32-10,39-6,1.99,95,7,434.510682287
GEMS225,2018_Apr_18_1415,Kramer,SF,orientation,8,6,13,35-5;37-4;28-22;25-23,0,OrientationBias,0-0,0,27,training,39-6,36-0;36-4;44-8;36-3;36-11;40-12,36-11,3.92,92,-3,441.996104474
GEMS225,2018_Apr_18_1415,Kramer,SF,orientation,8,6,13,35-5;37-4;28-22;25-23,0,OrientationBias,0-0,0,28,training,36-11,36-7;30-8;30-10;29-14;37-12;37-9,37-12,6.48,93,1,451.683750857
GEMS225,2018_Apr_18_1415,Kramer,SF,orientation,8,6,13,35-5;37-4;28-22;25-23,0,OrientationBias,0-0,0,29,training,37-12,43-14;35-5;44-15;36-7;33-16;38-16,44-15,6.64,98,5,461.16085352
GEMS225,2018_Apr_18_1415,Kramer,SF,orientation,8,6,13,35-5;37-4;28-22;25-23,1,SimpleHill,35-5,55,0,selected,35-5,38-1;37-6;31-3;35-13;29-4;29-10,35-13,1.83,68,13,504.345775435
GEMS225,2018_Apr_18_1415,Kramer,SF,orientation,8,6,13,35-5;37-4;28-22;25-23,1,SimpleHill,35-5,55,1,selected,35-13,33-20;40-18;33-16;39-15;32-14;32-9,39-15,1.49,73,5,509.397138117
GEMS225,2018_Apr_18_1415,Kramer,SF,orientation,8,6,13,35-5;37-4;28-22;25-23,1,SimpleHill,35-5,55,2,selected,39-15,37-13;44-9;42-13;38-15;34-9;45-20,37-13,0.84,69,-4,513.817716928
GEMS225,2018_Apr_18_1415,Kramer,SF,orientation,8,6,13,35-5;37-4;28-22;25-23,1,SimpleHill,35-5,55,3,selected,37-13,34-10;33-7;39-16;38-19;39-6;31-18,33-7,2.8,57,-12,520.174538755
GEMS225,2018_Apr_18_1415,Kramer,SF,orientation,8,6,13,35-5;37-4;28-22;25-23,1,SimpleHill,35-5,55,4,selected,33-7,27-8;30-8;25-7;31-9;32-11;36-9,32-11,2.14,63,6,525.874701074
GEMS225,2018_Apr_18_1415,Kramer,SF,orientation,8,6,13,35-5;37-4;28-22;25-23,1,SimpleHill,35-5,55,5,selected,32-11,34-10;32-17;29-8;31-7;34-14;37-5,37-5,1.56,56,-7,531.000428284
GEMS225,2018_Apr_18_1415,Kramer,SF,orientation,8,6,13,35-5;37-4;28-22;25-23,1,SimpleHill,35-5,55,6,selected,37-5,40-9;43-8;38-10;42-4;40-8;34-5,40-8,7.32,62,6,541.906103748
GEMS225,2018_Apr_18_1415,Kramer,SF,orientation,8,6,13,35-5;37-4;28-22;25-23,1,SimpleHill,35-5,55,7,selected,40-8,38-3;39-7;42-1;38-15;40-16;42-13,39-7,2.54,60,-2,548.025118618
GEMS225,2018_Apr_18_1415,Kramer,SF,orientation,8,6,13,35-5;37-4;28-22;25-23,1,SimpleHill,35-5,55,8,selected,39-7,44-12;43-12;41-3;45-4;36-0;35-3,35-3,3.6,51,-9,555.191159878
GEMS225,2018_Apr_18_1415,Kramer,SF,orientation,8,6,13,35-5;37-4;28-22;25-23,1,SimpleHill,35-5,55,9,selected,35-3,31-8;40-0;41-5;32-3;34-5;30-0,32-3,3.57,49,-2,562.332162222
GEMS225,2018_Apr_18_1415,Kramer,SF,orientation,8,6,13,35-5;37-4;28-22;25-23,1,SimpleHill,35-5,55,10,selected,32-3,34-0;29-4;35-5;33-1;32-5;25-0,25-0,4.42,37,-12,570.327152134
GEMS225,2018_Apr_18_1415,Kramer,SF,orientation,8,6,13,35-5;37-4;28-22;25-23,1,SimpleHill,35-5,55,11,selected,25-0,19-2;26-7;32-1;17-0;22-6;21-1,22-6,3.95,45,8,577.834744568
GEMS225,2018_Apr_18_1415,Kramer,SF,orientation,8,6,13,35-5;37-4;28-22;25-23,1,SimpleHill,35-5,55,12,selected,22-6,16-8;18-2;24-2;26-6;28-10;18-4,26-6,2.77,49,4,584.175887945
GEMS225,2018_Apr_18_1415,Kramer,SF,orientation,8,6,13,35-5;37-4;28-22;25-23,1,SimpleHill,35-5,55,13,selected,26-6,22-11;29-8;29-10;23-6;28-11;27-1,29-8,3.38,55,6,591.124080014
GEMS225,2018_Apr_18_1415,Kramer,SF,orientation,8,6,13,35-5;37-4;28-22;25-23,1,SimpleHill,35-5,55,14,selected,29-8,33-10;28-4;30-1;26-6;32-14;33-3,33-10,3.98,62,7,598.671663844
GEMS225,2018_Apr_18_1415,Kramer,SF,orientation,8,6,13,35-5;37-4;28-22;25-23,1,SimpleHill,35-5,55,15,selected,33-10,35-9;33-4;28-7;32-12;36-8;35-16,36-8,3.53,60,-2,605.762605963
GEMS225,2018_Apr_18_1415,Kramer,SF,orientation,8,6,13,35-5;37-4;28-22;25-23,1,SimpleHill,35-5,55,16,selected,36-8,32-5;35-4;36-6;35-8;39-13;30-3,30-3,4.39,47,-13,613.731098618
GEMS225,2018_Apr_18_1415,Kramer,SF,orientation,8,6,13,35-5;37-4;28-22;25-23,1,SimpleHill,35-5,55,17,selected,30-3,26-3;24-7;25-2;32-9;37-6;31-7,26-3,2.2,44,-3,619.498107773
GEMS225,2018_Apr_18_1415,Kramer,SF,orientation,8,6,13,35-5;37-4;28-22;25-23,1,SimpleHill,35-5,55,18,selected,26-3,23-5;21-1;22-0;20-8;20-7;32-2,32-2,4.86,47,3,627.92666777
GEMS225,2018_Apr_18_1415,Kramer,SF,orientation,8,6,13,35-5;37-4;28-22;25-23,1,SimpleHill,35-5,55,19,selected,32-2,26-5;35-6;37-5;28-0;29-9;38-2,38-2,8.88,51,4,640.357858607
GEMS225,2018_Apr_18_1415,Kramer,SF,orientation,8,6,13,35-5;37-4;28-22;25-23,1,SimpleHill,35-5,55,20,selected,38-2,41-0;42-0;37-8;43-0;38-0;43-7,41-0,14.54,48,-3,658.462301267
GEMS225,2018_Apr_18_1415,Kramer,SF,orientation,8,6,13,35-5;37-4;28-22;25-23,1,SimpleHill,35-5,55,21,selected,41-0,37-5;44-7;35-1;39-7;42-3;45-5,42-3,1.91,54,6,663.93030306
GEMS225,2018_Apr_18_1415,Kramer,SF,orientation,8,6,13,35-5;37-4;28-22;25-23,1,SimpleHill,35-5,55,22,selected,42-3,41-7;45-6;45-0;38-9;48-5;39-8,48-5,2.3,59,5,669.805970493
GEMS225,2018_Apr_18_1415,Kramer,SF,orientation,8,6,13,35-5;37-4;28-22;25-23,1,SimpleHill,35-5,55,23,selected,48-5,47-10;47-3;50-4;48-3;41-2;52-1,48-3,2.64,55,-4,676.01848022
GEMS225,2018_Apr_18_1415,Kramer,SF,orientation,8,6,13,35-5;37-4;28-22;25-23,1,SimpleHill,35-5,55,24,selected,48-3,50-3;52-2;42-1;42-6;52-9;50-8,52-9,5.38,66,11,684.977779819
GEMS225,2018_Apr_18_1415,Kramer,SF,orientation,8,6,13,35-5;37-4;28-22;25-23,1,SimpleHill,35-5,55,25,selected,52-9,55-10;50-12;51-13;47-3;47-5;52-2,47-5,1.5,59,-7,690.059082993
GEMS225,2018_Apr_18_1415,Kramer,SF,orientation,8,6,13,35-5;37-4;28-22;25-23,1,SimpleHill,35-5,55,26,selected,47-5,52-5;46-12;40-8;43-7;49-1;53-10,52-5,3.02,59,0,696.637524059
GEMS225,2018_Apr_18_1415,Kramer,SF,orientation,8,6,13,35-5;37-4;28-22;25-23,1,SimpleHill,35-5,55,27,selected,52-5,52-4;47-6;53-9;58-1;57-10;53-3,58-1,2.99,50,-9,703.204082332
GEMS225,2018_Apr_18_1415,Kramer,SF,orientation,8,6,13,35-5;37-4;28-22;25-23,1,SimpleHill,35-5,55,28,selected,58-1,51-0;61-7;53-5;63-0;59-6;59-3,51-0,2.48,49,-1,709.267326527
GEMS225,2018_Apr_18_1415,Kramer,SF,orientation,8,6,13,35-5;37-4;28-22;25-23,1,SimpleHill,35-5,55,29,selected,51-0,50-4;53-0;55-2;46-1;49-0;48-6,48-6,3.35,61,12,716.181845826
GEMS225,2018_Apr_18_1415,Kramer,SF,orientation,8,6,13,35-5;37-4;28-22;25-23,1,SimpleHill,35-5,55,30,selected,48-6,44-4;48-1;45-11;54-6;45-13;54-9,54-9,7.13,66,5,726.872087518
GEMS225,2018_Apr_18_1415,Kramer,SF,orientation,8,6,13,35-5;37-4;28-22;25-23,1,SimpleHill,35-5,55,31,selected,54-9,53-11;48-10;52-9;57-15;61-7;55-15,53-11,3.39,69,3,733.829955984
GEMS225,2018_Apr_18_1415,Kramer,SF,orientation,8,6,13,35-5;37-4;28-22;25-23,1,SimpleHill,35-5,55,32,selected,53-11,51-15;58-6;48-10;53-16;49-12;48-14,53-16,4.35,76,7,741.74858175
GEMS225,2018_Apr_18_1415,Kramer,SF,orientation,8,6,13,35-5;37-4;28-22;25-23,1,SimpleHill,35-5,55,33,selected,53-16,56-20;53-18;50-13;53-19;55-16;58-14,58-14,2.19,72,-4,747.518801113
GEMS225,2018_Apr_18_1415,Kramer,SF,orientation,8,6,13,35-5;37-4;28-22;25-23,1,SimpleHill,35-5,55,34,selected,58-14,59-21;55-21;56-20;55-17;57-19;58-8,57-19,1.52,79,7,752.62327066
GEMS225,2018_Apr_18_1415,Kramer,SF,orientation,8,6,13,35-5;37-4;28-22;25-23,1,SimpleHill,35-5,55,35,selected,57-19,62-20;57-17;55-14;50-20;51-19;53-22,62-20,2.27,79,0,758.448627235
GEMS225,2018_Apr_18_1415,Kramer,SF,orientation,8,6,13,35-5;37-4;28-22;25-23,1,SimpleHill,35-5,55,36,selected,62-20,64-15;56-17;59-22;66-16;62-15;65-26,62-15,1.24,72,-7,763.266325597
GEMS225,2018_Apr_18_1415,Kramer,SF,orientation,8,6,13,35-5;37-4;28-22;25-23,1,SimpleHill,35-5,55,37,selected,62-15,60-13;63-14;59-19;65-10;57-11;64-22,57-11,2.0,68,-4,768.848920184
GEMS225,2018_Apr_18_1415,Kramer,SF,orientation,8,6,13,35-5;37-4;28-22;25-23,1,SimpleHill,35-5,55,38,selected,57-11,65-11;64-13;53-9;60-13;54-18;59-6,53-9,1.54,66,-2,773.961910594
GEMS225,2018_Apr_18_1415,Kramer,SF,orientation,8,6,13,35-5;37-4;28-22;25-23,1,SimpleHill,35-5,55,39,selected,53-9,51-16;55-8;59-5;50-9;52-9;52-8,51-16,1.96,76,10,779.481889007
GEMS225,2018_Apr_18_1415,Kramer,SF,orientation,8,6,13,35-5;37-4;28-22;25-23,2,SimpleHill,37-4,54,0,selected,37-4,37-2;36-1;35-2;43-1;36-11;31-8,43-1,5.31,51,-3,812.510916915
GEMS225,2018_Apr_18_1415,Kramer,SF,orientation,8,6,13,35-5;37-4;28-22;25-23,2,SimpleHill,37-4,54,1,selected,43-1,41-7;42-3;41-1;45-5;38-3;48-0,42-3,0.89,54,3,816.96213914
GEMS225,2018_Apr_18_1415,Kramer,SF,orientation,8,6,13,35-5;37-4;28-22;25-23,2,SimpleHill,37-4,54,2,selected,42-3,43-7;37-1;48-5;43-1;36-0;46-9,46-9,1.59,66,12,822.12354738
GEMS225,2018_Apr_18_1415,Kramer,SF,orientation,8,6,13,35-5;37-4;28-22;25-23,2,SimpleHill,37-4,54,3,selected,46-9,44-7;39-7;44-11;43-8;42-6;46-10,42-6,1.1,60,-6,826.798157035
GEMS225,2018_Apr_18_1415,Kramer,SF,orientation,8,6,13,35-5;37-4;28-22;25-23,2,SimpleHill,37-4,54,4,selected,42-6,44-4;45-10;47-7;43-2;39-12;37-10,45-10,0.66,67,7,831.012054363
GEMS225,2018_Apr_18_1415,Kramer,SF,orientation,8,6,13,35-5;37-4;28-22;25-23,2,SimpleHill,37-4,54,5,selected,45-10,38-11;47-8;43-16;51-12;41-11;39-5,43-16,1.01,75,8,835.578744194
GEMS225,2018_Apr_18_1415,Kramer,SF,orientation,8,6,13,35-5;37-4;28-22;25-23,2,SimpleHill,37-4,54,6,selected,43-16,49-14;40-9;41-11;48-10;47-18;46-9,47-18,1.69,79,4,840.82298597
GEMS225,2018_Apr_18_1415,Kramer,SF,orientation,8,6,13,35-5;37-4;28-22;25-23,2,SimpleHill,37-4,54,7,selected,47-18,48-16;47-23;50-21;49-18;43-18;52-17,50-21,1.5,83,4,845.899212156
GEMS225,2018_Apr_18_1415,Kramer,SF,orientation,8,6,13,35-5;37-4;28-22;25-23,2,SimpleHill,37-4,54,8,selected,50-21,56-20;52-27;56-19;50-27;53-14;45-25,45-25,0.86,87,4,850.330334493
GEMS225,2018_Apr_18_1415,Kramer,SF,orientation,8,6,13,35-5;37-4;28-22;25-23,2,SimpleHill,37-4,54,9,selected,45-25,42-29;43-25;46-20;46-28;46-25;50-23,42-29,1.5,89,2,855.395947693
GEMS225,2018_Apr_18_1415,Kramer,SF,orientation,8,6,13,35-5;37-4;28-22;25-23,2,SimpleHill,37-4,54,10,selected,42-29,43-32;45-32;41-27;45-23;39-34;39-33,39-33,1.54,91,2,860.507570027
GEMS225,2018_Apr_18_1415,Kramer,SF,orientation,8,6,13,35-5;37-4;28-22;25-23,2,SimpleHill,37-4,54,11,selected,39-33,42-37;42-36;32-35;40-37;45-32;33-28,32-35,1.07,89,-2,865.15064353
GEMS225,2018_Apr_18_1415,Kramer,SF,orientation,8,6,13,35-5;37-4;28-22;25-23,2,SimpleHill,37-4,54,12,selected,32-35,37-31;34-29;35-33;26-37;27-29;26-33,35-33,2.74,89,0,871.45314214
GEMS225,2018_Apr_18_1415,Kramer,SF,orientation,8,6,13,35-5;37-4;28-22;25-23,2,SimpleHill,37-4,54,13,selected,35-33,40-33;29-32;31-36;42-34;35-39;33-37,40-33,2.2,92,3,877.205387029
GEMS225,2018_Apr_18_1415,Kramer,SF,orientation,8,6,13,35-5;37-4;28-22;25-23,2,SimpleHill,37-4,54,14,selected,40-33,40-41;43-40;38-30;41-30;40-28;43-29,40-28,2.83,88,-4,883.58354142
GEMS225,2018_Apr_18_1415,Kramer,SF,orientation,8,6,13,35-5;37-4;28-22;25-23,2,SimpleHill,37-4,54,15,selected,40-28,47-25;45-33;37-22;34-29;44-26;39-27,37-22,1.87,80,-8,889.03052306
GEMS225,2018_Apr_18_1415,Kramer,SF,orientation,8,6,13,35-5;37-4;28-22;25-23,2,SimpleHill,37-4,54,16,selected,37-22,40-28;33-24;39-21;30-24;42-26;38-26,40-28,0.89,88,8,893.491861808
GEMS225,2018_Apr_18_1415,Kramer,SF,orientation,8,6,13,35-5;37-4;28-22;25-23,2,SimpleHill,37-4,54,17,selected,40-28,47-27;34-31;33-29;45-33;39-24;41-27,41-27,2.64,87,-1,899.705623737
GEMS225,2018_Apr_18_1415,Kramer,SF,orientation,8,6,13,35-5;37-4;28-22;25-23,2,SimpleHill,37-4,54,18,selected,41-27,44-27;38-27;42-22;39-28;45-28;39-24,44-27,0.77,88,1,904.036054578
GEMS225,2018_Apr_18_1415,Kramer,SF,orientation,8,6,13,35-5;37-4;28-22;25-23,2,SimpleHill,37-4,54,19,selected,44-27,45-30;40-27;42-21;49-22;49-28;39-29,40-27,1.97,87,-1,909.567104991
GEMS225,2018_Apr_18_1415,Kramer,SF,orientation,8,6,13,35-5;37-4;28-22;25-23,2,SimpleHill,37-4,54,20,selected,40-27,43-29;38-29;37-20;42-30;34-23;39-29,42-30,2.06,90,3,915.183917145
GEMS225,2018_Apr_18_1415,Kramer,SF,orientation,8,6,13,35-5;37-4;28-22;25-23,2,SimpleHill,37-4,54,21,selected,42-30,39-35;43-37;46-36;45-34;36-29;39-29,36-29,3.84,87,-3,922.602426557
GEMS225,2018_Apr_18_1415,Kramer,SF,orientation,8,6,13,35-5;37-4;28-22;25-23,2,SimpleHill,37-4,54,22,selected,36-29,34-25;34-36;41-24;41-33;38-28;36-29,34-36,1.75,90,3,927.90943239
GEMS225,2018_Apr_18_1415,Kramer,SF,orientation,8,6,13,35-5;37-4;28-22;25-23,2,SimpleHill,37-4,54,23,selected,34-36,29-32;38-41;35-33;31-29;30-33;36-35,29-32,0.99,84,-6,932.484815292
GEMS225,2018_Apr_18_1415,Kramer,SF,orientation,8,6,13,35-5;37-4;28-22;25-23,2,SimpleHill,37-4,54,24,selected,29-32,29-30;24-38;26-39;36-29;31-33;33-38,24-38,2.03,83,-1,938.077609626
GEMS225,2018_Apr_18_1415,Kramer,SF,orientation,8,6,13,35-5;37-4;28-22;25-23,2,SimpleHill,37-4,54,25,selected,24-38,17-39;23-41;24-44;27-35;21-44;21-37,27-35,1.62,84,1,943.263144518
GEMS225,2018_Apr_18_1415,Kramer,SF,orientation,8,6,13,35-5;37-4;28-22;25-23,2,SimpleHill,37-4,54,26,selected,27-35,32-29;27-28;25-28;30-41;22-36;31-37,32-29,1.45,84,0,948.275188959
GEMS225,2018_Apr_18_1415,Kramer,SF,orientation,8,6,13,35-5;37-4;28-22;25-23,2,SimpleHill,37-4,54,27,selected,32-29,34-30;36-28;36-31;28-25;36-33;38-32,36-28,2.26,86,2,954.109854784
GEMS225,2018_Apr_18_1415,Kramer,SF,orientation,8,6,13,35-5;37-4;28-22;25-23,2,SimpleHill,37-4,54,28,selected,36-28,34-33;38-28;43-25;39-22;41-26;32-23,41-26,2.42,86,0,960.083653292
GEMS225,2018_Apr_18_1415,Kramer,SF,orientation,8,6,13,35-5;37-4;28-22;25-23,2,SimpleHill,37-4,54,29,selected,41-26,34-23;45-26;37-32;37-21;44-21;36-24,44-21,2.87,82,-4,966.549138199
GEMS225,2018_Apr_18_1415,Kramer,SF,orientation,8,6,13,35-5;37-4;28-22;25-23,2,SimpleHill,37-4,54,30,selected,44-21,42-21;46-15;49-16;48-27;42-18;43-28,42-21,2.93,81,-1,973.050877422
GEMS225,2018_Apr_18_1415,Kramer,SF,orientation,8,6,13,35-5;37-4;28-22;25-23,2,SimpleHill,37-4,54,31,selected,42-21,42-19;36-25;49-20;44-22;47-17;46-23,36-25,2.71,83,2,979.339173208
GEMS225,2018_Apr_18_1415,Kramer,SF,orientation,8,6,13,35-5;37-4;28-22;25-23,2,SimpleHill,37-4,54,32,selected,36-25,40-31;39-29;33-25;34-29;36-18;36-33,33-25,2.05,81,-2,984.959172523
GEMS225,2018_Apr_18_1415,Kramer,SF,orientation,8,6,13,35-5;37-4;28-22;25-23,2,SimpleHill,37-4,54,33,selected,33-25,34-32;32-28;28-24;27-23;32-21;29-26,34-32,0.68,88,7,989.203806732
GEMS225,2018_Apr_18_1415,Kramer,SF,orientation,8,6,13,35-5;37-4;28-22;25-23,2,SimpleHill,37-4,54,34,selected,34-32,41-34;29-31;32-29;31-38;33-33;39-38,29-31,0.47,83,-5,993.218216016
GEMS225,2018_Apr_18_1415,Kramer,SF,orientation,8,6,13,35-5;37-4;28-22;25-23,2,SimpleHill,37-4,54,35,selected,29-31,24-37;31-27;28-35;27-33;30-29;23-29,23-29,0.54,76,-7,997.345180703
GEMS225,2018_Apr_18_1415,Kramer,SF,orientation,8,6,13,35-5;37-4;28-22;25-23,2,SimpleHill,37-4,54,36,selected,23-29,16-29;25-28;24-36;26-27;30-29;28-23,26-27,1.12,77,1,1002.02468713
GEMS225,2018_Apr_18_1415,Kramer,SF,orientation,8,6,13,35-5;37-4;28-22;25-23,2,SimpleHill,37-4,54,37,selected,26-27,21-23;23-25;31-27;26-24;25-25;30-30,23-25,1.75,72,-5,1007.34744216
GEMS225,2018_Apr_18_1415,Kramer,SF,orientation,8,6,13,35-5;37-4;28-22;25-23,2,SimpleHill,37-4,54,38,selected,23-25,30-23;23-27;28-24;20-25;21-25;23-21,20-25,1.15,69,-3,1012.08269398
GEMS225,2018_Apr_18_1415,Kramer,SF,orientation,8,6,13,35-5;37-4;28-22;25-23,2,SimpleHill,37-4,54,39,selected,20-25,14-23;13-28;19-19;26-23;22-26;23-30,23-30,1.35,77,8,1017.0079463
GEMS225,2018_Apr_18_1415,Kramer,SF,orientation,8,6,13,35-5;37-4;28-22;25-23,3,SimpleHill,28-22,74,0,selected,28-22,24-21;28-14;29-16;35-19;32-17;31-20,31-20,3.26,74,0,1037.99012931
GEMS225,2018_Apr_18_1415,Kramer,SF,orientation,8,6,13,35-5;37-4;28-22;25-23,3,SimpleHill,28-22,74,1,selected,31-20,30-22;27-21;39-20;35-18;37-15;35-15,35-15,0.95,71,-3,1042.5022917
GEMS225,2018_Apr_18_1415,Kramer,SF,orientation,8,6,13,35-5;37-4;28-22;25-23,3,SimpleHill,28-22,74,2,selected,35-15,41-18;36-18;36-13;30-13;41-17;28-15,28-15,1.53,65,-6,1047.57915167
GEMS225,2018_Apr_18_1415,Kramer,SF,orientation,8,6,13,35-5;37-4;28-22;25-23,3,SimpleHill,28-22,74,3,selected,28-15,23-16;26-21;36-15;30-19;35-14;25-10,36-15,3.03,71,6,1054.18047007
GEMS225,2018_Apr_18_1415,Kramer,SF,orientation,8,6,13,35-5;37-4;28-22;25-23,3,SimpleHill,28-22,74,4,selected,36-15,35-12;42-13;30-20;31-13;36-20;40-19,31-13,2.25,65,-6,1060.00842163
GEMS225,2018_Apr_18_1415,Kramer,SF,orientation,8,6,13,35-5;37-4;28-22;25-23,3,SimpleHill,28-22,74,5,selected,31-13,37-17;24-15;31-6;29-11;38-14;25-12,37-17,1.86,74,9,1065.44095814
GEMS225,2018_Apr_18_1415,Kramer,SF,orientation,8,6,13,35-5;37-4;28-22;25-23,3,SimpleHill,28-22,74,6,selected,37-17,32-12;36-17;40-16;37-13;37-22;42-14,36-17,5.26,74,0,1074.26028961
GEMS225,2018_Apr_18_1415,Kramer,SF,orientation,8,6,13,35-5;37-4;28-22;25-23,3,SimpleHill,28-22,74,7,selected,36-17,37-16;32-23;32-13;39-11;32-12;42-22,32-13,1.17,66,-8,1078.99976377
GEMS225,2018_Apr_18_1415,Kramer,SF,orientation,8,6,13,35-5;37-4;28-22;25-23,3,SimpleHill,28-22,74,8,selected,32-13,30-12;35-17;26-8;34-7;39-12;27-15,30-12,0.6,63,-3,1083.1572003
GEMS225,2018_Apr_18_1415,Kramer,SF,orientation,8,6,13,35-5;37-4;28-22;25-23,3,SimpleHill,28-22,74,9,selected,30-12,26-13;30-15;22-12;28-6;29-13;34-10,29-13,2.07,63,0,1088.78832347
GEMS225,2018_Apr_18_1415,Kramer,SF,orientation,8,6,13,35-5;37-4;28-22;25-23,3,SimpleHill,28-22,74,10,selected,29-13,32-9;29-6;23-16;32-19;33-9;34-10,32-19,1.86,74,11,1094.19537518
GEMS225,2018_Apr_18_1415,Kramer,SF,orientation,8,6,13,35-5;37-4;28-22;25-23,3,SimpleHill,28-22,74,11,selected,32-19,34-23;33-18;39-16;27-15;36-19;27-21,34-23,3.49,80,6,1101.25565307
GEMS225,2018_Apr_18_1415,Kramer,SF,orientation,8,6,13,35-5;37-4;28-22;25-23,3,SimpleHill,28-22,74,12,selected,34-23,31-17;42-23;38-22;30-25;39-25;40-21,42-23,3.08,84,4,1107.89235097
GEMS225,2018_Apr_18_1415,Kramer,SF,orientation,8,6,13,35-5;37-4;28-22;25-23,3,SimpleHill,28-22,74,13,selected,42-23,43-27;41-28;45-23;46-21;35-21;40-26,35-21,0.69,78,-6,1112.13013392
GEMS225,2018_Apr_18_1415,Kramer,SF,orientation,8,6,13,35-5;37-4;28-22;25-23,3,SimpleHill,28-22,74,14,selected,35-21,39-21;38-19;28-20;30-21;32-23;40-19,38-19,2.53,77,-1,1118.22787129
GEMS225,2018_Apr_18_1415,Kramer,SF,orientation,8,6,13,35-5;37-4;28-22;25-23,3,SimpleHill,28-22,74,15,selected,38-19,36-12;32-21;42-13;45-17;32-14;38-27,42-13,1.1,71,-6,1122.90834568
GEMS225,2018_Apr_18_1415,Kramer,SF,orientation,8,6,13,35-5;37-4;28-22;25-23,3,SimpleHill,28-22,74,16,selected,42-13,45-13;42-10;46-10;46-18;37-19;48-12,37-19,2.26,77,6,1128.72795179
GEMS225,2018_Apr_18_1415,Kramer,SF,orientation,8,6,13,35-5;37-4;28-22;25-23,3,SimpleHill,28-22,74,17,selected,37-19,32-16;34-17;30-20;37-21;33-21;41-24,41-24,3.01,84,7,1135.31845074
GEMS225,2018_Apr_18_1415,Kramer,SF,orientation,8,6,13,35-5;37-4;28-22;25-23,3,SimpleHill,28-22,74,18,selected,41-24,40-31;38-27;42-20;41-23;46-30;39-24,39-24,1.65,84,0,1140.52420203
GEMS225,2018_Apr_18_1415,Kramer,SF,orientation,8,6,13,35-5;37-4;28-22;25-23,3,SimpleHill,28-22,74,19,selected,39-24,44-30;32-25;41-25;45-19;37-30;39-17,44-30,2.25,91,7,1146.3352876
GEMS225,2018_Apr_18_1415,Kramer,SF,orientation,8,6,13,35-5;37-4;28-22;25-23,3,SimpleHill,28-22,74,20,selected,44-30,43-25;41-37;49-25;45-24;50-32;38-28,49-25,3.5,87,-4,1153.41344331
GEMS225,2018_Apr_18_1415,Kramer,SF,orientation,8,6,13,35-5;37-4;28-22;25-23,3,SimpleHill,28-22,74,21,selected,49-25,47-26;50-31;56-23;45-23;47-22;47-18,50-31,1.49,92,5,1158.47358037
GEMS225,2018_Apr_18_1415,Kramer,SF,orientation,8,6,13,35-5;37-4;28-22;25-23,3,SimpleHill,28-22,74,22,selected,50-31,44-28;46-25;48-37;48-29;52-33;46-26,48-37,2.76,96,4,1164.8150624
GEMS225,2018_Apr_18_1415,Kramer,SF,orientation,8,6,13,35-5;37-4;28-22;25-23,3,SimpleHill,28-22,74,23,selected,48-37,49-36;53-32;46-34;47-41;43-40;53-31,43-40,1.25,97,1,1169.63844112
GEMS225,2018_Apr_18_1415,Kramer,SF,orientation,8,6,13,35-5;37-4;28-22;25-23,3,SimpleHill,28-22,74,24,selected,43-40,43-43;46-39;37-36;41-34;50-40;45-45,45-45,1.11,99,2,1174.31787393
GEMS225,2018_Apr_18_1415,Kramer,SF,orientation,8,6,13,35-5;37-4;28-22;25-23,3,SimpleHill,28-22,74,25,selected,45-45,45-53;41-46;47-41;51-42;46-50;47-48,47-48,0.88,99,0,1178.77219209
GEMS225,2018_Apr_18_1415,Kramer,SF,orientation,8,6,13,35-5;37-4;28-22;25-23,3,SimpleHill,28-22,74,26,selected,47-48,49-43;50-50;42-50;50-46;50-43;48-52,50-50,1.85,100,1,1184.18708478
GEMS225,2018_Apr_18_1415,Kramer,SF,orientation,8,6,13,35-5;37-4;28-22;25-23,3,SimpleHill,28-22,74,27,selected,50-50,48-52;53-54;46-47;44-53;52-55;49-55,49-55,0.81,99,-1,1188.5699807
GEMS225,2018_Apr_18_1415,Kramer,SF,orientation,8,6,13,35-5;37-4;28-22;25-23,3,SimpleHill,28-22,74,28,selected,49-55,51-55;53-52;52-48;54-60;47-58;52-57,51-55,1.71,99,0,1193.84213614
GEMS225,2018_Apr_18_1415,Kramer,SF,orientation,8,6,13,35-5;37-4;28-22;25-23,3,SimpleHill,28-22,74,29,selected,51-55,56-53;48-54;49-58;45-58;53-48;50-52,49-58,0.95,98,-1,1198.37009798
GEMS225,2018_Apr_18_1415,Kramer,SF,orientation,8,6,13,35-5;37-4;28-22;25-23,3,SimpleHill,28-22,74,30,selected,49-58,49-66;54-52;47-54;51-51;48-54;49-54,49-66,1.25,94,-4,1203.19047456
GEMS225,2018_Apr_18_1415,Kramer,SF,orientation,8,6,13,35-5;37-4;28-22;25-23,3,SimpleHill,28-22,74,31,selected,49-66,49-63;45-60;52-61;47-62;54-70;42-66,54-70,1.18,91,-3,1207.94303922
GEMS225,2018_Apr_18_1415,Kramer,SF,orientation,8,6,13,35-5;37-4;28-22;25-23,3,SimpleHill,28-22,74,32,selected,54-70,48-68;47-68;54-66;49-66;49-70;58-64,49-66,1.46,94,3,1212.96316536
GEMS225,2018_Apr_18_1415,Kramer,SF,orientation,8,6,13,35-5;37-4;28-22;25-23,3,SimpleHill,28-22,74,33,selected,49-66,45-68;51-63;49-63;47-66;54-69;45-67,51-63,0.98,96,2,1217.52899766
GEMS225,2018_Apr_18_1415,Kramer,SF,orientation,8,6,13,35-5;37-4;28-22;25-23,3,SimpleHill,28-22,74,34,selected,51-63,53-59;57-64;51-56;46-58;45-60;50-68,53-59,1.0,98,2,1222.07391256
GEMS225,2018_Apr_18_1415,Kramer,SF,orientation,8,6,13,35-5;37-4;28-22;25-23,3,SimpleHill,28-22,74,35,selected,53-59,46-57;53-54;49-60;56-66;51-54;61-59,56-66,2.84,94,-4,1228.48917367
GEMS225,2018_Apr_18_1415,Kramer,SF,orientation,8,6,13,35-5;37-4;28-22;25-23,3,SimpleHill,28-22,74,36,selected,56-66,53-68;52-70;62-69;60-68;54-64;52-69,53-68,1.82,93,-1,1233.86888531
GEMS225,2018_Apr_18_1415,Kramer,SF,orientation,8,6,13,35-5;37-4;28-22;25-23,3,SimpleHill,28-22,74,37,selected,53-68,58-69;55-67;48-65;50-70;56-66;53-69,56-66,0.68,94,1,1238.12785839
GEMS225,2018_Apr_18_1415,Kramer,SF,orientation,8,6,13,35-5;37-4;28-22;25-23,3,SimpleHill,28-22,74,38,selected,56-66,63-67;61-61;58-62;50-62;49-69;52-63,52-63,0.62,96,2,1242.31883229
GEMS225,2018_Apr_18_1415,Kramer,SF,orientation,8,6,13,35-5;37-4;28-22;25-23,3,SimpleHill,28-22,74,39,selected,52-63,50-63;49-69;52-56;50-61;59-62;46-58,49-69,1.1,92,-4,1247.00430364
GEMS225,2018_Apr_18_1415,Kramer,SF,orientation,8,6,13,35-5;37-4;28-22;25-23,4,SimpleHill,25-23,72,0,selected,25-23,21-26;27-23;17-23;26-29;19-22;32-25,32-25,4.84,81,9,1267.82764204
GEMS225,2018_Apr_18_1415,Kramer,SF,orientation,8,6,13,35-5;37-4;28-22;25-23,4,SimpleHill,25-23,72,1,selected,32-25,31-25;33-22;33-31;30-19;38-20;26-22,38-20,2.62,79,-2,1274.01301848
GEMS225,2018_Apr_18_1415,Kramer,SF,orientation,8,6,13,35-5;37-4;28-22;25-23,4,SimpleHill,25-23,72,2,selected,38-20,40-14;38-20;34-18;34-23;43-15;32-25,32-25,1.49,81,2,1279.07184028
GEMS225,2018_Apr_18_1415,Kramer,SF,orientation,8,6,13,35-5;37-4;28-22;25-23,4,SimpleHill,25-23,72,3,selected,32-25,32-30;33-18;40-25;36-25;34-29;32-26,36-25,2.35,83,2,1284.99669601
GEMS225,2018_Apr_18_1415,Kramer,SF,orientation,8,6,13,35-5;37-4;28-22;25-23,4,SimpleHill,25-23,72,4,selected,36-25,42-26;40-30;41-19;38-31;33-19;29-26,29-26,1.35,79,-4,1289.91531345
GEMS225,2018_Apr_18_1415,Kramer,SF,orientation,8,6,13,35-5;37-4;28-22;25-23,4,SimpleHill,25-23,72,5,selected,29-26,23-27;29-18;26-29;22-24;24-30;26-22,23-27,2.91,74,-5,1296.39277078
GEMS225,2018_Apr_18_1415,Kramer,SF,orientation,8,6,13,35-5;37-4;28-22;25-23,4,SimpleHill,25-23,72,6,selected,23-27,21-34;20-21;25-33;19-30;30-26;28-32,20-21,1.32,65,-9,1301.27269448
GEMS225,2018_Apr_18_1415,Kramer,SF,orientation,8,6,13,35-5;37-4;28-22;25-23,4,SimpleHill,25-23,72,7,selected,20-21,14-16;24-23;23-28;21-18;25-17;26-22,14-16,2.68,50,-15,1307.53270497
GEMS225,2018_Apr_18_1415,Kramer,SF,orientation,8,6,13,35-5;37-4;28-22;25-23,4,SimpleHill,25-23,72,8,selected,14-16,18-13;10-20;20-12;20-11;12-15;13-14,12-15,1.78,46,-4,1312.88492259
GEMS225,2018_Apr_18_1415,Kramer,SF,orientation,8,6,13,35-5;37-4;28-22;25-23,4,SimpleHill,25-23,72,9,selected,12-15,13-18;18-19;6-19;10-13;16-9;18-16,6-19,2.32,42,-4,1318.79146742
GEMS225,2018_Apr_18_1415,Kramer,SF,orientation,8,6,13,35-5;37-4;28-22;25-23,4,SimpleHill,25-23,72,10,selected,6-19,10-14;10-22;2-18;10-20;13-19;4-18,13-19,2.99,53,11,1325.34710766
GEMS225,2018_Apr_18_1415,Kramer,SF,orientation,8,6,13,35-5;37-4;28-22;25-23,4,SimpleHill,25-23,72,11,selected,13-19,11-12;14-22;11-20;13-17;8-20;11-15,14-22,2.66,58,5,1331.56734346
GEMS225,2018_Apr_18_1415,Kramer,SF,orientation,8,6,13,35-5;37-4;28-22;25-23,4,SimpleHill,25-23,72,12,selected,14-22,14-24;12-20;20-27;16-21;7-23;9-22,14-24,1.78,60,2,1336.90685404
GEMS225,2018_Apr_18_1415,Kramer,SF,orientation,8,6,13,35-5;37-4;28-22;25-23,4,SimpleHill,25-23,72,13,selected,14-24,16-27;20-28;10-19;20-26;9-18;12-21,20-28,2.77,72,12,1343.24666456
GEMS225,2018_Apr_18_1415,Kramer,SF,orientation,8,6,13,35-5;37-4;28-22;25-23,4,SimpleHill,25-23,72,14,selected,20-28,24-24;21-21;21-22;21-28;15-24;16-32,16-32,3.14,70,-2,1349.97290225
GEMS225,2018_Apr_18_1415,Kramer,SF,orientation,8,6,13,35-5;37-4;28-22;25-23,4,SimpleHill,25-23,72,15,selected,16-32,21-30;22-37;12-28;11-38;12-31;20-36,20-36,5.99,78,8,1359.54584765
GEMS225,2018_Apr_18_1415,Kramer,SF,orientation,8,6,13,35-5;37-4;28-22;25-23,4,SimpleHill,25-23,72,16,selected,20-36,23-39;15-38;25-38;17-41;19-42;13-37,23-39,6.29,83,5,1369.40806479
GEMS225,2018_Apr_18_1415,Kramer,SF,orientation,8,6,13,35-5;37-4;28-22;25-23,4,SimpleHill,25-23,72,17,selected,23-39,16-40;20-37;23-38;21-41;24-40;23-42,23-42,7.2,84,1,1380.18913977
GEMS225,2018_Apr_18_1415,Kramer,SF,orientation,8,6,13,35-5;37-4;28-22;25-23,4,SimpleHill,25-23,72,18,selected,23-42,22-41;24-44;27-45;24-46;19-47;29-43,22-41,6.39,82,-2,1390.15007697
GEMS225,2018_Apr_18_1415,Kramer,SF,orientation,8,6,13,35-5;37-4;28-22;25-23,4,SimpleHill,25-23,72,19,selected,22-41,21-43;15-38;25-45;18-41;22-35;25-38,25-38,5.87,84,2,1399.5820245
GEMS225,2018_Apr_18_1415,Kramer,SF,orientation,8,6,13,35-5;37-4;28-22;25-23,4,SimpleHill,25-23,72,20,selected,25-38,19-41;20-33;27-44;25-34;28-34;20-42,28-34,5.9,85,1,1409.06057558
GEMS225,2018_Apr_18_1415,Kramer,SF,orientation,8,6,13,35-5;37-4;28-22;25-23,4,SimpleHill,25-23,72,21,selected,28-34,24-29;28-36;30-36;32-31;23-28;28-38,30-36,0.41,88,3,1413.04160818
GEMS225,2018_Apr_18_1415,Kramer,SF,orientation,8,6,13,35-5;37-4;28-22;25-23,4,SimpleHill,25-23,72,22,selected,30-36,26-36;34-41;26-40;35-33;25-40;28-37,28-37,1.26,86,-2,1417.88302412
GEMS225,2018_Apr_18_1415,Kramer,SF,orientation,8,6,13,35-5;37-4;28-22;25-23,4,SimpleHill,25-23,72,23,selected,28-37,35-37;31-36;34-33;27-38;25-39;23-41,35-37,1.07,92,6,1422.53261214
GEMS225,2018_Apr_18_1415,Kramer,SF,orientation,8,6,13,35-5;37-4;28-22;25-23,4,SimpleHill,25-23,72,24,selected,35-37,33-33;30-34;36-31;37-40;32-38;34-39,30-34,1.17,86,-6,1427.2773547
GEMS225,2018_Apr_18_1415,Kramer,SF,orientation,8,6,13,35-5;37-4;28-22;25-23,4,SimpleHill,25-23,72,25,selected,30-34,36-34;35-33;32-36;33-38;26-38;29-28,33-38,0.94,91,5,1431.7938646
GEMS225,2018_Apr_18_1415,Kramer,SF,orientation,8,6,13,35-5;37-4;28-22;25-23,4,SimpleHill,25-23,72,26,selected,33-38,32-41;35-42;27-33;31-37;28-41;28-39,28-39,1.24,87,-4,1436.591513
GEMS225,2018_Apr_18_1415,Kramer,SF,orientation,8,6,13,35-5;37-4;28-22;25-23,4,SimpleHill,25-23,72,27,selected,28-39,26-45;32-44;34-41;30-43;31-45;28-43,31-45,1.85,92,5,1442.00939728
GEMS225,2018_Apr_18_1415,Kramer,SF,orientation,8,6,13,35-5;37-4;28-22;25-23,4,SimpleHill,25-23,72,28,selected,31-45,24-43;30-48;36-47;29-43;35-40;27-40,36-47,1.78,95,3,1447.34702444
GEMS225,2018_Apr_18_1415,Kramer,SF,orientation,8,6,13,35-5;37-4;28-22;25-23,4,SimpleHill,25-23,72,29,selected,36-47,35-42;36-43;35-43;33-51;31-42;33-43,31-42,2.43,91,-4,1453.34016966
GEMS225,2018_Apr_18_1415,Kramer,SF,orientation,8,6,13,35-5;37-4;28-22;25-23,4,SimpleHill,25-23,72,30,selected,31-42,31-45;27-47;34-45;36-39;35-46;28-37,34-45,2.42,94,3,1459.32098011
GEMS225,2018_Apr_18_1415,Kramer,SF,orientation,8,6,13,35-5;37-4;28-22;25-23,4,SimpleHill,25-23,72,31,selected,34-45,28-49;39-46;41-46;35-47;28-47;33-49,28-47,2.09,90,-4,1464.96386732
GEMS225,2018_Apr_18_1415,Kramer,SF,orientation,8,6,13,35-5;37-4;28-22;25-23,4,SimpleHill,25-23,72,32,selected,28-47,31-50;33-46;28-55;30-46;35-49;25-46,31-50,0.69,92,2,1469.23278823
GEMS225,2018_Apr_18_1415,Kramer,SF,orientation,8,6,13,35-5;37-4;28-22;25-23,4,SimpleHill,25-23,72,33,selected,31-50,28-52;29-48;26-52;33-49;35-48;31-44,29-48,0.61,91,-1,1473.38859549
GEMS225,2018_Apr_18_1415,Kramer,SF,orientation,8,6,13,35-5;37-4;28-22;25-23,4,SimpleHill,25-23,72,34,selected,29-48,29-50;28-54;26-52;30-50;31-54;29-48,29-48,0.62,91,0,1477.57448856
GEMS225,2018_Apr_18_1415,Kramer,SF,orientation,8,6,13,35-5;37-4;28-22;25-23,4,SimpleHill,25-23,72,35,selected,29-48,33-50;34-50;28-52;25-44;32-49;32-41,33-50,0.62,94,3,1481.77221386
GEMS225,2018_Apr_18_1415,Kramer,SF,orientation,8,6,13,35-5;37-4;28-22;25-23,4,SimpleHill,25-23,72,36,selected,33-50,31-45;39-47;33-54;39-51;34-56;39-53,33-54,1.13,93,-1,1486.48403331
GEMS225,2018_Apr_18_1415,Kramer,SF,orientation,8,6,13,35-5;37-4;28-22;25-23,4,SimpleHill,25-23,72,37,selected,33-54,34-55;34-53;34-50;30-56;26-55;37-50,34-55,1.43,94,1,1491.46088582
GEMS225,2018_Apr_18_1415,Kramer,SF,orientation,8,6,13,35-5;37-4;28-22;25-23,4,SimpleHill,25-23,72,38,selected,34-55,28-55;38-49;38-61;37-61;28-56;34-63,34-63,0.81,91,-3,1495.83970568
GEMS225,2018_Apr_18_1415,Kramer,SF,orientation,8,6,13,35-5;37-4;28-22;25-23,4,SimpleHill,25-23,72,39,selected,34-63,34-59;39-65;40-61;33-65;30-57;27-63,34-59,2.74,93,2,1502.14880812
