subj_id,date,computer,experimenter,instructions,sight_radius,n_gabors,start_pos_list_ix,start_pos_list,landscape_ix,landscape_name,starting_pos,starting_score,trial,feedback,pos,stims,selected,rt,score,delta,exp_time
GEMS134,2018_Apr_05_1048,George,AM,spatial_frequency,8,6,0,0-0;0-0;0-0;0-0,0,SpatialFrequencyBias,0-0,0,0,training,0-0,6-3;5-1;4-6;3-3;3-2;4-0,5-1,11.13,3,3,139.653063896
GEMS134,2018_Apr_05_1048,George,AM,spatial_frequency,8,6,0,0-0;0-0;0-0;0-0,0,SpatialFrequencyBias,0-0,0,1,training,5-1,7-4;1-3;4-5;9-0;6-4;8-7,7-4,3.55,15,12,154.71930198
GEMS134,2018_Apr_05_1048,George,AM,spatial_frequency,8,6,0,0-0;0-0;0-0;0-0,0,SpatialFrequencyBias,0-0,0,2,training,7-4,8-3;3-2;1-4;9-2;7-11;3-0,7-11,2.65,39,24,167.205508221
GEMS134,2018_Apr_05_1048,George,AM,spatial_frequency,8,6,0,0-0;0-0;0-0;0-0,0,SpatialFrequencyBias,0-0,0,3,training,7-11,8-12;7-16;6-15;12-11;12-5;6-18,6-15,6.34,51,12,179.736110053
GEMS134,2018_Apr_05_1048,George,AM,spatial_frequency,8,6,0,0-0;0-0;0-0;0-0,0,SpatialFrequencyBias,0-0,0,4,training,6-15,0-11;9-9;0-16;12-16;5-12;5-22,5-22,3.75,68,17,187.122546889
GEMS134,2018_Apr_05_1048,George,AM,spatial_frequency,8,6,0,0-0;0-0;0-0;0-0,0,SpatialFrequencyBias,0-0,0,5,training,5-22,1-28;5-23;5-22;10-22;0-27;1-26,0-27,6.18,78,10,196.280397133
GEMS134,2018_Apr_05_1048,George,AM,spatial_frequency,8,6,0,0-0;0-0;0-0;0-0,0,SpatialFrequencyBias,0-0,0,6,training,0-27,6-25;0-23;0-30;7-28;7-30;3-22,0-30,3.52,84,6,203.540664269
GEMS134,2018_Apr_05_1048,George,AM,spatial_frequency,8,6,0,0-0;0-0;0-0;0-0,0,SpatialFrequencyBias,0-0,0,7,training,0-30,1-28;6-30;1-31;2-26;1-32;1-26,6-30,2.57,84,0,210.065788033
GEMS134,2018_Apr_05_1048,George,AM,spatial_frequency,8,6,0,0-0;0-0;0-0;0-0,0,SpatialFrequencyBias,0-0,0,8,training,6-30,12-30;5-24;10-26;1-35;6-29;12-34,1-35,4.18,91,7,217.725896852
GEMS134,2018_Apr_05_1048,George,AM,spatial_frequency,8,6,0,0-0;0-0;0-0;0-0,0,SpatialFrequencyBias,0-0,0,9,training,1-35,4-32;4-34;4-33;4-42;5-41;6-32,4-42,4.94,97,6,225.566829615
GEMS134,2018_Apr_05_1048,George,AM,spatial_frequency,8,6,0,0-0;0-0;0-0;0-0,0,SpatialFrequencyBias,0-0,0,10,training,4-42,3-45;7-35;5-46;9-39;11-43;7-40,5-46,1.65,99,2,229.750592652
GEMS134,2018_Apr_05_1048,George,AM,spatial_frequency,8,6,0,0-0;0-0;0-0;0-0,0,SpatialFrequencyBias,0-0,0,11,training,5-46,3-47;12-43;6-48;2-42;7-49;6-42,3-47,2.96,99,0,235.435008037
GEMS134,2018_Apr_05_1048,George,AM,spatial_frequency,8,6,0,0-0;0-0;0-0;0-0,0,SpatialFrequencyBias,0-0,0,12,training,3-47,6-47;5-41;3-41;4-46;4-43;3-44,6-47,1.93,99,0,240.302539232
GEMS134,2018_Apr_05_1048,George,AM,spatial_frequency,8,6,0,0-0;0-0;0-0;0-0,0,SpatialFrequencyBias,0-0,0,13,training,6-47,10-49;7-44;7-50;0-51;12-50;8-45,7-50,2.57,100,1,245.265058606
GEMS134,2018_Apr_05_1048,George,AM,spatial_frequency,8,6,0,0-0;0-0;0-0;0-0,0,SpatialFrequencyBias,0-0,0,14,training,7-50,13-55;3-45;10-53;1-54;5-52;3-44,1-54,4.97,99,-1,253.136511577
GEMS134,2018_Apr_05_1048,George,AM,spatial_frequency,8,6,0,0-0;0-0;0-0;0-0,0,SpatialFrequencyBias,0-0,0,15,training,1-54,1-56;2-52;3-60;5-53;3-55;3-56,3-60,10.03,96,-3,267.034858106
GEMS134,2018_Apr_05_1048,George,AM,spatial_frequency,8,6,0,0-0;0-0;0-0;0-0,0,SpatialFrequencyBias,0-0,0,16,training,3-60,5-54;7-61;1-59;1-61;7-63;5-66,1-61,1.7,95,-1,274.08581816
GEMS134,2018_Apr_05_1048,George,AM,spatial_frequency,8,6,0,0-0;0-0;0-0;0-0,0,SpatialFrequencyBias,0-0,0,17,training,1-61,8-59;6-66;1-66;2-60;5-58;4-65,2-60,2.51,96,1,282.357919768
GEMS134,2018_Apr_05_1048,George,AM,spatial_frequency,8,6,0,0-0;0-0;0-0;0-0,0,SpatialFrequencyBias,0-0,0,18,training,2-60,3-59;4-62;1-67;0-66;7-61;7-58,1-67,2.93,88,-8,289.118107842
GEMS134,2018_Apr_05_1048,George,AM,spatial_frequency,8,6,0,0-0;0-0;0-0;0-0,0,SpatialFrequencyBias,0-0,0,19,training,1-67,2-60;8-69;2-63;5-70;3-65;3-62,5-70,0.94,84,-4,295.074418055
GEMS134,2018_Apr_05_1048,George,AM,spatial_frequency,8,6,0,0-0;0-0;0-0;0-0,0,SpatialFrequencyBias,0-0,0,20,training,5-70,2-68;2-63;3-63;5-70;6-67;5-68,5-68,2.68,87,3,301.00058609
GEMS134,2018_Apr_05_1048,George,AM,spatial_frequency,8,6,0,0-0;0-0;0-0;0-0,0,SpatialFrequencyBias,0-0,0,21,training,5-68,3-65;8-67;2-63;8-66;7-67;0-66,2-63,0.72,93,6,305.669334854
GEMS134,2018_Apr_05_1048,George,AM,spatial_frequency,8,6,0,0-0;0-0;0-0;0-0,0,SpatialFrequencyBias,0-0,0,22,training,2-63,0-68;6-65;7-62;0-59;8-61;6-62,8-61,2.17,95,2,311.309074887
GEMS134,2018_Apr_05_1048,George,AM,spatial_frequency,8,6,0,0-0;0-0;0-0;0-0,0,SpatialFrequencyBias,0-0,0,23,training,8-61,1-62;8-57;5-64;14-65;14-60;12-66,14-65,1.23,91,-4,315.25962407
GEMS134,2018_Apr_05_1048,George,AM,spatial_frequency,8,6,0,0-0;0-0;0-0;0-0,0,SpatialFrequencyBias,0-0,0,24,training,14-65,17-62;12-68;19-61;16-58;17-61;14-57,17-62,2.16,94,3,320.82488299
GEMS134,2018_Apr_05_1048,George,AM,spatial_frequency,8,6,0,0-0;0-0;0-0;0-0,0,SpatialFrequencyBias,0-0,0,25,training,17-62,16-64;12-59;13-62;20-66;24-64;23-59,20-66,3.02,89,-5,333.955009676
GEMS134,2018_Apr_05_1048,George,AM,spatial_frequency,8,6,0,0-0;0-0;0-0;0-0,0,SpatialFrequencyBias,0-0,0,26,training,20-66,26-67;25-66;17-69;17-61;16-60;21-69,17-69,1.47,85,-4,339.098707657
GEMS134,2018_Apr_05_1048,George,AM,spatial_frequency,8,6,0,0-0;0-0;0-0;0-0,0,SpatialFrequencyBias,0-0,0,27,training,17-69,10-68;18-70;16-65;23-68;21-67;20-63,21-67,1.65,88,3,345.453930003
GEMS134,2018_Apr_05_1048,George,AM,spatial_frequency,8,6,0,0-0;0-0;0-0;0-0,0,SpatialFrequencyBias,0-0,0,28,training,21-67,26-67;20-69;19-66;23-69;27-65;26-70,27-65,1.05,91,3,349.382601804
GEMS134,2018_Apr_05_1048,George,AM,spatial_frequency,8,6,0,0-0;0-0;0-0;0-0,0,SpatialFrequencyBias,0-0,0,29,training,27-65,27-70;27-60;30-68;25-61;30-65;27-63,25-61,1.03,95,4,353.916742902
GEMS134,2018_Apr_05_1048,George,AM,spatial_frequency,8,6,0,0-0;0-0;0-0;0-0,1,SimpleHill,0-0,0,0,selected,0-0,1-3;5-2;2-4;6-5;1-0;1-7,1-0,3.51,1,1,380.739017136
GEMS134,2018_Apr_05_1048,George,AM,spatial_frequency,8,6,0,0-0;0-0;0-0;0-0,1,SimpleHill,0-0,0,1,selected,1-0,4-4;3-1;7-5;8-0;0-1;2-7,4-4,2.53,15,14,386.838890251
GEMS134,2018_Apr_05_1048,George,AM,spatial_frequency,8,6,0,0-0;0-0;0-0;0-0,1,SimpleHill,0-0,0,2,selected,4-4,9-4;2-6;7-6;3-2;10-2;8-1,7-6,1.64,24,9,392.037865698
GEMS134,2018_Apr_05_1048,George,AM,spatial_frequency,8,6,0,0-0;0-0;0-0;0-0,1,SimpleHill,0-0,0,3,selected,7-6,0-9;8-10;2-4;11-11;9-4;5-7,2-4,1.94,11,-13,397.552282998
GEMS134,2018_Apr_05_1048,George,AM,spatial_frequency,8,6,0,0-0;0-0;0-0;0-0,1,SimpleHill,0-0,0,4,selected,2-4,7-7;3-11;0-4;6-5;7-0;0-5,6-5,0.93,20,9,402.038246288
GEMS134,2018_Apr_05_1048,George,AM,spatial_frequency,8,6,0,0-0;0-0;0-0;0-0,1,SimpleHill,0-0,0,5,selected,6-5,11-8;6-5;11-4;10-10;3-0;3-12,6-5,1.13,20,0,406.75503682
GEMS134,2018_Apr_05_1048,George,AM,spatial_frequency,8,6,0,0-0;0-0;0-0;0-0,1,SimpleHill,0-0,0,6,selected,6-5,10-1;1-4;3-7;6-7;6-10;12-7,12-7,0.99,34,14,411.310877009
GEMS134,2018_Apr_05_1048,George,AM,spatial_frequency,8,6,0,0-0;0-0;0-0;0-0,1,SimpleHill,0-0,0,7,selected,12-7,18-7;11-6;14-2;13-1;9-3;17-7,13-1,1.39,24,-10,416.265326203
GEMS134,2018_Apr_05_1048,George,AM,spatial_frequency,8,6,0,0-0;0-0;0-0;0-0,1,SimpleHill,0-0,0,8,selected,13-1,9-3;19-3;17-1;9-4;13-4;14-5,9-3,1.83,22,-2,421.657340016
GEMS134,2018_Apr_05_1048,George,AM,spatial_frequency,8,6,0,0-0;0-0;0-0;0-0,1,SimpleHill,0-0,0,9,selected,9-3,7-0;2-1;9-1;12-0;13-5;8-9,12-0,1.02,21,-1,426.238906384
GEMS134,2018_Apr_05_1048,George,AM,spatial_frequency,8,6,0,0-0;0-0;0-0;0-0,1,SimpleHill,0-0,0,10,selected,12-0,7-4;9-6;12-4;12-7;15-2;17-6,17-6,0.97,39,18,430.76817695
GEMS134,2018_Apr_05_1048,George,AM,spatial_frequency,8,6,0,0-0;0-0;0-0;0-0,1,SimpleHill,0-0,0,11,selected,17-6,22-5;20-4;19-12;10-3;20-7;19-10,19-10,1.34,48,9,435.668716114
GEMS134,2018_Apr_05_1048,George,AM,spatial_frequency,8,6,0,0-0;0-0;0-0;0-0,1,SimpleHill,0-0,0,12,selected,19-10,21-13;12-12;12-13;14-10;18-13;14-9,12-13,0.74,43,-5,439.956593496
GEMS134,2018_Apr_05_1048,George,AM,spatial_frequency,8,6,0,0-0;0-0;0-0;0-0,1,SimpleHill,0-0,0,13,selected,12-13,15-7;7-10;15-19;16-10;13-20;7-16,16-10,0.64,44,1,444.154840731
GEMS134,2018_Apr_05_1048,George,AM,spatial_frequency,8,6,0,0-0;0-0;0-0;0-0,1,SimpleHill,0-0,0,14,selected,16-10,21-5;12-14;15-12;22-10;15-11;23-7,12-14,3.44,45,1,451.144044962
GEMS134,2018_Apr_05_1048,George,AM,spatial_frequency,8,6,0,0-0;0-0;0-0;0-0,1,SimpleHill,0-0,0,15,selected,12-14,10-18;11-9;14-19;16-8;9-10;13-11,9-10,1.4,34,-11,456.118966651
GEMS134,2018_Apr_05_1048,George,AM,spatial_frequency,8,6,0,0-0;0-0;0-0;0-0,1,SimpleHill,0-0,0,16,selected,9-10,4-14;5-12;16-10;4-11;8-13;3-15,4-14,2.08,31,-3,461.775154333
GEMS134,2018_Apr_05_1048,George,AM,spatial_frequency,8,6,0,0-0;0-0;0-0;0-0,1,SimpleHill,0-0,0,17,selected,4-14,8-10;2-17;8-13;9-14;9-13;8-11,2-17,3.31,32,1,468.630061067
GEMS134,2018_Apr_05_1048,George,AM,spatial_frequency,8,6,0,0-0;0-0;0-0;0-0,1,SimpleHill,0-0,0,18,selected,2-17,0-15;7-11;5-17;8-19;2-14;5-11,8-19,0.96,45,13,473.173097864
GEMS134,2018_Apr_05_1048,George,AM,spatial_frequency,8,6,0,0-0;0-0;0-0;0-0,1,SimpleHill,0-0,0,19,selected,8-19,12-14;13-22;15-22;11-20;5-18;5-23,15-22,1.75,59,14,478.49237571
GEMS134,2018_Apr_05_1048,George,AM,spatial_frequency,8,6,0,0-0;0-0;0-0;0-0,1,SimpleHill,0-0,0,20,selected,15-22,15-21;12-17;11-26;20-16;20-25;14-24,14-24,1.29,60,1,483.351677638
GEMS134,2018_Apr_05_1048,George,AM,spatial_frequency,8,6,0,0-0;0-0;0-0;0-0,1,SimpleHill,0-0,0,21,selected,14-24,18-28;12-22;21-27;13-18;20-19;16-24,21-27,1.26,72,12,488.190972807
GEMS134,2018_Apr_05_1048,George,AM,spatial_frequency,8,6,0,0-0;0-0;0-0;0-0,1,SimpleHill,0-0,0,22,selected,21-27,16-33;14-25;20-25;22-20;27-27;23-25,16-33,1.21,71,-1,492.959052128
GEMS134,2018_Apr_05_1048,George,AM,spatial_frequency,8,6,0,0-0;0-0;0-0;0-0,1,SimpleHill,0-0,0,23,selected,16-33,21-37;11-39;10-34;22-32;16-39;14-38,11-39,1.65,67,-4,498.19722742
GEMS134,2018_Apr_05_1048,George,AM,spatial_frequency,8,6,0,0-0;0-0;0-0;0-0,1,SimpleHill,0-0,0,24,selected,11-39,11-47;8-36;15-45;10-41;11-39;8-44,8-44,1.12,64,-3,502.883886336
GEMS134,2018_Apr_05_1048,George,AM,spatial_frequency,8,6,0,0-0;0-0;0-0;0-0,1,SimpleHill,0-0,0,25,selected,8-44,1-45;12-50;4-41;4-50;9-51;5-38,1-45,0.45,51,-13,506.898226814
GEMS134,2018_Apr_05_1048,George,AM,spatial_frequency,8,6,0,0-0;0-0;0-0;0-0,1,SimpleHill,0-0,0,26,selected,1-45,5-40;1-40;1-50;0-44;7-42;3-44,1-50,0.87,51,0,511.352521723
GEMS134,2018_Apr_05_1048,George,AM,spatial_frequency,8,6,0,0-0;0-0;0-0;0-0,1,SimpleHill,0-0,0,27,selected,1-50,1-42;7-45;2-54;1-57;4-56;3-57,4-56,0.39,56,5,515.302472013
GEMS134,2018_Apr_05_1048,George,AM,spatial_frequency,8,6,0,0-0;0-0;0-0;0-0,1,SimpleHill,0-0,0,28,selected,4-56,9-62;11-54;7-57;4-54;2-51;5-51,4-54,0.62,57,1,519.487288154
GEMS134,2018_Apr_05_1048,George,AM,spatial_frequency,8,6,0,0-0;0-0;0-0;0-0,1,SimpleHill,0-0,0,29,selected,4-54,2-54;3-53;0-48;5-58;5-47;0-50,2-54,0.37,53,-4,523.423884493
GEMS134,2018_Apr_05_1048,George,AM,spatial_frequency,8,6,0,0-0;0-0;0-0;0-0,1,SimpleHill,0-0,0,30,selected,2-54,9-52;2-59;6-51;4-61;0-51;8-50,2-59,0.43,52,-1,527.414477605
GEMS134,2018_Apr_05_1048,George,AM,spatial_frequency,8,6,0,0-0;0-0;0-0;0-0,1,SimpleHill,0-0,0,31,selected,2-59,7-59;0-63;8-63;1-62;2-66;10-59,0-63,0.32,46,-6,531.282850004
GEMS134,2018_Apr_05_1048,George,AM,spatial_frequency,8,6,0,0-0;0-0;0-0;0-0,1,SimpleHill,0-0,0,32,selected,0-63,0-65;4-67;6-62;2-56;0-58;2-59,6-62,0.55,58,12,535.399102588
GEMS134,2018_Apr_05_1048,George,AM,spatial_frequency,8,6,0,0-0;0-0;0-0;0-0,1,SimpleHill,0-0,0,33,selected,6-62,11-56;0-64;5-62;13-60;8-67;8-60,8-60,0.6,62,4,539.565325499
GEMS134,2018_Apr_05_1048,George,AM,spatial_frequency,8,6,0,0-0;0-0;0-0;0-0,1,SimpleHill,0-0,0,34,selected,8-60,11-66;5-65;13-54;6-67;7-61;4-56,5-65,0.18,55,-7,543.30998075
GEMS134,2018_Apr_05_1048,George,AM,spatial_frequency,8,6,0,0-0;0-0;0-0;0-0,1,SimpleHill,0-0,0,35,selected,5-65,4-70;7-62;5-66;7-58;12-63;8-68,12-63,0.55,67,12,547.423071457
GEMS134,2018_Apr_05_1048,George,AM,spatial_frequency,8,6,0,0-0;0-0;0-0;0-0,1,SimpleHill,0-0,0,36,selected,12-63,12-62;11-69;8-64;8-61;15-67;7-64,15-67,0.32,69,2,551.31508815
GEMS134,2018_Apr_05_1048,George,AM,spatial_frequency,8,6,0,0-0;0-0;0-0;0-0,1,SimpleHill,0-0,0,37,selected,15-67,13-63;20-62;22-65;15-67;18-63;21-64,18-63,0.19,76,7,555.061713252
GEMS134,2018_Apr_05_1048,George,AM,spatial_frequency,8,6,0,0-0;0-0;0-0;0-0,1,SimpleHill,0-0,0,38,selected,18-63,13-65;12-66;16-62;15-64;22-57;12-60,16-62,0.3,74,-2,558.930090772
GEMS134,2018_Apr_05_1048,George,AM,spatial_frequency,8,6,0,0-0;0-0;0-0;0-0,1,SimpleHill,0-0,0,39,selected,16-62,18-57;13-63;20-60;20-56;22-63;21-64,22-63,0.22,80,6,562.715281294
GEMS134,2018_Apr_05_1048,George,AM,spatial_frequency,8,6,0,0-0;0-0;0-0;0-0,2,SimpleHill,0-0,0,0,selected,0-0,1-7;0-5;6-3;0-4;0-0;2-0,0-5,1.61,9,9,575.021410047
GEMS134,2018_Apr_05_1048,George,AM,spatial_frequency,8,6,0,0-0;0-0;0-0;0-0,2,SimpleHill,0-0,0,1,selected,0-5,5-7;4-9;7-6;4-2;1-4;6-10,6-10,0.84,29,20,579.422721915
GEMS134,2018_Apr_05_1048,George,AM,spatial_frequency,8,6,0,0-0;0-0;0-0;0-0,2,SimpleHill,0-0,0,2,selected,6-10,10-10;1-7;9-12;2-10;11-9;8-5,8-5,0.42,24,-5,583.416515636
GEMS134,2018_Apr_05_1048,George,AM,spatial_frequency,8,6,0,0-0;0-0;0-0;0-0,2,SimpleHill,0-0,0,3,selected,8-5,3-1;11-9;4-9;11-11;5-1;8-7,4-9,0.24,24,0,587.209768656
GEMS134,2018_Apr_05_1048,George,AM,spatial_frequency,8,6,0,0-0;0-0;0-0;0-0,2,SimpleHill,0-0,0,4,selected,4-9,8-4;6-7;3-7;10-10;3-3;1-2,3-3,0.36,11,-13,591.152688427
GEMS134,2018_Apr_05_1048,George,AM,spatial_frequency,8,6,0,0-0;0-0;0-0;0-0,2,SimpleHill,0-0,0,5,selected,3-3,4-6;6-6;4-4;2-0;7-6;3-1,6-6,0.31,22,11,595.026843942
GEMS134,2018_Apr_05_1048,George,AM,spatial_frequency,8,6,0,0-0;0-0;0-0;0-0,2,SimpleHill,0-0,0,6,selected,6-6,5-0;3-8;1-1;6-7;9-3;10-5,6-7,0.45,24,2,599.05618941
GEMS134,2018_Apr_05_1048,George,AM,spatial_frequency,8,6,0,0-0;0-0;0-0;0-0,2,SimpleHill,0-0,0,7,selected,6-7,3-9;2-12;1-2;8-0;10-1;0-11,3-9,0.44,22,-2,603.063739119
GEMS134,2018_Apr_05_1048,George,AM,spatial_frequency,8,6,0,0-0;0-0;0-0;0-0,2,SimpleHill,0-0,0,8,selected,3-9,9-7;7-7;4-5;4-12;2-13;5-6,5-6,0.34,20,-2,606.976420044
GEMS134,2018_Apr_05_1048,George,AM,spatial_frequency,8,6,0,0-0;0-0;0-0;0-0,2,SimpleHill,0-0,0,9,selected,5-6,0-12;2-5;3-0;5-6;0-9;8-9,8-9,1.72,31,11,612.268576426
GEMS134,2018_Apr_05_1048,George,AM,spatial_frequency,8,6,0,0-0;0-0;0-0;0-0,2,SimpleHill,0-0,0,10,selected,8-9,10-9;7-11;10-13;7-10;11-8;8-16,7-10,0.94,31,0,616.766297365
GEMS134,2018_Apr_05_1048,George,AM,spatial_frequency,8,6,0,0-0;0-0;0-0;0-0,2,SimpleHill,0-0,0,11,selected,7-10,5-8;10-14;10-12;1-5;10-5;6-4,10-5,0.76,27,-4,621.10347832
GEMS134,2018_Apr_05_1048,George,AM,spatial_frequency,8,6,0,0-0;0-0;0-0;0-0,2,SimpleHill,0-0,0,12,selected,10-5,3-5;10-5;13-8;17-7;7-10;9-11,13-8,0.46,37,10,625.120744446
GEMS134,2018_Apr_05_1048,George,AM,spatial_frequency,8,6,0,0-0;0-0;0-0;0-0,2,SimpleHill,0-0,0,13,selected,13-8,11-10;20-9;7-7;14-6;16-13;11-13,11-10,0.19,37,0,628.86306558
GEMS134,2018_Apr_05_1048,George,AM,spatial_frequency,8,6,0,0-0;0-0;0-0;0-0,2,SimpleHill,0-0,0,14,selected,11-10,11-9;7-10;6-7;7-9;6-4;14-10,14-10,0.46,42,5,632.878671704
GEMS134,2018_Apr_05_1048,George,AM,spatial_frequency,8,6,0,0-0;0-0;0-0;0-0,2,SimpleHill,0-0,0,15,selected,14-10,19-8;21-8;10-12;10-5;18-14;12-10,10-5,5.03,27,-15,641.47547737
GEMS134,2018_Apr_05_1048,George,AM,spatial_frequency,8,6,0,0-0;0-0;0-0;0-0,2,SimpleHill,0-0,0,16,selected,10-5,10-7;17-7;4-2;8-12;16-1;14-6,8-12,9.74,35,8,654.77128089
GEMS134,2018_Apr_05_1048,George,AM,spatial_frequency,8,6,0,0-0;0-0;0-0;0-0,2,SimpleHill,0-0,0,17,selected,8-12,7-18;9-18;8-5;11-7;4-9;12-16,9-18,4.81,45,10,663.149620978
GEMS134,2018_Apr_05_1048,George,AM,spatial_frequency,8,6,0,0-0;0-0;0-0;0-0,2,SimpleHill,0-0,0,18,selected,9-18,10-13;5-14;6-17;4-17;8-16;8-18,8-18,0.97,44,-1,667.70239916
GEMS134,2018_Apr_05_1048,George,AM,spatial_frequency,8,6,0,0-0;0-0;0-0;0-0,2,SimpleHill,0-0,0,19,selected,8-18,9-25;14-20;4-15;7-24;2-20;10-20,7-24,0.87,49,5,672.148389901
GEMS134,2018_Apr_05_1048,George,AM,spatial_frequency,8,6,0,0-0;0-0;0-0;0-0,2,SimpleHill,0-0,0,20,selected,7-24,8-20;4-29;14-25;3-28;2-29;7-32,3-28,0.71,46,-3,676.441723905
GEMS134,2018_Apr_05_1048,George,AM,spatial_frequency,8,6,0,0-0;0-0;0-0;0-0,2,SimpleHill,0-0,0,21,selected,3-28,4-31;7-28;1-28;1-22;6-26;3-26,4-31,2.48,50,4,682.48320089
GEMS134,2018_Apr_05_1048,George,AM,spatial_frequency,8,6,0,0-0;0-0;0-0;0-0,2,SimpleHill,0-0,0,22,selected,4-31,9-25;9-35;6-37;0-26;0-27;3-31,6-37,3.43,57,7,689.475294277
GEMS134,2018_Apr_05_1048,George,AM,spatial_frequency,8,6,0,0-0;0-0;0-0;0-0,2,SimpleHill,0-0,0,23,selected,6-37,2-43;0-37;2-39;12-33;9-39;12-38,0-37,15.44,46,-11,708.487323365
GEMS134,2018_Apr_05_1048,George,AM,spatial_frequency,8,6,0,0-0;0-0;0-0;0-0,2,SimpleHill,0-0,0,24,selected,0-37,6-36;1-41;4-39;5-32;6-38;1-39,1-39,0.56,49,3,712.61903355
GEMS134,2018_Apr_05_1048,George,AM,spatial_frequency,8,6,0,0-0;0-0;0-0;0-0,2,SimpleHill,0-0,0,25,selected,1-39,1-38;0-40;7-36;2-45;6-36;3-43,2-45,1.01,53,4,717.18098047
GEMS134,2018_Apr_05_1048,George,AM,spatial_frequency,8,6,0,0-0;0-0;0-0;0-0,2,SimpleHill,0-0,0,26,selected,2-45,1-50;5-48;6-43;7-43;2-50;3-50,1-50,0.71,51,-2,721.473227118
GEMS134,2018_Apr_05_1048,George,AM,spatial_frequency,8,6,0,0-0;0-0;0-0;0-0,2,SimpleHill,0-0,0,27,selected,1-50,6-56;2-43;0-57;3-52;7-55;6-55,6-55,0.43,60,9,725.474609599
GEMS134,2018_Apr_05_1048,George,AM,spatial_frequency,8,6,0,0-0;0-0;0-0;0-0,2,SimpleHill,0-0,0,28,selected,6-55,7-61;0-57;2-55;11-49;10-50;0-50,7-61,1.2,60,0,730.246466015
GEMS134,2018_Apr_05_1048,George,AM,spatial_frequency,8,6,0,0-0;0-0;0-0;0-0,2,SimpleHill,0-0,0,29,selected,7-61,12-60;6-56;12-66;13-62;10-57;12-64,12-66,0.33,66,6,734.138791278
GEMS134,2018_Apr_05_1048,George,AM,spatial_frequency,8,6,0,0-0;0-0;0-0;0-0,2,SimpleHill,0-0,0,30,selected,12-66,9-66;16-65;5-64;16-62;8-65;12-68,16-62,0.38,74,8,738.093545841
GEMS134,2018_Apr_05_1048,George,AM,spatial_frequency,8,6,0,0-0;0-0;0-0;0-0,2,SimpleHill,0-0,0,31,selected,16-62,16-58;23-62;11-58;20-58;16-70;15-69,15-69,0.59,68,-6,742.242530794
GEMS134,2018_Apr_05_1048,George,AM,spatial_frequency,8,6,0,0-0;0-0;0-0;0-0,2,SimpleHill,0-0,0,32,selected,15-69,11-67;17-68;17-69;8-69;20-68;14-69,17-68,0.55,71,3,746.345190958
GEMS134,2018_Apr_05_1048,George,AM,spatial_frequency,8,6,0,0-0;0-0;0-0;0-0,2,SimpleHill,0-0,0,33,selected,17-68,13-70;10-68;14-66;22-64;23-64;14-64,22-64,1.95,80,9,751.875191015
GEMS134,2018_Apr_05_1048,George,AM,spatial_frequency,8,6,0,0-0;0-0;0-0;0-0,2,SimpleHill,0-0,0,34,selected,22-64,23-62;25-61;27-62;17-59;26-67;26-70,26-70,1.0,80,0,756.445061832
GEMS134,2018_Apr_05_1048,George,AM,spatial_frequency,8,6,0,0-0;0-0;0-0;0-0,2,SimpleHill,0-0,0,35,selected,26-70,21-70;26-68;27-70;28-67;25-68;29-70,29-70,4.04,83,3,764.058895795
GEMS134,2018_Apr_05_1048,George,AM,spatial_frequency,8,6,0,0-0;0-0;0-0;0-0,2,SimpleHill,0-0,0,36,selected,29-70,26-67;26-66;25-70;28-67;34-69;32-70,32-70,1.79,85,2,769.421146099
GEMS134,2018_Apr_05_1048,George,AM,spatial_frequency,8,6,0,0-0;0-0;0-0;0-0,2,SimpleHill,0-0,0,37,selected,32-70,31-66;36-66;34-64;35-64;26-68;30-67,34-64,1.2,90,5,774.176750123
GEMS134,2018_Apr_05_1048,George,AM,spatial_frequency,8,6,0,0-0;0-0;0-0;0-0,2,SimpleHill,0-0,0,38,selected,34-64,31-61;28-68;30-59;37-68;37-64;35-65,31-61,0.43,90,0,778.162104917
GEMS134,2018_Apr_05_1048,George,AM,spatial_frequency,8,6,0,0-0;0-0;0-0;0-0,2,SimpleHill,0-0,0,39,selected,31-61,29-66;27-63;30-55;26-59;25-62;26-65,27-63,0.5,86,-4,782.229769975
GEMS134,2018_Apr_05_1048,George,AM,spatial_frequency,8,6,0,0-0;0-0;0-0;0-0,3,SimpleHill,0-0,0,0,selected,0-0,2-5;3-1;0-8;0-5;3-3;3-7,0-5,0.92,9,9,792.511192685
GEMS134,2018_Apr_05_1048,George,AM,spatial_frequency,8,6,0,0-0;0-0;0-0;0-0,3,SimpleHill,0-0,0,1,selected,0-5,1-8;4-5;4-7;1-11;2-6;0-13,4-5,0.3,17,8,796.423959074
GEMS134,2018_Apr_05_1048,George,AM,spatial_frequency,8,6,0,0-0;0-0;0-0;0-0,3,SimpleHill,0-0,0,2,selected,4-5,7-5;9-0;4-6;5-6;1-2;4-13,4-6,0.62,18,1,800.617354983
GEMS134,2018_Apr_05_1048,George,AM,spatial_frequency,8,6,0,0-0;0-0;0-0;0-0,3,SimpleHill,0-0,0,3,selected,4-6,8-10;5-5;6-4;11-3;8-0;5-10,8-0,0.53,14,-4,804.715292818
GEMS134,2018_Apr_05_1048,George,AM,spatial_frequency,8,6,0,0-0;0-0;0-0;0-0,3,SimpleHill,0-0,0,4,selected,8-0,13-1;7-0;0-0;4-0;5-0;6-0,7-0,0.24,13,-1,808.542532331
GEMS134,2018_Apr_05_1048,George,AM,spatial_frequency,8,6,0,0-0;0-0;0-0;0-0,3,SimpleHill,0-0,0,5,selected,7-0,4-0;6-6;5-2;2-1;0-3;13-5,4-0,0.33,7,-6,812.439178847
GEMS134,2018_Apr_05_1048,George,AM,spatial_frequency,8,6,0,0-0;0-0;0-0;0-0,3,SimpleHill,0-0,0,6,selected,4-0,7-6;1-0;11-0;7-3;4-4;10-0,10-0,0.38,18,11,816.367734453
GEMS134,2018_Apr_05_1048,George,AM,spatial_frequency,8,6,0,0-0;0-0;0-0;0-0,3,SimpleHill,0-0,0,7,selected,10-0,5-4;3-0;10-8;15-4;12-5;15-3,10-8,0.36,32,14,820.27114421
GEMS134,2018_Apr_05_1048,George,AM,spatial_frequency,8,6,0,0-0;0-0;0-0;0-0,3,SimpleHill,0-0,0,8,selected,10-8,14-11;13-14;14-2;7-4;14-4;5-7,14-4,0.56,31,-1,824.394721478
GEMS134,2018_Apr_05_1048,George,AM,spatial_frequency,8,6,0,0-0;0-0;0-0;0-0,3,SimpleHill,0-0,0,9,selected,14-4,17-9;20-4;19-1;6-4;8-4;12-3,20-4,0.3,39,8,828.260713026
GEMS134,2018_Apr_05_1048,George,AM,spatial_frequency,8,6,0,0-0;0-0;0-0;0-0,3,SimpleHill,0-0,0,10,selected,20-4,18-11;15-9;16-0;17-4;18-5;13-4,17-4,0.39,35,-4,832.238995049
GEMS134,2018_Apr_05_1048,George,AM,spatial_frequency,8,6,0,0-0;0-0;0-0;0-0,3,SimpleHill,0-0,0,11,selected,17-4,23-4;13-0;22-7;13-10;17-8;19-2,23-4,0.25,43,8,836.059295591
GEMS134,2018_Apr_05_1048,George,AM,spatial_frequency,8,6,0,0-0;0-0;0-0;0-0,3,SimpleHill,0-0,0,12,selected,23-4,24-5;20-9;25-0;24-9;26-3;28-1,28-1,0.93,42,-1,840.557994094
GEMS134,2018_Apr_05_1048,George,AM,spatial_frequency,8,6,0,0-0;0-0;0-0;0-0,3,SimpleHill,0-0,0,13,selected,28-1,27-5;30-7;22-4;25-5;27-4;30-0,22-4,0.26,42,0,844.396018814
GEMS134,2018_Apr_05_1048,George,AM,spatial_frequency,8,6,0,0-0;0-0;0-0;0-0,3,SimpleHill,0-0,0,14,selected,22-4,21-8;26-8;21-7;27-7;17-1;22-10,21-8,0.19,47,5,848.115679298
GEMS134,2018_Apr_05_1048,George,AM,spatial_frequency,8,6,0,0-0;0-0;0-0;0-0,3,SimpleHill,0-0,0,15,selected,21-8,19-8;18-2;21-12;21-13;15-6;22-8,21-13,0.51,55,8,852.189994923
GEMS134,2018_Apr_05_1048,George,AM,spatial_frequency,8,6,0,0-0;0-0;0-0;0-0,3,SimpleHill,0-0,0,16,selected,21-13,26-13;20-19;20-20;14-10;15-8;23-14,20-19,0.41,62,7,856.156522819
GEMS134,2018_Apr_05_1048,George,AM,spatial_frequency,8,6,0,0-0;0-0;0-0;0-0,3,SimpleHill,0-0,0,17,selected,20-19,20-23;15-21;20-27;26-15;17-19;19-16,17-19,0.43,59,-3,860.191601149
GEMS134,2018_Apr_05_1048,George,AM,spatial_frequency,8,6,0,0-0;0-0;0-0;0-0,3,SimpleHill,0-0,0,18,selected,17-19,12-19;16-24;22-25;21-24;17-17;12-18,22-25,0.26,71,12,863.998763481
GEMS134,2018_Apr_05_1048,George,AM,spatial_frequency,8,6,0,0-0;0-0;0-0;0-0,3,SimpleHill,0-0,0,19,selected,22-25,23-32;25-22;21-30;24-30;23-23;25-19,21-30,0.2,75,4,867.786192413
GEMS134,2018_Apr_05_1048,George,AM,spatial_frequency,8,6,0,0-0;0-0;0-0;0-0,3,SimpleHill,0-0,0,20,selected,21-30,18-24;28-32;23-31;26-34;16-31;21-31,23-31,0.2,78,3,871.532171247
GEMS134,2018_Apr_05_1048,George,AM,spatial_frequency,8,6,0,0-0;0-0;0-0;0-0,3,SimpleHill,0-0,0,21,selected,23-31,28-35;30-34;22-36;19-36;29-26;22-32,22-36,0.4,80,2,875.623350322
GEMS134,2018_Apr_05_1048,George,AM,spatial_frequency,8,6,0,0-0;0-0;0-0;0-0,3,SimpleHill,0-0,0,22,selected,22-36,16-32;16-35;20-42;21-39;19-36;20-36,20-36,0.27,78,-2,879.452386836
GEMS134,2018_Apr_05_1048,George,AM,spatial_frequency,8,6,0,0-0;0-0;0-0;0-0,3,SimpleHill,0-0,0,23,selected,20-36,21-36;17-37;21-32;22-30;25-37;26-36,21-36,0.21,79,1,883.226361627
GEMS134,2018_Apr_05_1048,George,AM,spatial_frequency,8,6,0,0-0;0-0;0-0;0-0,3,SimpleHill,0-0,0,24,selected,21-36,15-38;19-40;20-30;23-42;21-35;22-34,20-30,0.15,74,-5,886.945207795
GEMS134,2018_Apr_05_1048,George,AM,spatial_frequency,8,6,0,0-0;0-0;0-0;0-0,3,SimpleHill,0-0,0,25,selected,20-30,21-29;20-37;22-25;15-31;14-35;22-32,15-31,0.27,68,-6,890.794580445
GEMS134,2018_Apr_05_1048,George,AM,spatial_frequency,8,6,0,0-0;0-0;0-0;0-0,3,SimpleHill,0-0,0,26,selected,15-31,10-29;18-27;15-30;9-27;16-30;17-26,18-27,0.8,68,0,895.173791506
GEMS134,2018_Apr_05_1048,George,AM,spatial_frequency,8,6,0,0-0;0-0;0-0;0-0,3,SimpleHill,0-0,0,27,selected,18-27,17-34;19-26;17-32;20-24;13-32;11-24,13-32,0.24,66,-2,898.967139593
GEMS134,2018_Apr_05_1048,George,AM,spatial_frequency,8,6,0,0-0;0-0;0-0;0-0,3,SimpleHill,0-0,0,28,selected,13-32,7-32;18-34;19-30;12-36;19-29;17-32,17-32,0.24,71,5,902.789477845
GEMS134,2018_Apr_05_1048,George,AM,spatial_frequency,8,6,0,0-0;0-0;0-0;0-0,3,SimpleHill,0-0,0,29,selected,17-32,14-39;12-35;21-26;18-31;12-30;14-26,14-26,0.48,62,-9,906.844512361
GEMS134,2018_Apr_05_1048,George,AM,spatial_frequency,8,6,0,0-0;0-0;0-0;0-0,3,SimpleHill,0-0,0,30,selected,14-26,21-26;8-27;12-29;17-23;18-20;11-29,21-26,0.42,71,9,910.828763155
GEMS134,2018_Apr_05_1048,George,AM,spatial_frequency,8,6,0,0-0;0-0;0-0;0-0,3,SimpleHill,0-0,0,31,selected,21-26,23-31;15-21;19-23;22-20;21-28;15-26,22-20,0.52,66,-5,914.915670911
GEMS134,2018_Apr_05_1048,George,AM,spatial_frequency,8,6,0,0-0;0-0;0-0;0-0,3,SimpleHill,0-0,0,32,selected,22-20,24-27;22-13;23-18;25-22;27-20;26-20,22-13,0.18,56,-10,918.666399923
GEMS134,2018_Apr_05_1048,George,AM,spatial_frequency,8,6,0,0-0;0-0;0-0;0-0,3,SimpleHill,0-0,0,33,selected,22-13,17-13;26-7;25-7;21-19;22-11;19-7,22-11,0.59,53,-3,922.82267659
GEMS134,2018_Apr_05_1048,George,AM,spatial_frequency,8,6,0,0-0;0-0;0-0;0-0,3,SimpleHill,0-0,0,34,selected,22-11,23-17;26-14;21-10;19-18;23-13;17-5,21-10,0.65,51,-2,927.031434713
GEMS134,2018_Apr_05_1048,George,AM,spatial_frequency,8,6,0,0-0;0-0;0-0;0-0,3,SimpleHill,0-0,0,35,selected,21-10,21-15;18-9;14-12;23-13;22-9;26-10,26-10,0.58,56,5,931.178839369
GEMS134,2018_Apr_05_1048,George,AM,spatial_frequency,8,6,0,0-0;0-0;0-0;0-0,3,SimpleHill,0-0,0,36,selected,26-10,27-7;21-11;28-12;18-10;28-10;28-14,27-7,0.2,52,-4,934.941908918
GEMS134,2018_Apr_05_1048,George,AM,spatial_frequency,8,6,0,0-0;0-0;0-0;0-0,3,SimpleHill,0-0,0,37,selected,27-7,28-1;24-6;22-4;25-1;21-8;23-11,24-6,0.27,47,-5,938.765817866
GEMS134,2018_Apr_05_1048,George,AM,spatial_frequency,8,6,0,0-0;0-0;0-0;0-0,3,SimpleHill,0-0,0,38,selected,24-6,29-10;28-9;21-8;28-6;18-5;19-8,28-9,0.08,56,9,942.418982591
GEMS134,2018_Apr_05_1048,George,AM,spatial_frequency,8,6,0,0-0;0-0;0-0;0-0,3,SimpleHill,0-0,0,39,selected,28-9,29-16;28-6;27-4;24-8;22-13;23-4,24-8,0.25,51,-5,946.229631695
GEMS134,2018_Apr_05_1048,George,AM,spatial_frequency,8,6,0,0-0;0-0;0-0;0-0,4,SimpleHill,0-0,0,0,selected,0-0,2-3;1-3;3-5;0-8;4-4;6-0,1-3,1.18,7,7,957.961194509
GEMS134,2018_Apr_05_1048,George,AM,spatial_frequency,8,6,0,0-0;0-0;0-0;0-0,4,SimpleHill,0-0,0,1,selected,1-3,4-5;3-9;4-0;0-8;8-1;2-1,4-5,0.54,17,10,962.075456116
GEMS134,2018_Apr_05_1048,George,AM,spatial_frequency,8,6,0,0-0;0-0;0-0;0-0,4,SimpleHill,0-0,0,2,selected,4-5,6-0;1-9;0-0;9-2;7-12;1-2,0-0,0.56,0,-17,966.206832125
GEMS134,2018_Apr_05_1048,George,AM,spatial_frequency,8,6,0,0-0;0-0;0-0;0-0,4,SimpleHill,0-0,0,3,selected,0-0,5-1;4-0;3-5;6-3;3-1;2-6,6-3,0.49,17,17,970.255751267
GEMS134,2018_Apr_05_1048,George,AM,spatial_frequency,8,6,0,0-0;0-0;0-0;0-0,4,SimpleHill,0-0,0,4,selected,6-3,10-0;2-3;6-3;7-4;5-6;5-5,10-0,6.59,18,1,980.417393651
GEMS134,2018_Apr_05_1048,George,AM,spatial_frequency,8,6,0,0-0;0-0;0-0;0-0,4,SimpleHill,0-0,0,5,selected,10-0,17-2;13-5;16-4;11-1;4-1;10-0,10-0,1.5,18,0,985.48513265
GEMS134,2018_Apr_05_1048,George,AM,spatial_frequency,8,6,0,0-0;0-0;0-0;0-0,4,SimpleHill,0-0,0,6,selected,10-0,15-1;13-0;3-2;14-2;11-3;10-4,14-2,0.65,28,10,989.709036604
GEMS134,2018_Apr_05_1048,George,AM,spatial_frequency,8,6,0,0-0;0-0;0-0;0-0,4,SimpleHill,0-0,0,7,selected,14-2,10-5;14-5;18-0;19-3;13-8;8-4,14-5,0.67,33,5,993.963352255
GEMS134,2018_Apr_05_1048,George,AM,spatial_frequency,8,6,0,0-0;0-0;0-0;0-0,4,SimpleHill,0-0,0,8,selected,14-5,11-1;15-1;7-8;19-9;15-2;17-3,7-8,1.26,27,-6,998.776337076
GEMS134,2018_Apr_05_1048,George,AM,spatial_frequency,8,6,0,0-0;0-0;0-0;0-0,4,SimpleHill,0-0,0,9,selected,7-8,10-7;9-10;6-12;5-12;10-6;6-4,9-10,0.78,34,7,1003.12556152
GEMS134,2018_Apr_05_1048,George,AM,spatial_frequency,8,6,0,0-0;0-0;0-0;0-0,4,SimpleHill,0-0,0,10,selected,9-10,5-11;10-3;12-6;5-9;7-15;3-9,5-9,1.58,25,-9,1008.26800602
GEMS134,2018_Apr_05_1048,George,AM,spatial_frequency,8,6,0,0-0;0-0;0-0;0-0,4,SimpleHill,0-0,0,11,selected,5-9,11-5;5-9;12-9;8-11;5-16;2-4,11-5,0.69,29,4,1012.53026477
GEMS134,2018_Apr_05_1048,George,AM,spatial_frequency,8,6,0,0-0;0-0;0-0;0-0,4,SimpleHill,0-0,0,12,selected,11-5,17-7;15-3;14-12;4-4;18-8;8-5,18-8,1.0,44,15,1017.10484
GEMS134,2018_Apr_05_1048,George,AM,spatial_frequency,8,6,0,0-0;0-0;0-0;0-0,4,SimpleHill,0-0,0,13,selected,18-8,13-4;12-3;18-13;23-11;15-15;12-8,12-8,0.68,35,-9,1021.34123333
GEMS134,2018_Apr_05_1048,George,AM,spatial_frequency,8,6,0,0-0;0-0;0-0;0-0,4,SimpleHill,0-0,0,14,selected,12-8,11-12;8-7;14-11;11-9;8-14;16-10,11-9,0.91,35,0,1025.81602602
GEMS134,2018_Apr_05_1048,George,AM,spatial_frequency,8,6,0,0-0;0-0;0-0;0-0,4,SimpleHill,0-0,0,15,selected,11-9,17-11;11-4;11-10;9-11;8-3;8-5,11-4,0.72,27,-8,1030.0847036
GEMS134,2018_Apr_05_1048,George,AM,spatial_frequency,8,6,0,0-0;0-0;0-0;0-0,4,SimpleHill,0-0,0,16,selected,11-4,14-10;11-11;3-4;9-9;11-2;18-4,14-10,0.7,42,15,1034.34202492
GEMS134,2018_Apr_05_1048,George,AM,spatial_frequency,8,6,0,0-0;0-0;0-0;0-0,4,SimpleHill,0-0,0,17,selected,14-10,21-8;17-4;11-13;13-3;12-6;17-9,21-8,0.7,47,5,1038.62117337
GEMS134,2018_Apr_05_1048,George,AM,spatial_frequency,8,6,0,0-0;0-0;0-0;0-0,4,SimpleHill,0-0,0,18,selected,21-8,27-5;25-4;20-11;18-15;29-8;22-12,22-12,0.59,55,8,1042.7987106
GEMS134,2018_Apr_05_1048,George,AM,spatial_frequency,8,6,0,0-0;0-0;0-0;0-0,4,SimpleHill,0-0,0,19,selected,22-12,24-16;23-18;18-6;25-13;22-19;30-12,25-13,0.52,60,5,1046.86310367
GEMS134,2018_Apr_05_1048,George,AM,spatial_frequency,8,6,0,0-0;0-0;0-0;0-0,4,SimpleHill,0-0,0,20,selected,25-13,28-8;29-16;25-13;26-9;20-16;30-18,20-16,1.01,58,-2,1051.44610341
GEMS134,2018_Apr_05_1048,George,AM,spatial_frequency,8,6,0,0-0;0-0;0-0;0-0,4,SimpleHill,0-0,0,21,selected,20-16,13-19;25-15;19-13;15-11;21-19;14-15,25-15,0.39,63,5,1055.40452752
GEMS134,2018_Apr_05_1048,George,AM,spatial_frequency,8,6,0,0-0;0-0;0-0;0-0,4,SimpleHill,0-0,0,22,selected,25-15,21-21;22-10;20-18;25-10;20-10;29-17,29-17,0.76,69,6,1059.74080806
GEMS134,2018_Apr_05_1048,George,AM,spatial_frequency,8,6,0,0-0;0-0;0-0;0-0,4,SimpleHill,0-0,0,23,selected,29-17,35-14;24-11;28-20;30-13;28-22;22-16,35-14,1.41,69,0,1064.71864451
GEMS134,2018_Apr_05_1048,George,AM,spatial_frequency,8,6,0,0-0;0-0;0-0;0-0,4,SimpleHill,0-0,0,24,selected,35-14,39-12;30-9;42-16;38-16;32-12;39-19,38-16,1.46,74,5,1069.74379772
GEMS134,2018_Apr_05_1048,George,AM,spatial_frequency,8,6,0,0-0;0-0;0-0;0-0,4,SimpleHill,0-0,0,25,selected,38-16,36-15;32-20;41-10;42-13;38-12;36-11,36-11,0.94,65,-9,1074.25536107
GEMS134,2018_Apr_05_1048,George,AM,spatial_frequency,8,6,0,0-0;0-0;0-0;0-0,4,SimpleHill,0-0,0,26,selected,36-11,32-10;41-10;41-15;34-17;35-14;38-5,32-10,0.68,61,-4,1078.5122189
GEMS134,2018_Apr_05_1048,George,AM,spatial_frequency,8,6,0,0-0;0-0;0-0;0-0,4,SimpleHill,0-0,0,27,selected,32-10,29-12;28-5;34-4;37-10;36-9;27-13,28-5,0.29,49,-12,1082.37835897
GEMS134,2018_Apr_05_1048,George,AM,spatial_frequency,8,6,0,0-0;0-0;0-0;0-0,4,SimpleHill,0-0,0,28,selected,28-5,35-2;23-10;35-3;32-7;33-2;34-2,35-3,29.02,51,2,1114.97520209
GEMS134,2018_Apr_05_1048,George,AM,spatial_frequency,8,6,0,0-0;0-0;0-0;0-0,4,SimpleHill,0-0,0,29,selected,35-3,35-0;38-8;39-2;30-6;31-0;34-0,31-0,0.8,42,-9,1119.31888189
GEMS134,2018_Apr_05_1048,George,AM,spatial_frequency,8,6,0,0-0;0-0;0-0;0-0,4,SimpleHill,0-0,0,30,selected,31-0,36-0;29-1;30-3;36-5;36-3;32-5,36-0,0.76,46,4,1123.64883131
GEMS134,2018_Apr_05_1048,George,AM,spatial_frequency,8,6,0,0-0;0-0;0-0;0-0,4,SimpleHill,0-0,0,31,selected,36-0,32-2;39-4;31-3;39-0;30-5;38-5,39-0,0.61,47,1,1127.84391827
GEMS134,2018_Apr_05_1048,George,AM,spatial_frequency,8,6,0,0-0;0-0;0-0;0-0,4,SimpleHill,0-0,0,32,selected,39-0,42-6;35-4;39-3;39-2;40-6;34-0,35-4,0.57,53,6,1131.99750296
GEMS134,2018_Apr_05_1048,George,AM,spatial_frequency,8,6,0,0-0;0-0;0-0;0-0,4,SimpleHill,0-0,0,33,selected,35-4,40-1;37-11;41-5;33-5;33-6;37-6,33-5,0.9,53,0,1136.46911521
GEMS134,2018_Apr_05_1048,George,AM,spatial_frequency,8,6,0,0-0;0-0;0-0;0-0,4,SimpleHill,0-0,0,34,selected,33-5,33-5;27-6;39-2;37-1;34-9;33-0,33-5,0.77,53,0,1140.80078064
GEMS134,2018_Apr_05_1048,George,AM,spatial_frequency,8,6,0,0-0;0-0;0-0;0-0,4,SimpleHill,0-0,0,35,selected,33-5,28-2;34-7;32-2;34-10;38-7;37-6,34-7,0.57,57,4,1144.94585502
GEMS134,2018_Apr_05_1048,George,AM,spatial_frequency,8,6,0,0-0;0-0;0-0;0-0,4,SimpleHill,0-0,0,36,selected,34-7,37-9;37-1;39-2;37-10;31-12;38-7,39-2,0.46,51,-6,1148.96274568
GEMS134,2018_Apr_05_1048,George,AM,spatial_frequency,8,6,0,0-0;0-0;0-0;0-0,4,SimpleHill,0-0,0,37,selected,39-2,33-3;42-0;38-8;41-6;43-4;34-3,43-4,0.2,56,5,1152.7272198
GEMS134,2018_Apr_05_1048,George,AM,spatial_frequency,8,6,0,0-0;0-0;0-0;0-0,4,SimpleHill,0-0,0,38,selected,43-4,49-9;40-5;48-1;47-0;48-5;37-3,40-5,1.92,57,1,1158.22054042
GEMS134,2018_Apr_05_1048,George,AM,spatial_frequency,8,6,0,0-0;0-0;0-0;0-0,4,SimpleHill,0-0,0,39,selected,40-5,38-4;42-5;43-12;38-5;34-6;39-2,43-12,1.06,70,13,1162.85347912
