subj_id,date,computer,experimenter,instructions,sight_radius,n_gabors,landscape_ix,landscape_name,starting_pos,starting_score,trial,feedback,pos,stims,selected,rt,score,delta,exp_time
GEMS112,2018_Feb_27_1548,Kramer,GH,spatial_frequency,8,6,0,SpatialFrequencyBias,0-0,0,0,training,0-0,4-5;1-3;2-1;0-8;1-5;5-3,1-3,7.63,11,11,237.142292133
GEMS112,2018_Feb_27_1548,Kramer,GH,spatial_frequency,8,6,0,SpatialFrequencyBias,0-0,0,1,training,1-3,1-2;3-2;0-2;3-8;5-1;4-6,5-1,11.6,3,-8,262.066911879
GEMS112,2018_Feb_27_1548,Kramer,GH,spatial_frequency,8,6,0,SpatialFrequencyBias,0-0,0,2,training,5-1,8-0;7-0;4-8;5-2;7-3;8-6,8-0,7.77,0,-3,276.162626989
GEMS112,2018_Feb_27_1548,Kramer,GH,spatial_frequency,8,6,0,SpatialFrequencyBias,0-0,0,3,training,8-0,11-6;11-1;12-4;4-5;15-1;10-6,12-4,10.82,15,15,290.944958762
GEMS112,2018_Feb_27_1548,Kramer,GH,spatial_frequency,8,6,0,SpatialFrequencyBias,0-0,0,4,training,12-4,14-4;12-7;13-6;11-10;14-7;9-11,14-7,3.92,26,11,300.957896913
GEMS112,2018_Feb_27_1548,Kramer,GH,spatial_frequency,8,6,0,SpatialFrequencyBias,0-0,0,5,training,14-7,19-6;12-13;15-1;17-13;21-8;11-8,19-6,4.38,22,-4,309.446583233
GEMS112,2018_Feb_27_1548,Kramer,GH,spatial_frequency,8,6,0,SpatialFrequencyBias,0-0,0,6,training,19-6,20-11;14-12;22-12;13-9;18-9;23-4,13-9,4.82,32,10,320.335174614
GEMS112,2018_Feb_27_1548,Kramer,GH,spatial_frequency,8,6,0,SpatialFrequencyBias,0-0,0,7,training,13-9,9-6;9-12;20-8;16-4;8-15;11-10,20-8,6.0,29,-3,329.856882027
GEMS112,2018_Feb_27_1548,Kramer,GH,spatial_frequency,8,6,0,SpatialFrequencyBias,0-0,0,8,training,20-8,14-12;19-15;16-2;25-8;17-4;23-6,25-8,5.08,29,0,338.514342718
GEMS112,2018_Feb_27_1548,Kramer,GH,spatial_frequency,8,6,0,SpatialFrequencyBias,0-0,0,9,training,25-8,20-8;25-11;24-4;28-9;23-11;24-10,23-11,4.13,39,10,346.46185326
GEMS112,2018_Feb_27_1548,Kramer,GH,spatial_frequency,8,6,0,SpatialFrequencyBias,0-0,0,10,training,23-11,23-15;16-13;17-12;21-6;18-8;19-7,17-12,7.72,42,3,360.603542339
GEMS112,2018_Feb_27_1548,Kramer,GH,spatial_frequency,8,6,0,SpatialFrequencyBias,0-0,0,11,training,17-12,17-15;12-10;10-11;17-10;14-10;15-13,12-10,2.42,36,-6,366.651062036
GEMS112,2018_Feb_27_1548,Kramer,GH,spatial_frequency,8,6,0,SpatialFrequencyBias,0-0,0,12,training,12-10,5-13;19-11;9-8;8-7;13-11;12-12,19-11,3.56,39,3,372.706858692
GEMS112,2018_Feb_27_1548,Kramer,GH,spatial_frequency,8,6,0,SpatialFrequencyBias,0-0,0,13,training,19-11,18-8;17-14;13-15;15-10;18-15;22-7,22-7,7.36,26,-13,383.062505802
GEMS112,2018_Feb_27_1548,Kramer,GH,spatial_frequency,8,6,0,SpatialFrequencyBias,0-0,0,14,training,22-7,16-7;19-9;27-7;21-13;28-8;27-13,19-9,6.64,32,6,394.174627588
GEMS112,2018_Feb_27_1548,Kramer,GH,spatial_frequency,8,6,0,SpatialFrequencyBias,0-0,0,15,training,19-9,13-6;17-4;24-14;21-9;13-13;19-4,19-4,5.36,15,-17,402.494720069
GEMS112,2018_Feb_27_1548,Kramer,GH,spatial_frequency,8,6,0,SpatialFrequencyBias,0-0,0,16,training,19-4,16-4;24-1;27-4;20-1;16-8;12-1,16-8,3.07,29,14,409.93118773
GEMS112,2018_Feb_27_1548,Kramer,GH,spatial_frequency,8,6,0,SpatialFrequencyBias,0-0,0,17,training,16-8,16-6;20-9;9-6;12-7;15-9;16-16,15-9,2.74,32,3,417.097621262
GEMS112,2018_Feb_27_1548,Kramer,GH,spatial_frequency,8,6,0,SpatialFrequencyBias,0-0,0,18,training,15-9,20-13;15-14;10-10;12-4;18-8;14-16,15-14,1.5,48,16,421.042413897
GEMS112,2018_Feb_27_1548,Kramer,GH,spatial_frequency,8,6,0,SpatialFrequencyBias,0-0,0,19,training,15-14,17-18;12-20;12-13;8-14;11-10;13-13,13-13,2.31,45,-3,426.426489408
GEMS112,2018_Feb_27_1548,Kramer,GH,spatial_frequency,8,6,1,SimpleHill,0-0,0,0,selected,0-0,0-4;1-2;3-4;4-3;1-1;2-4,0-4,3.0,7,7,453.877312911
GEMS112,2018_Feb_27_1548,Kramer,GH,spatial_frequency,8,6,1,SimpleHill,0-0,0,1,selected,0-4,4-10;4-9;3-2;4-3;1-2;6-5,4-10,3.77,25,18,461.217566437
GEMS112,2018_Feb_27_1548,Kramer,GH,spatial_frequency,8,6,1,SimpleHill,0-0,0,2,selected,4-10,5-11;0-6;9-9;4-12;4-7;4-5,4-12,2.41,28,3,467.193802427
GEMS112,2018_Feb_27_1548,Kramer,GH,spatial_frequency,8,6,1,SimpleHill,0-0,0,3,selected,4-12,7-10;1-5;7-16;0-13;12-12;8-12,12-12,1.53,42,14,472.302812912
GEMS112,2018_Feb_27_1548,Kramer,GH,spatial_frequency,8,6,1,SimpleHill,0-0,0,4,selected,12-12,6-12;16-8;15-14;8-11;9-12;10-6,6-12,2.05,32,-10,477.931898976
GEMS112,2018_Feb_27_1548,Kramer,GH,spatial_frequency,8,6,1,SimpleHill,0-0,0,5,selected,6-12,14-12;9-17;8-14;3-15;11-18;3-12,3-15,1.4,31,-1,482.905338636
GEMS112,2018_Feb_27_1548,Kramer,GH,spatial_frequency,8,6,1,SimpleHill,0-0,0,6,selected,3-15,7-9;0-13;6-9;2-9;2-21;9-12,9-12,1.03,37,6,487.517768671
GEMS112,2018_Feb_27_1548,Kramer,GH,spatial_frequency,8,6,1,SimpleHill,0-0,0,7,selected,9-12,7-14;9-13;15-17;14-9;16-12;16-13,9-13,1.58,39,2,492.669720885
GEMS112,2018_Feb_27_1548,Kramer,GH,spatial_frequency,8,6,1,SimpleHill,0-0,0,8,selected,9-13,10-8;10-7;9-15;14-18;6-7;15-8,14-18,1.26,53,14,497.49806856
GEMS112,2018_Feb_27_1548,Kramer,GH,spatial_frequency,8,6,1,SimpleHill,0-0,0,9,selected,14-18,13-23;16-12;14-11;21-17;12-18;14-23,12-18,1.12,50,-3,502.163070958
GEMS112,2018_Feb_27_1548,Kramer,GH,spatial_frequency,8,6,1,SimpleHill,0-0,0,10,selected,12-18,6-16;4-18;16-13;12-18;14-25;15-13,12-18,2.57,50,0,508.293502052
GEMS112,2018_Feb_27_1548,Kramer,GH,spatial_frequency,8,6,1,SimpleHill,0-0,0,11,selected,12-18,16-18;7-16;13-12;5-15;14-14;12-22,14-14,3.63,48,-2,515.514012062
GEMS112,2018_Feb_27_1548,Kramer,GH,spatial_frequency,8,6,1,SimpleHill,0-0,0,12,selected,14-14,9-20;12-14;9-13;16-8;11-8;14-19,12-14,0.75,45,-3,519.805781452
GEMS112,2018_Feb_27_1548,Kramer,GH,spatial_frequency,8,6,1,SimpleHill,0-0,0,13,selected,12-14,17-10;5-12;9-9;8-18;13-18;9-8,17-10,0.61,46,1,523.981447741
GEMS112,2018_Feb_27_1548,Kramer,GH,spatial_frequency,8,6,1,SimpleHill,0-0,0,14,selected,17-10,23-14;14-17;21-4;17-8;15-4;22-8,14-17,1.0,52,6,528.533232675
GEMS112,2018_Feb_27_1548,Kramer,GH,spatial_frequency,8,6,1,SimpleHill,0-0,0,15,selected,14-17,20-13;13-13;19-22;11-23;14-10;13-14,13-14,0.74,46,-6,532.82991901
GEMS112,2018_Feb_27_1548,Kramer,GH,spatial_frequency,8,6,1,SimpleHill,0-0,0,16,selected,13-14,13-12;9-9;11-20;11-11;6-11;16-8,11-20,0.81,51,5,537.218974845
GEMS112,2018_Feb_27_1548,Kramer,GH,spatial_frequency,8,6,1,SimpleHill,0-0,0,17,selected,11-20,15-14;6-21;11-26;18-23;17-20;9-25,18-23,0.77,64,13,541.553064665
GEMS112,2018_Feb_27_1548,Kramer,GH,spatial_frequency,8,6,1,SimpleHill,0-0,0,18,selected,18-23,18-16;16-16;24-23;16-27;18-29;13-23,18-16,0.7,56,-8,545.821195521
GEMS112,2018_Feb_27_1548,Kramer,GH,spatial_frequency,8,6,1,SimpleHill,0-0,0,19,selected,18-16,16-16;18-10;18-12;21-21;20-17;22-17,20-17,0.84,60,4,550.239772875
GEMS112,2018_Feb_27_1548,Kramer,GH,spatial_frequency,8,6,1,SimpleHill,0-0,0,20,selected,20-17,18-22;21-24;26-22;18-15;25-19;24-20,21-24,1.15,69,9,554.977732744
GEMS112,2018_Feb_27_1548,Kramer,GH,spatial_frequency,8,6,1,SimpleHill,0-0,0,21,selected,21-24,25-23;17-23;15-27;16-28;19-31;15-29,16-28,0.95,67,-2,559.49906949
GEMS112,2018_Feb_27_1548,Kramer,GH,spatial_frequency,8,6,1,SimpleHill,0-0,0,22,selected,16-28,16-20;15-23;20-26;16-27;10-27;21-27,15-23,0.81,60,-7,563.874142711
GEMS112,2018_Feb_27_1548,Kramer,GH,spatial_frequency,8,6,1,SimpleHill,0-0,0,23,selected,15-23,9-23;18-24;12-29;19-27;20-27;15-21,9-23,0.49,51,-9,567.944549684
GEMS112,2018_Feb_27_1548,Kramer,GH,spatial_frequency,8,6,1,SimpleHill,0-0,0,24,selected,9-23,10-17;3-26;13-20;13-26;6-30;4-18,6-30,1.03,53,2,572.550039788
GEMS112,2018_Feb_27_1548,Kramer,GH,spatial_frequency,8,6,1,SimpleHill,0-0,0,25,selected,6-30,4-25;12-28;5-24;0-34;4-32;3-28,12-28,0.63,61,8,576.737434277
GEMS112,2018_Feb_27_1548,Kramer,GH,spatial_frequency,8,6,1,SimpleHill,0-0,0,26,selected,12-28,14-22;11-30;14-27;13-24;18-32;12-22,14-27,0.84,63,2,581.138822647
GEMS112,2018_Feb_27_1548,Kramer,GH,spatial_frequency,8,6,1,SimpleHill,0-0,0,27,selected,14-27,14-19;12-28;18-26;20-27;16-23;17-21,20-27,1.45,71,8,586.154717176
GEMS112,2018_Feb_27_1548,Kramer,GH,spatial_frequency,8,6,1,SimpleHill,0-0,0,28,selected,20-27,27-26;25-31;18-26;24-27;19-33;24-23,25-31,1.57,80,9,591.298341215
GEMS112,2018_Feb_27_1548,Kramer,GH,spatial_frequency,8,6,1,SimpleHill,0-0,0,29,selected,25-31,31-31;18-32;28-35;20-33;20-30;27-28,20-33,2.37,76,-4,597.238231628
GEMS112,2018_Feb_27_1548,Kramer,GH,spatial_frequency,8,6,1,SimpleHill,0-0,0,30,selected,20-33,16-30;17-38;16-33;24-39;12-33;17-30,16-30,0.77,68,-8,601.584798985
GEMS112,2018_Feb_27_1548,Kramer,GH,spatial_frequency,8,6,1,SimpleHill,0-0,0,31,selected,16-30,16-27;20-35;16-34;19-32;14-30;13-31,16-34,0.69,71,3,605.857006223
GEMS112,2018_Feb_27_1548,Kramer,GH,spatial_frequency,8,6,1,SimpleHill,0-0,0,32,selected,16-34,16-30;10-30;12-29;20-34;22-31;16-33,16-33,1.31,71,0,610.733802184
GEMS112,2018_Feb_27_1548,Kramer,GH,spatial_frequency,8,6,1,SimpleHill,0-0,0,33,selected,16-33,13-39;18-28;15-39;20-27;17-34;15-32,13-39,1.92,70,-1,616.214361348
GEMS112,2018_Feb_27_1548,Kramer,GH,spatial_frequency,8,6,1,SimpleHill,0-0,0,34,selected,13-39,18-36;20-38;6-37;14-45;11-42;13-46,11-42,0.98,68,-2,620.763784316
GEMS112,2018_Feb_27_1548,Kramer,GH,spatial_frequency,8,6,1,SimpleHill,0-0,0,35,selected,11-42,13-48;17-45;16-48;13-43;11-48;16-43,17-45,2.16,77,9,626.483691592
GEMS112,2018_Feb_27_1548,Kramer,GH,spatial_frequency,8,6,1,SimpleHill,0-0,0,36,selected,17-45,9-45;22-49;16-51;19-52;24-43;16-49,16-49,4.59,76,-1,634.62085968
GEMS112,2018_Feb_27_1548,Kramer,GH,spatial_frequency,8,6,1,SimpleHill,0-0,0,37,selected,16-49,11-43;22-53;19-44;22-44;19-45;15-48,19-44,1.91,80,4,640.089584052
GEMS112,2018_Feb_27_1548,Kramer,GH,spatial_frequency,8,6,1,SimpleHill,0-0,0,38,selected,19-44,24-40;18-43;15-39;20-49;21-46;17-39,24-40,1.48,84,4,645.142987695
GEMS112,2018_Feb_27_1548,Kramer,GH,spatial_frequency,8,6,1,SimpleHill,0-0,0,39,selected,24-40,27-38;21-45;29-43;26-34;27-44;17-37,27-38,3.83,86,2,652.523010511
GEMS112,2018_Feb_27_1548,Kramer,GH,spatial_frequency,8,6,2,SimpleHill,0-0,0,0,selected,0-0,5-1;6-4;3-6;0-5;0-3;0-1,0-3,5.22,5,5,667.894644015
GEMS112,2018_Feb_27_1548,Kramer,GH,spatial_frequency,8,6,2,SimpleHill,0-0,0,1,selected,0-3,1-0;8-3;2-3;4-8;6-1;5-4,6-1,1.77,13,8,673.216539579
GEMS112,2018_Feb_27_1548,Kramer,GH,spatial_frequency,8,6,2,SimpleHill,0-0,0,2,selected,6-1,11-4;7-8;3-6;6-4;6-0;9-2,6-0,1.0,11,-2,677.768378608
GEMS112,2018_Feb_27_1548,Kramer,GH,spatial_frequency,8,6,2,SimpleHill,0-0,0,3,selected,6-0,8-4;5-5;9-7;3-0;2-0;11-0,3-0,1.03,5,-6,682.364581539
GEMS112,2018_Feb_27_1548,Kramer,GH,spatial_frequency,8,6,2,SimpleHill,0-0,0,4,selected,3-0,4-0;9-1;3-1;11-0;1-2;3-0,4-0,1.08,7,2,686.992003762
GEMS112,2018_Feb_27_1548,Kramer,GH,spatial_frequency,8,6,2,SimpleHill,0-0,0,5,selected,4-0,5-2;2-2;3-7;6-4;2-0;11-1,11-1,1.61,21,14,692.169994885
GEMS112,2018_Feb_27_1548,Kramer,GH,spatial_frequency,8,6,2,SimpleHill,0-0,0,6,selected,11-1,11-6;5-5;9-6;7-3;12-1;17-1,12-1,2.04,23,2,697.768610356
GEMS112,2018_Feb_27_1548,Kramer,GH,spatial_frequency,8,6,2,SimpleHill,0-0,0,7,selected,12-1,10-6;10-1;13-6;5-4;9-3;7-6,5-4,1.1,17,-6,702.433676772
GEMS112,2018_Feb_27_1548,Kramer,GH,spatial_frequency,8,6,2,SimpleHill,0-0,0,8,selected,5-4,5-0;11-2;11-7;6-3;11-5;9-8,5-0,0.72,9,-8,706.706835646
GEMS112,2018_Feb_27_1548,Kramer,GH,spatial_frequency,8,6,2,SimpleHill,0-0,0,9,selected,5-0,10-5;6-7;3-1;2-6;8-7;11-1,6-7,1.01,24,15,711.287406525
GEMS112,2018_Feb_27_1548,Kramer,GH,spatial_frequency,8,6,2,SimpleHill,0-0,0,10,selected,6-7,6-6;1-1;6-8;1-2;11-3;0-9,1-2,4.2,5,-19,719.051420988
GEMS112,2018_Feb_27_1548,Kramer,GH,spatial_frequency,8,6,2,SimpleHill,0-0,0,11,selected,1-2,8-1;7-0;3-5;1-9;5-3;7-4,8-1,0.35,16,11,722.973573458
GEMS112,2018_Feb_27_1548,Kramer,GH,spatial_frequency,8,6,2,SimpleHill,0-0,0,12,selected,8-1,6-0;11-8;2-5;9-0;7-0;9-1,11-8,0.38,34,18,726.926932096
GEMS112,2018_Feb_27_1548,Kramer,GH,spatial_frequency,8,6,2,SimpleHill,0-0,0,13,selected,11-8,9-10;13-12;13-13;14-1;12-5;4-10,13-13,0.73,45,11,731.2114373
GEMS112,2018_Feb_27_1548,Kramer,GH,spatial_frequency,8,6,2,SimpleHill,0-0,0,14,selected,13-13,13-19;8-12;13-16;7-12;12-15;12-13,7-12,0.51,34,-11,735.293027675
GEMS112,2018_Feb_27_1548,Kramer,GH,spatial_frequency,8,6,2,SimpleHill,0-0,0,15,selected,7-12,2-17;8-18;14-10;4-19;8-8;13-8,2-17,0.9,32,-2,739.760019065
GEMS112,2018_Feb_27_1548,Kramer,GH,spatial_frequency,8,6,2,SimpleHill,0-0,0,16,selected,2-17,0-22;7-12;4-16;2-15;5-12;3-10,7-12,1.22,34,2,744.560698878
GEMS112,2018_Feb_27_1548,Kramer,GH,spatial_frequency,8,6,2,SimpleHill,0-0,0,17,selected,7-12,14-9;3-17;1-9;5-12;5-17;9-6,5-17,1.77,37,3,749.885948374
GEMS112,2018_Feb_27_1548,Kramer,GH,spatial_frequency,8,6,2,SimpleHill,0-0,0,18,selected,5-17,1-12;8-17;3-21;2-24;7-14;7-20,2-24,0.84,40,3,754.280161865
GEMS112,2018_Feb_27_1548,Kramer,GH,spatial_frequency,8,6,2,SimpleHill,0-0,0,19,selected,2-24,0-31;2-24;0-17;8-24;7-27;5-31,0-31,1.07,42,2,758.922953663
GEMS112,2018_Feb_27_1548,Kramer,GH,spatial_frequency,8,6,2,SimpleHill,0-0,0,20,selected,0-31,0-26;6-33;1-35;4-25;3-36;5-30,1-35,1.48,47,5,763.989451022
GEMS112,2018_Feb_27_1548,Kramer,GH,spatial_frequency,8,6,2,SimpleHill,0-0,0,21,selected,1-35,3-29;6-41;7-38;4-32;2-42;1-38,1-38,1.45,49,2,768.989923799
GEMS112,2018_Feb_27_1548,Kramer,GH,spatial_frequency,8,6,2,SimpleHill,0-0,0,22,selected,1-38,1-35;5-37;7-33;6-33;4-43;5-34,1-35,1.72,47,-2,774.254334217
GEMS112,2018_Feb_27_1548,Kramer,GH,spatial_frequency,8,6,2,SimpleHill,0-0,0,23,selected,1-35,1-33;1-37;6-37;0-38;3-41;4-37,6-37,1.85,57,10,779.679092563
GEMS112,2018_Feb_27_1548,Kramer,GH,spatial_frequency,8,6,2,SimpleHill,0-0,0,24,selected,6-37,6-38;8-34;0-32;4-36;8-38;1-35,1-35,2.79,47,-10,786.047526419
GEMS112,2018_Feb_27_1548,Kramer,GH,spatial_frequency,8,6,2,SimpleHill,0-0,0,25,selected,1-35,1-41;0-42;2-39;7-32;5-40;2-34,7-32,1.97,56,9,791.591773167
GEMS112,2018_Feb_27_1548,Kramer,GH,spatial_frequency,8,6,2,SimpleHill,0-0,0,26,selected,7-32,9-25;0-33;12-35;6-37;11-26;3-30,9-25,9.17,53,-3,804.322067134
GEMS112,2018_Feb_27_1548,Kramer,GH,spatial_frequency,8,6,2,SimpleHill,0-0,0,27,selected,9-25,14-23;10-31;6-30;16-28;15-26;10-29,14-23,3.07,59,6,810.952692525
GEMS112,2018_Feb_27_1548,Kramer,GH,spatial_frequency,8,6,2,SimpleHill,0-0,0,28,selected,14-23,8-20;13-17;11-16;12-24;16-28;18-26,11-16,19.37,46,-13,834.007089735
GEMS112,2018_Feb_27_1548,Kramer,GH,spatial_frequency,8,6,2,SimpleHill,0-0,0,29,selected,11-16,16-16;15-15;13-11;15-14;4-16;16-14,16-16,0.53,53,7,838.112101621
GEMS112,2018_Feb_27_1548,Kramer,GH,spatial_frequency,8,6,2,SimpleHill,0-0,0,30,selected,16-16,19-18;11-15;13-15;18-18;15-23;18-15,18-15,0.68,55,2,842.354592083
GEMS112,2018_Feb_27_1548,Kramer,GH,spatial_frequency,8,6,2,SimpleHill,0-0,0,31,selected,18-15,24-17;19-18;14-11;20-9;21-14;16-11,14-11,0.95,43,-12,846.871669674
GEMS112,2018_Feb_27_1548,Kramer,GH,spatial_frequency,8,6,2,SimpleHill,0-0,0,32,selected,14-11,12-11;13-10;19-17;14-17;14-9;13-18,13-10,0.36,40,-3,850.79577183
GEMS112,2018_Feb_27_1548,Kramer,GH,spatial_frequency,8,6,2,SimpleHill,0-0,0,33,selected,13-10,9-9;8-6;18-4;18-16;20-8;16-7,18-16,0.63,56,16,854.980466657
GEMS112,2018_Feb_27_1548,Kramer,GH,spatial_frequency,8,6,2,SimpleHill,0-0,0,34,selected,18-16,20-18;13-10;13-19;23-20;12-21;16-14,13-19,1.21,53,-3,859.759028698
GEMS112,2018_Feb_27_1548,Kramer,GH,spatial_frequency,8,6,2,SimpleHill,0-0,0,35,selected,13-19,12-25;7-18;17-19;15-24;17-23;12-26,12-25,0.32,58,5,863.666274446
GEMS112,2018_Feb_27_1548,Kramer,GH,spatial_frequency,8,6,2,SimpleHill,0-0,0,36,selected,12-25,14-24;19-28;19-27;14-30;14-21;7-28,7-28,0.79,53,-5,868.022050553
GEMS112,2018_Feb_27_1548,Kramer,GH,spatial_frequency,8,6,2,SimpleHill,0-0,0,37,selected,7-28,2-24;10-35;11-29;14-28;3-28;2-30,10-35,0.64,63,10,872.249196727
GEMS112,2018_Feb_27_1548,Kramer,GH,spatial_frequency,8,6,2,SimpleHill,0-0,0,38,selected,10-35,13-39;12-32;7-40;16-36;16-38;13-36,13-39,1.61,70,7,877.417239046
GEMS112,2018_Feb_27_1548,Kramer,GH,spatial_frequency,8,6,2,SimpleHill,0-0,0,39,selected,13-39,17-40;20-40;8-45;13-33;9-33;18-39,13-33,1.97,66,-4,882.956166492
GEMS112,2018_Feb_27_1548,Kramer,GH,spatial_frequency,8,6,3,SimpleHill,0-0,0,0,selected,0-0,1-5;3-6;3-5;6-4;2-7;0-0,0-0,3.42,0,0,895.273756808
GEMS112,2018_Feb_27_1548,Kramer,GH,spatial_frequency,8,6,3,SimpleHill,0-0,0,1,selected,0-0,2-0;0-7;6-5;3-1;0-1;6-2,0-7,3.16,13,13,901.997289454
GEMS112,2018_Feb_27_1548,Kramer,GH,spatial_frequency,8,6,3,SimpleHill,0-0,0,2,selected,0-7,6-4;4-13;6-12;3-13;3-7;1-2,3-13,0.84,28,15,906.407760778
GEMS112,2018_Feb_27_1548,Kramer,GH,spatial_frequency,8,6,3,SimpleHill,0-0,0,3,selected,3-13,5-10;7-9;1-7;2-17;5-7;5-14,2-17,0.91,32,4,910.882348931
GEMS112,2018_Feb_27_1548,Kramer,GH,spatial_frequency,8,6,3,SimpleHill,0-0,0,4,selected,2-17,2-12;9-17;2-25;5-18;4-16;9-19,9-19,2.33,47,15,916.776142459
GEMS112,2018_Feb_27_1548,Kramer,GH,spatial_frequency,8,6,3,SimpleHill,0-0,0,5,selected,9-19,14-18;5-21;12-22;4-18;10-22;2-20,12-22,1.64,55,8,921.96088434
GEMS112,2018_Feb_27_1548,Kramer,GH,spatial_frequency,8,6,3,SimpleHill,0-0,0,6,selected,12-22,11-23;13-15;16-23;10-21;13-25;16-19,13-15,1.46,48,-7,926.968378032
GEMS112,2018_Feb_27_1548,Kramer,GH,spatial_frequency,8,6,3,SimpleHill,0-0,0,7,selected,13-15,10-11;11-21;6-14;17-15;6-18;7-11,6-18,1.63,40,-8,932.150770111
GEMS112,2018_Feb_27_1548,Kramer,GH,spatial_frequency,8,6,3,SimpleHill,0-0,0,8,selected,6-18,3-20;7-11;4-22;6-18;9-20;4-12,4-22,0.59,42,2,936.296155621
GEMS112,2018_Feb_27_1548,Kramer,GH,spatial_frequency,8,6,3,SimpleHill,0-0,0,9,selected,4-22,1-16;4-20;2-28;0-25;1-29;6-25,0-25,0.61,37,-5,940.455303522
GEMS112,2018_Feb_27_1548,Kramer,GH,spatial_frequency,8,6,3,SimpleHill,0-0,0,10,selected,0-25,3-32;4-22;2-28;2-27;5-22;4-20,3-32,0.56,49,12,944.592942466
GEMS112,2018_Feb_27_1548,Kramer,GH,spatial_frequency,8,6,3,SimpleHill,0-0,0,11,selected,3-32,3-35;1-28;3-32;9-33;9-34;7-28,3-32,1.28,49,0,949.45681532
GEMS112,2018_Feb_27_1548,Kramer,GH,spatial_frequency,8,6,3,SimpleHill,0-0,0,12,selected,3-32,2-36;0-28;5-33;5-29;0-30;3-31,3-31,0.86,48,-1,953.892933759
GEMS112,2018_Feb_27_1548,Kramer,GH,spatial_frequency,8,6,3,SimpleHill,0-0,0,13,selected,3-31,9-31;1-34;5-27;5-37;11-31;5-35,11-31,1.21,62,14,958.66808041
GEMS112,2018_Feb_27_1548,Kramer,GH,spatial_frequency,8,6,3,SimpleHill,0-0,0,14,selected,11-31,10-38;5-31;9-34;12-28;15-26;11-32,12-28,1.43,61,-1,963.655945052
GEMS112,2018_Feb_27_1548,Kramer,GH,spatial_frequency,8,6,3,SimpleHill,0-0,0,15,selected,12-28,10-35;8-25;7-28;7-27;9-32;9-26,7-27,1.1,52,-9,968.325209485
GEMS112,2018_Feb_27_1548,Kramer,GH,spatial_frequency,8,6,3,SimpleHill,0-0,0,16,selected,7-27,7-23;2-28;9-28;12-23;10-30;3-27,7-23,0.78,48,-4,972.673940669
GEMS112,2018_Feb_27_1548,Kramer,GH,spatial_frequency,8,6,3,SimpleHill,0-0,0,17,selected,7-23,2-28;11-28;4-24;7-25;7-20;9-27,7-20,1.23,45,-3,977.479935623
GEMS112,2018_Feb_27_1548,Kramer,GH,spatial_frequency,8,6,3,SimpleHill,0-0,0,18,selected,7-20,11-24;1-23;11-19;7-22;1-15;0-20,11-19,0.96,50,5,981.997250723
GEMS112,2018_Feb_27_1548,Kramer,GH,spatial_frequency,8,6,3,SimpleHill,0-0,0,19,selected,11-19,6-17;13-17;6-22;14-22;7-19;12-14,7-19,2.25,43,-7,987.802507223
GEMS112,2018_Feb_27_1548,Kramer,GH,spatial_frequency,8,6,3,SimpleHill,0-0,0,20,selected,7-19,9-25;12-24;7-12;7-15;1-18;14-17,7-12,1.15,34,-9,992.514465314
GEMS112,2018_Feb_27_1548,Kramer,GH,spatial_frequency,8,6,3,SimpleHill,0-0,0,21,selected,7-12,1-16;11-13;11-10;11-11;13-15;14-13,11-13,1.12,42,8,997.229100661
GEMS112,2018_Feb_27_1548,Kramer,GH,spatial_frequency,8,6,3,SimpleHill,0-0,0,22,selected,11-13,5-13;9-15;5-9;14-10;13-13;12-8,13-13,2.75,45,3,1003.53079741
GEMS112,2018_Feb_27_1548,Kramer,GH,spatial_frequency,8,6,3,SimpleHill,0-0,0,23,selected,13-13,19-11;8-15;10-14;16-11;18-14;13-9,16-11,0.76,46,1,1007.83150699
GEMS112,2018_Feb_27_1548,Kramer,GH,spatial_frequency,8,6,3,SimpleHill,0-0,0,24,selected,16-11,10-13;9-13;14-17;18-12;11-13;14-12,9-13,2.12,39,-7,1013.50684486
GEMS112,2018_Feb_27_1548,Kramer,GH,spatial_frequency,8,6,3,SimpleHill,0-0,0,25,selected,9-13,14-16;4-11;10-8;15-15;11-13;16-16,14-16,0.52,50,11,1017.58450098
GEMS112,2018_Feb_27_1548,Kramer,GH,spatial_frequency,8,6,3,SimpleHill,0-0,0,26,selected,14-16,11-16;10-20;12-11;19-10;15-17;7-13,12-11,1.19,40,-10,1022.32520852
GEMS112,2018_Feb_27_1548,Kramer,GH,spatial_frequency,8,6,3,SimpleHill,0-0,0,27,selected,12-11,12-6;17-5;13-5;10-16;8-14;5-10,8-14,1.57,38,-2,1027.45123994
GEMS112,2018_Feb_27_1548,Kramer,GH,spatial_frequency,8,6,3,SimpleHill,0-0,0,28,selected,8-14,5-13;9-14;11-9;5-15;10-16;10-19,10-16,8.68,44,6,1039.69730456
GEMS112,2018_Feb_27_1548,Kramer,GH,spatial_frequency,8,6,3,SimpleHill,0-0,0,29,selected,10-16,17-19;7-12;13-17;9-14;15-16;7-18,7-12,4.9,34,-10,1048.17028521
GEMS112,2018_Feb_27_1548,Kramer,GH,spatial_frequency,8,6,3,SimpleHill,0-0,0,30,selected,7-12,5-6;2-14;5-16;2-18;3-6;12-10,5-6,0.55,20,-14,1052.28612839
GEMS112,2018_Feb_27_1548,Kramer,GH,spatial_frequency,8,6,3,SimpleHill,0-0,0,31,selected,5-6,9-4;6-11;3-0;5-4;10-1;2-9,10-1,0.9,19,-1,1056.73174943
GEMS112,2018_Feb_27_1548,Kramer,GH,spatial_frequency,8,6,3,SimpleHill,0-0,0,32,selected,10-1,5-7;8-6;15-6;10-9;5-6;10-4,15-6,0.84,36,17,1061.12282505
GEMS112,2018_Feb_27_1548,Kramer,GH,spatial_frequency,8,6,3,SimpleHill,0-0,0,33,selected,15-6,17-4;15-14;20-11;13-1;21-1;10-5,15-14,0.18,49,13,1064.86464172
GEMS112,2018_Feb_27_1548,Kramer,GH,spatial_frequency,8,6,3,SimpleHill,0-0,0,34,selected,15-14,8-12;14-7;19-15;17-18;18-7;19-19,19-19,0.53,61,12,1068.96319829
GEMS112,2018_Feb_27_1548,Kramer,GH,spatial_frequency,8,6,3,SimpleHill,0-0,0,35,selected,19-19,20-12;21-17;11-19;25-17;15-17;22-21,11-19,1.03,50,-11,1073.56607964
GEMS112,2018_Feb_27_1548,Kramer,GH,spatial_frequency,8,6,3,SimpleHill,0-0,0,36,selected,11-19,13-18;16-19;7-18;5-15;14-24;14-12,13-18,0.64,52,2,1077.78155555
GEMS112,2018_Feb_27_1548,Kramer,GH,spatial_frequency,8,6,3,SimpleHill,0-0,0,37,selected,13-18,12-12;14-24;8-16;19-20;13-18;12-21,12-21,4.14,54,2,1085.51079065
GEMS112,2018_Feb_27_1548,Kramer,GH,spatial_frequency,8,6,3,SimpleHill,0-0,0,38,selected,12-21,11-24;15-15;19-21;8-21;18-18;15-18,18-18,3.37,59,5,1092.45919585
GEMS112,2018_Feb_27_1548,Kramer,GH,spatial_frequency,8,6,3,SimpleHill,0-0,0,39,selected,18-18,19-21;16-21;17-11;24-17;18-14;21-18,19-21,1.76,63,4,1097.76432687
GEMS112,2018_Feb_27_1548,Kramer,GH,spatial_frequency,8,6,4,SimpleHill,0-0,0,0,selected,0-0,3-3;4-3;0-3;6-5;5-1;0-5,4-3,4.04,13,13,1111.6714798
GEMS112,2018_Feb_27_1548,Kramer,GH,spatial_frequency,8,6,4,SimpleHill,0-0,0,1,selected,4-3,0-9;5-1;3-10;1-0;8-1;2-4,3-10,7.81,23,10,1123.04987942
GEMS112,2018_Feb_27_1548,Kramer,GH,spatial_frequency,8,6,4,SimpleHill,0-0,0,2,selected,3-10,9-15;6-13;3-18;5-4;0-9;2-7,3-18,2.36,35,12,1128.99210491
GEMS112,2018_Feb_27_1548,Kramer,GH,spatial_frequency,8,6,4,SimpleHill,0-0,0,3,selected,3-18,9-13;4-24;3-17;9-16;0-11;2-19,4-24,1.42,44,9,1133.98273676
GEMS112,2018_Feb_27_1548,Kramer,GH,spatial_frequency,8,6,4,SimpleHill,0-0,0,4,selected,4-24,8-29;7-20;4-22;4-21;6-17;0-18,8-29,1.14,55,11,1138.6886691
GEMS112,2018_Feb_27_1548,Kramer,GH,spatial_frequency,8,6,4,SimpleHill,0-0,0,5,selected,8-29,3-29;11-25;5-31;11-22;6-25;3-31,3-29,2.38,47,-8,1144.62359807
GEMS112,2018_Feb_27_1548,Kramer,GH,spatial_frequency,8,6,4,SimpleHill,0-0,0,6,selected,3-29,4-36;8-23;0-28;8-34;3-27;10-31,4-36,2.68,53,6,1150.87576142
GEMS112,2018_Feb_27_1548,Kramer,GH,spatial_frequency,8,6,4,SimpleHill,0-0,0,7,selected,4-36,0-42;4-31;6-37;2-34;0-38;7-38,0-42,1.26,48,-5,1155.71536164
GEMS112,2018_Feb_27_1548,Kramer,GH,spatial_frequency,8,6,4,SimpleHill,0-0,0,8,selected,0-42,0-43;1-44;0-38;0-35;4-40;4-37,1-44,1.02,51,3,1160.30238335
GEMS112,2018_Feb_27_1548,Kramer,GH,spatial_frequency,8,6,4,SimpleHill,0-0,0,9,selected,1-44,3-37;4-37;2-46;0-46;7-46;4-42,7-46,2.0,62,11,1165.87643394
GEMS112,2018_Feb_27_1548,Kramer,GH,spatial_frequency,8,6,4,SimpleHill,0-0,0,10,selected,7-46,0-45;10-46;10-53;9-42;13-47;7-50,10-46,2.35,67,5,1171.79336441
GEMS112,2018_Feb_27_1548,Kramer,GH,spatial_frequency,8,6,4,SimpleHill,0-0,0,11,selected,10-46,10-50;11-47;14-46;5-40;9-53;9-48,10-50,1.19,68,1,1176.55488471
GEMS112,2018_Feb_27_1548,Kramer,GH,spatial_frequency,8,6,4,SimpleHill,0-0,0,12,selected,10-50,9-56;10-47;9-50;10-48;14-53;13-44,10-48,1.54,67,-1,1181.65375786
GEMS112,2018_Feb_27_1548,Kramer,GH,spatial_frequency,8,6,4,SimpleHill,0-0,0,13,selected,10-48,14-45;16-53;12-41;11-52;12-48;14-44,14-45,0.56,73,6,1185.78168743
GEMS112,2018_Feb_27_1548,Kramer,GH,spatial_frequency,8,6,4,SimpleHill,0-0,0,14,selected,14-45,17-51;7-47;12-41;12-48;18-46;11-49,11-49,1.79,69,-4,1191.1456784
GEMS112,2018_Feb_27_1548,Kramer,GH,spatial_frequency,8,6,4,SimpleHill,0-0,0,15,selected,11-49,5-48;11-46;9-42;13-46;6-47;7-51,13-46,1.09,72,3,1195.80448732
GEMS112,2018_Feb_27_1548,Kramer,GH,spatial_frequency,8,6,4,SimpleHill,0-0,0,16,selected,13-46,9-52;13-45;19-50;13-39;19-49;6-43,9-52,0.95,66,-6,1200.33955925
GEMS112,2018_Feb_27_1548,Kramer,GH,spatial_frequency,8,6,4,SimpleHill,0-0,0,17,selected,9-52,10-48;16-49;5-51;7-53;8-47;9-60,16-49,0.77,76,10,1204.66351237
GEMS112,2018_Feb_27_1548,Kramer,GH,spatial_frequency,8,6,4,SimpleHill,0-0,0,18,selected,16-49,10-44;11-50;17-53;12-51;14-46;11-49,14-46,1.63,73,-3,1209.86208994
GEMS112,2018_Feb_27_1548,Kramer,GH,spatial_frequency,8,6,4,SimpleHill,0-0,0,19,selected,14-46,16-48;18-49;18-43;15-51;14-46;14-48,15-51,1.86,75,2,1215.28676634
GEMS112,2018_Feb_27_1548,Kramer,GH,spatial_frequency,8,6,4,SimpleHill,0-0,0,20,selected,15-51,9-54;16-57;10-48;12-45;18-55;20-53,16-57,1.34,75,0,1220.18999684
GEMS112,2018_Feb_27_1548,Kramer,GH,spatial_frequency,8,6,4,SimpleHill,0-0,0,21,selected,16-57,11-51;12-61;16-58;20-54;19-58;14-63,11-51,1.21,69,-6,1224.97425558
GEMS112,2018_Feb_27_1548,Kramer,GH,spatial_frequency,8,6,4,SimpleHill,0-0,0,22,selected,11-51,6-51;11-50;9-54;13-52;6-56;13-48,9-54,1.46,66,-3,1229.98347457
GEMS112,2018_Feb_27_1548,Kramer,GH,spatial_frequency,8,6,4,SimpleHill,0-0,0,23,selected,9-54,10-58;5-57;10-60;13-59;16-51;4-52,13-59,0.55,71,5,1234.10965515
GEMS112,2018_Feb_27_1548,Kramer,GH,spatial_frequency,8,6,4,SimpleHill,0-0,0,24,selected,13-59,8-61;11-66;15-55;14-60;14-57;6-61,11-66,8.2,64,-7,1245.87465326
GEMS112,2018_Feb_27_1548,Kramer,GH,spatial_frequency,8,6,4,SimpleHill,0-0,0,25,selected,11-66,13-60;8-65;16-62;12-63;5-68;10-65,13-60,0.69,70,6,1250.12231578
GEMS112,2018_Feb_27_1548,Kramer,GH,spatial_frequency,8,6,4,SimpleHill,0-0,0,26,selected,13-60,8-58;17-59;9-62;8-63;13-64;16-56,13-64,0.71,68,-2,1254.3928627
GEMS112,2018_Feb_27_1548,Kramer,GH,spatial_frequency,8,6,4,SimpleHill,0-0,0,27,selected,13-64,6-62;17-69;16-70;7-62;8-60;6-65,16-70,0.68,68,0,1258.63696963
GEMS112,2018_Feb_27_1548,Kramer,GH,spatial_frequency,8,6,4,SimpleHill,0-0,0,28,selected,16-70,11-64;17-66;17-68;14-64;21-64;10-67,11-64,0.97,65,-3,1263.16155212
GEMS112,2018_Feb_27_1548,Kramer,GH,spatial_frequency,8,6,4,SimpleHill,0-0,0,29,selected,11-64,5-60;13-68;12-58;10-67;7-65;7-61,13-68,0.53,66,1,1267.26202093
GEMS112,2018_Feb_27_1548,Kramer,GH,spatial_frequency,8,6,4,SimpleHill,0-0,0,30,selected,13-68,6-66;15-68;16-68;14-70;8-68;18-62,18-62,0.7,76,10,1271.53258289
GEMS112,2018_Feb_27_1548,Kramer,GH,spatial_frequency,8,6,4,SimpleHill,0-0,0,31,selected,18-62,12-59;18-57;13-67;17-59;20-59;11-64,20-59,2.04,80,4,1277.15375978
GEMS112,2018_Feb_27_1548,Kramer,GH,spatial_frequency,8,6,4,SimpleHill,0-0,0,32,selected,20-59,16-59;26-64;16-58;21-53;22-65;27-56,16-58,1.57,75,-5,1282.28490756
GEMS112,2018_Feb_27_1548,Kramer,GH,spatial_frequency,8,6,4,SimpleHill,0-0,0,33,selected,16-58,14-53;20-52;12-59;19-63;10-62;15-57,14-53,0.64,73,-2,1286.47740593
GEMS112,2018_Feb_27_1548,Kramer,GH,spatial_frequency,8,6,4,SimpleHill,0-0,0,34,selected,14-53,12-60;15-47;11-60;14-51;10-56;15-55,11-60,3.44,67,-6,1293.48104506
GEMS112,2018_Feb_27_1548,Kramer,GH,spatial_frequency,8,6,4,SimpleHill,0-0,0,35,selected,11-60,16-56;10-58;9-62;15-60;10-57;8-67,10-58,1.1,66,-1,1298.13669531
GEMS112,2018_Feb_27_1548,Kramer,GH,spatial_frequency,8,6,4,SimpleHill,0-0,0,36,selected,10-58,12-54;4-61;5-59;9-57;13-54;9-60,9-57,0.78,65,-1,1302.48474182
GEMS112,2018_Feb_27_1548,Kramer,GH,spatial_frequency,8,6,4,SimpleHill,0-0,0,37,selected,9-57,11-59;3-54;10-52;4-59;15-59;7-60,11-59,1.22,67,2,1307.2754485
GEMS112,2018_Feb_27_1548,Kramer,GH,spatial_frequency,8,6,4,SimpleHill,0-0,0,38,selected,11-59,8-53;18-61;7-57;15-57;15-55;9-59,18-61,1.03,77,10,1311.87710005
GEMS112,2018_Feb_27_1548,Kramer,GH,spatial_frequency,8,6,4,SimpleHill,0-0,0,39,selected,18-61,12-56;16-68;20-60;15-62;18-63;14-58,15-62,0.62,72,-5,1316.06841696
