subj_id,date,computer,experimenter,instructions,sight_radius,n_gabors,start_pos_list_ix,start_pos_list,landscape_ix,landscape_name,starting_pos,starting_score,trial,feedback,pos,stims,selected,rt,score,delta,exp_time
GEMS244,2018_Apr_26_1056,Jerry,MP,orientation,8,6,0,0-0;0-0;0-0;0-0,0,OrientationBias,0-0,0,0,training,0-0,6-4;0-3;8-0;2-6;2-0;6-3,6-4,3.51,22,22,233.762868775
GEMS244,2018_Apr_26_1056,Jerry,MP,orientation,8,6,0,0-0;0-0;0-0;0-0,0,OrientationBias,0-0,0,1,training,6-4,6-7;9-10;1-7;8-1;6-0;5-9,6-0,6.23,22,0,255.54578913
GEMS244,2018_Apr_26_1056,Jerry,MP,orientation,8,6,0,0-0;0-0;0-0;0-0,0,OrientationBias,0-0,0,2,training,6-0,2-3;10-6;14-0;1-4;5-4;4-2,14-0,6.58,48,26,274.748598713
GEMS244,2018_Apr_26_1056,Jerry,MP,orientation,8,6,0,0-0;0-0;0-0;0-0,0,OrientationBias,0-0,0,3,training,14-0,12-3;18-3;19-3;11-1;17-0;14-1,18-3,9.24,59,11,294.263702777
GEMS244,2018_Apr_26_1056,Jerry,MP,orientation,8,6,0,0-0;0-0;0-0;0-0,0,OrientationBias,0-0,0,4,training,18-3,19-6;14-3;13-0;11-2;18-6;14-6,18-6,3.59,59,0,308.006567026
GEMS244,2018_Apr_26_1056,Jerry,MP,orientation,8,6,0,0-0;0-0;0-0;0-0,0,OrientationBias,0-0,0,5,training,18-6,22-6;12-11;23-0;17-7;21-4;21-10,12-11,2.39,42,-17,321.105743971
GEMS244,2018_Apr_26_1056,Jerry,MP,orientation,8,6,0,0-0;0-0;0-0;0-0,0,OrientationBias,0-0,0,6,training,12-11,12-3;11-13;16-6;12-13;17-7;17-13,16-6,2.28,53,11,329.19049881
GEMS244,2018_Apr_26_1056,Jerry,MP,orientation,8,6,0,0-0;0-0;0-0;0-0,0,OrientationBias,0-0,0,7,training,16-6,22-7;10-7;15-13;14-0;16-14;9-3,16-14,2.44,53,0,339.136913338
GEMS244,2018_Apr_26_1056,Jerry,MP,orientation,8,6,0,0-0;0-0;0-0;0-0,0,OrientationBias,0-0,0,8,training,16-14,16-7;15-18;20-8;22-19;15-15;11-16,16-7,2.99,53,0,346.486970138
GEMS244,2018_Apr_26_1056,Jerry,MP,orientation,8,6,0,0-0;0-0;0-0;0-0,0,OrientationBias,0-0,0,9,training,16-7,17-14;14-0;17-8;13-0;15-3;18-0,17-14,3.24,56,3,355.131106212
GEMS244,2018_Apr_26_1056,Jerry,MP,orientation,8,6,0,0-0;0-0;0-0;0-0,0,OrientationBias,0-0,0,10,training,17-14,16-20;18-15;17-19;14-19;23-12;15-15,23-12,3.06,70,14,361.80116373
GEMS244,2018_Apr_26_1056,Jerry,MP,orientation,8,6,0,0-0;0-0;0-0;0-0,0,OrientationBias,0-0,0,11,training,23-12,20-15;17-8;22-9;17-12;19-13;20-6,20-15,2.65,64,-6,371.218251826
GEMS244,2018_Apr_26_1056,Jerry,MP,orientation,8,6,0,0-0;0-0;0-0;0-0,0,OrientationBias,0-0,0,12,training,20-15,22-16;17-21;16-17;27-16;21-12;24-16,21-12,3.89,66,2,380.33179518
GEMS244,2018_Apr_26_1056,Jerry,MP,orientation,8,6,0,0-0;0-0;0-0;0-0,0,OrientationBias,0-0,0,13,training,21-12,22-11;20-10;25-16;26-13;20-15;27-7,22-11,2.42,68,2,388.099653244
GEMS244,2018_Apr_26_1056,Jerry,MP,orientation,8,6,0,0-0;0-0;0-0;0-0,0,OrientationBias,0-0,0,14,training,22-11,18-12;29-12;23-11;15-10;28-9;23-13,23-13,3.08,70,2,398.067347867
GEMS244,2018_Apr_26_1056,Jerry,MP,orientation,8,6,0,0-0;0-0;0-0;0-0,0,OrientationBias,0-0,0,15,training,23-13,22-19;22-10;21-10;29-15;29-16;27-19,29-15,2.36,82,12,409.000636345
GEMS244,2018_Apr_26_1056,Jerry,MP,orientation,8,6,0,0-0;0-0;0-0;0-0,0,OrientationBias,0-0,0,16,training,29-15,34-14;32-21;25-9;21-15;34-16;27-21,32-21,3.91,87,5,416.137791353
GEMS244,2018_Apr_26_1056,Jerry,MP,orientation,8,6,0,0-0;0-0;0-0;0-0,0,OrientationBias,0-0,0,17,training,32-21,38-20;29-19;28-21;32-20;29-15;26-24,38-20,4.65,94,7,424.387637948
GEMS244,2018_Apr_26_1056,Jerry,MP,orientation,8,6,0,0-0;0-0;0-0;0-0,0,OrientationBias,0-0,0,18,training,38-20,41-22;39-15;39-18;39-26;41-13;38-20,39-26,3.6,95,1,431.093430958
GEMS244,2018_Apr_26_1056,Jerry,MP,orientation,8,6,0,0-0;0-0;0-0;0-0,0,OrientationBias,0-0,0,19,training,39-26,42-19;39-29;34-22;41-30;38-29;37-22,38-29,3.84,94,-1,440.273077978
GEMS244,2018_Apr_26_1056,Jerry,MP,orientation,8,6,0,0-0;0-0;0-0;0-0,0,OrientationBias,0-0,0,20,training,38-29,43-31;45-29;36-25;31-28;36-33;35-25,35-25,2.85,91,-3,446.226056971
GEMS244,2018_Apr_26_1056,Jerry,MP,orientation,8,6,0,0-0;0-0;0-0;0-0,0,OrientationBias,0-0,0,21,training,35-25,34-25;32-22;37-23;37-29;43-25;35-25,37-23,0.71,93,2,450.520058462
GEMS244,2018_Apr_26_1056,Jerry,MP,orientation,8,6,0,0-0;0-0;0-0;0-0,0,OrientationBias,0-0,0,22,training,37-23,39-24;34-19;31-18;32-25;43-27;33-23,39-24,2.39,95,2,456.005286014
GEMS244,2018_Apr_26_1056,Jerry,MP,orientation,8,6,0,0-0;0-0;0-0;0-0,0,OrientationBias,0-0,0,23,training,39-24,37-31;44-29;35-20;39-28;43-28;35-29,43-28,2.17,98,3,460.944373295
GEMS244,2018_Apr_26_1056,Jerry,MP,orientation,8,6,0,0-0;0-0;0-0;0-0,0,OrientationBias,0-0,0,24,training,43-28,50-30;42-31;48-26;39-23;43-33;46-31,43-33,1.72,98,0,465.717856671
GEMS244,2018_Apr_26_1056,Jerry,MP,orientation,8,6,0,0-0;0-0;0-0;0-0,0,OrientationBias,0-0,0,25,training,43-33,37-32;42-35;44-28;46-34;39-30;42-26,46-34,1.48,99,1,470.196825767
GEMS244,2018_Apr_26_1056,Jerry,MP,orientation,8,6,0,0-0;0-0;0-0;0-0,0,OrientationBias,0-0,0,26,training,46-34,50-29;52-33;50-32;50-40;44-32;41-33,41-33,2.36,96,-3,476.016235432
GEMS244,2018_Apr_26_1056,Jerry,MP,orientation,8,6,0,0-0;0-0;0-0;0-0,0,OrientationBias,0-0,0,27,training,41-33,38-33;39-40;36-38;45-37;48-35;38-38,36-38,0.83,92,-4,479.618483509
GEMS244,2018_Apr_26_1056,Jerry,MP,orientation,8,6,0,0-0;0-0;0-0;0-0,0,OrientationBias,0-0,0,28,training,36-38,40-41;32-40;37-35;33-41;31-40;43-40,43-40,1.73,98,6,484.588062839
GEMS244,2018_Apr_26_1056,Jerry,MP,orientation,8,6,0,0-0;0-0;0-0;0-0,0,OrientationBias,0-0,0,29,training,43-40,43-40;37-41;41-33;48-44;46-42;37-36,43-40,1.28,98,0,490.83585892
GEMS244,2018_Apr_26_1056,Jerry,MP,orientation,8,6,0,0-0;0-0;0-0;0-0,1,SimpleHill,0-0,0,0,selected,0-0,1-6;0-6;5-3;0-0;6-5;4-0,6-5,2.98,20,20,521.775643043
GEMS244,2018_Apr_26_1056,Jerry,MP,orientation,8,6,0,0-0;0-0;0-0;0-0,1,SimpleHill,0-0,0,1,selected,6-5,1-0;4-9;11-1;7-9;10-7;12-3,10-7,3.97,31,11,529.281184971
GEMS244,2018_Apr_26_1056,Jerry,MP,orientation,8,6,0,0-0;0-0;0-0;0-0,1,SimpleHill,0-0,0,2,selected,10-7,8-13;14-6;6-5;14-11;13-8;8-14,14-6,0.75,35,4,533.603881191
GEMS244,2018_Apr_26_1056,Jerry,MP,orientation,8,6,0,0-0;0-0;0-0;0-0,1,SimpleHill,0-0,0,3,selected,14-6,9-9;11-1;10-1;14-3;19-6;17-4,9-9,2.33,32,-3,539.483231453
GEMS244,2018_Apr_26_1056,Jerry,MP,orientation,8,6,0,0-0;0-0;0-0;0-0,1,SimpleHill,0-0,0,4,selected,9-9,8-13;12-16;10-4;6-16;13-7;10-6,13-7,1.91,35,3,544.961778667
GEMS244,2018_Apr_26_1056,Jerry,MP,orientation,8,6,0,0-0;0-0;0-0;0-0,1,SimpleHill,0-0,0,5,selected,13-7,10-5;13-4;8-11;11-5;7-2;12-14,12-14,2.0,45,10,550.512149927
GEMS244,2018_Apr_26_1056,Jerry,MP,orientation,8,6,0,0-0;0-0;0-0;0-0,1,SimpleHill,0-0,0,6,selected,12-14,12-22;5-17;12-20;9-11;6-19;11-11,12-22,2.22,55,10,556.285526391
GEMS244,2018_Apr_26_1056,Jerry,MP,orientation,8,6,0,0-0;0-0;0-0;0-0,1,SimpleHill,0-0,0,7,selected,12-22,17-21;17-28;15-18;16-26;6-21;7-21,16-26,1.89,65,10,561.731536481
GEMS244,2018_Apr_26_1056,Jerry,MP,orientation,8,6,0,0-0;0-0;0-0;0-0,1,SimpleHill,0-0,0,8,selected,16-26,17-23;9-29;12-23;23-26;17-28;12-21,17-23,0.6,63,-2,565.880628074
GEMS244,2018_Apr_26_1056,Jerry,MP,orientation,8,6,0,0-0;0-0;0-0;0-0,1,SimpleHill,0-0,0,9,selected,17-23,24-21;14-21;22-29;11-18;22-25;11-21,22-29,0.49,75,12,569.919601625
GEMS244,2018_Apr_26_1056,Jerry,MP,orientation,8,6,0,0-0;0-0;0-0;0-0,1,SimpleHill,0-0,0,10,selected,22-29,25-30;29-31;24-34;20-24;18-30;25-32,25-32,0.5,81,6,573.977083269
GEMS244,2018_Apr_26_1056,Jerry,MP,orientation,8,6,0,0-0;0-0;0-0;0-0,1,SimpleHill,0-0,0,11,selected,25-32,30-31;22-26;25-34;18-35;29-33;30-33,22-26,0.59,72,-9,578.122478108
GEMS244,2018_Apr_26_1056,Jerry,MP,orientation,8,6,0,0-0;0-0;0-0;0-0,1,SimpleHill,0-0,0,12,selected,22-26,30-26;18-24;27-28;16-25;24-25;18-29,24-25,0.46,73,1,582.123068359
GEMS244,2018_Apr_26_1056,Jerry,MP,orientation,8,6,0,0-0;0-0;0-0;0-0,1,SimpleHill,0-0,0,13,selected,24-25,24-24;23-27;26-25;23-29;19-25;19-22,26-25,0.52,75,2,586.203060536
GEMS244,2018_Apr_26_1056,Jerry,MP,orientation,8,6,0,0-0;0-0;0-0;0-0,1,SimpleHill,0-0,0,14,selected,26-25,28-19;27-19;33-25;19-22;27-21;28-26,28-19,0.68,71,-4,590.447229324
GEMS244,2018_Apr_26_1056,Jerry,MP,orientation,8,6,0,0-0;0-0;0-0;0-0,1,SimpleHill,0-0,0,15,selected,28-19,29-16;23-15;27-24;31-20;31-18;33-14,31-20,0.81,74,3,594.815328481
GEMS244,2018_Apr_26_1056,Jerry,MP,orientation,8,6,0,0-0;0-0;0-0;0-0,1,SimpleHill,0-0,0,16,selected,31-20,29-14;34-17;34-20;34-18;27-18;31-25,34-17,0.5,73,-1,598.889137103
GEMS244,2018_Apr_26_1056,Jerry,MP,orientation,8,6,0,0-0;0-0;0-0;0-0,1,SimpleHill,0-0,0,17,selected,34-17,32-22;32-14;41-16;32-24;35-18;32-18,32-18,0.47,73,0,602.938178217
GEMS244,2018_Apr_26_1056,Jerry,MP,orientation,8,6,0,0-0;0-0;0-0;0-0,1,SimpleHill,0-0,0,18,selected,32-18,37-14;31-19;28-18;31-15;37-17;28-13,28-18,0.37,69,-4,606.857967417
GEMS244,2018_Apr_26_1056,Jerry,MP,orientation,8,6,0,0-0;0-0;0-0;0-0,1,SimpleHill,0-0,0,19,selected,28-18,30-21;29-13;25-17;35-21;21-20;33-24,35-21,0.29,78,9,610.71551167
GEMS244,2018_Apr_26_1056,Jerry,MP,orientation,8,6,0,0-0;0-0;0-0;0-0,1,SimpleHill,0-0,0,20,selected,35-21,36-22;32-15;40-17;40-16;31-21;43-21,32-15,0.81,69,-9,615.075688208
GEMS244,2018_Apr_26_1056,Jerry,MP,orientation,8,6,0,0-0;0-0;0-0;0-0,1,SimpleHill,0-0,0,21,selected,32-15,36-11;28-10;28-21;35-20;28-14;25-12,28-14,0.36,64,-5,618.989648836
GEMS244,2018_Apr_26_1056,Jerry,MP,orientation,8,6,0,0-0;0-0;0-0;0-0,1,SimpleHill,0-0,0,22,selected,28-14,35-15;32-11;28-16;29-14;26-11;27-18,35-15,0.37,71,7,622.91620608
GEMS244,2018_Apr_26_1056,Jerry,MP,orientation,8,6,0,0-0;0-0;0-0;0-0,1,SimpleHill,0-0,0,23,selected,35-15,35-9;42-14;32-16;38-22;29-10;34-16,38-22,0.95,81,10,627.411215671
GEMS244,2018_Apr_26_1056,Jerry,MP,orientation,8,6,0,0-0;0-0;0-0;0-0,1,SimpleHill,0-0,0,24,selected,38-22,42-21;37-16;42-16;43-21;37-29;34-24,34-24,0.71,81,0,631.671387183
GEMS244,2018_Apr_26_1056,Jerry,MP,orientation,8,6,0,0-0;0-0;0-0;0-0,1,SimpleHill,0-0,0,25,selected,34-24,36-30;32-17;34-30;34-32;40-22;31-29,32-17,0.3,71,-10,635.519411554
GEMS244,2018_Apr_26_1056,Jerry,MP,orientation,8,6,0,0-0;0-0;0-0;0-0,1,SimpleHill,0-0,0,26,selected,32-17,36-17;32-22;38-13;29-19;30-17;36-20,30-17,0.3,70,-1,639.395482145
GEMS244,2018_Apr_26_1056,Jerry,MP,orientation,8,6,0,0-0;0-0;0-0;0-0,1,SimpleHill,0-0,0,27,selected,30-17,37-17;26-18;25-13;36-13;34-22;29-11,29-11,2.05,60,-10,644.993460502
GEMS244,2018_Apr_26_1056,Jerry,MP,orientation,8,6,0,0-0;0-0;0-0;0-0,1,SimpleHill,0-0,0,28,selected,29-11,32-11;28-17;25-5;23-13;26-5;31-10,28-17,0.76,68,8,649.29096669
GEMS244,2018_Apr_26_1056,Jerry,MP,orientation,8,6,0,0-0;0-0;0-0;0-0,1,SimpleHill,0-0,0,29,selected,28-17,30-20;22-12;25-19;26-10;30-19;28-19,30-20,0.92,74,6,653.736778323
GEMS244,2018_Apr_26_1056,Jerry,MP,orientation,8,6,0,0-0;0-0;0-0;0-0,1,SimpleHill,0-0,0,30,selected,30-20,32-27;30-13;27-22;34-17;23-20;26-21,27-22,1.12,73,-1,658.40369893
GEMS244,2018_Apr_26_1056,Jerry,MP,orientation,8,6,0,0-0;0-0;0-0;0-0,1,SimpleHill,0-0,0,31,selected,27-22,28-19;21-18;30-22;30-18;22-27;21-27,21-27,1.05,72,-1,663.002486162
GEMS244,2018_Apr_26_1056,Jerry,MP,orientation,8,6,0,0-0;0-0;0-0;0-0,1,SimpleHill,0-0,0,32,selected,21-27,15-24;17-22;15-27;24-21;17-32;15-30,17-22,0.3,62,-10,666.846226729
GEMS244,2018_Apr_26_1056,Jerry,MP,orientation,8,6,0,0-0;0-0;0-0;0-0,1,SimpleHill,0-0,0,33,selected,17-22,16-21;22-16;18-21;11-18;16-28;12-19,16-28,0.32,67,5,670.693212398
GEMS244,2018_Apr_26_1056,Jerry,MP,orientation,8,6,0,0-0;0-0;0-0;0-0,1,SimpleHill,0-0,0,34,selected,16-28,15-35;14-34;12-33;20-28;19-28;14-26,20-28,0.44,72,5,674.680752142
GEMS244,2018_Apr_26_1056,Jerry,MP,orientation,8,6,0,0-0;0-0;0-0;0-0,1,SimpleHill,0-0,0,35,selected,20-28,14-23;13-29;14-33;25-29;16-34;23-26,14-33,0.9,68,-4,679.15852345
GEMS244,2018_Apr_26_1056,Jerry,MP,orientation,8,6,0,0-0;0-0;0-0;0-0,1,SimpleHill,0-0,0,36,selected,14-33,12-39;16-33;13-37;16-38;16-34;10-32,10-32,0.25,61,-7,682.952116342
GEMS244,2018_Apr_26_1056,Jerry,MP,orientation,8,6,0,0-0;0-0;0-0;0-0,1,SimpleHill,0-0,0,37,selected,10-32,7-26;14-26;12-28;16-30;12-31;5-37,14-26,0.35,62,1,686.868399564
GEMS244,2018_Apr_26_1056,Jerry,MP,orientation,8,6,0,0-0;0-0;0-0;0-0,1,SimpleHill,0-0,0,38,selected,14-26,20-27;17-33;9-20;9-23;8-26;15-25,8-26,0.47,53,-9,690.875943514
GEMS244,2018_Apr_26_1056,Jerry,MP,orientation,8,6,0,0-0;0-0;0-0;0-0,1,SimpleHill,0-0,0,39,selected,8-26,9-29;10-28;6-27;7-21;15-28;8-30,9-29,0.52,57,4,694.964326286
GEMS244,2018_Apr_26_1056,Jerry,MP,orientation,8,6,0,0-0;0-0;0-0;0-0,2,SimpleHill,0-0,0,0,selected,0-0,0-2;3-5;1-2;3-1;0-4;5-6,5-6,1.77,20,20,713.171983677
GEMS244,2018_Apr_26_1056,Jerry,MP,orientation,8,6,0,0-0;0-0;0-0;0-0,2,SimpleHill,0-0,0,1,selected,5-6,4-9;5-1;10-3;2-9;2-13;5-8,5-1,1.26,11,-9,717.963022228
GEMS244,2018_Apr_26_1056,Jerry,MP,orientation,8,6,0,0-0;0-0;0-0;0-0,2,SimpleHill,0-0,0,2,selected,5-1,8-8;0-0;2-5;11-5;6-3;2-1,6-3,0.6,17,6,722.131025549
GEMS244,2018_Apr_26_1056,Jerry,MP,orientation,8,6,0,0-0;0-0;0-0;0-0,2,SimpleHill,0-0,0,3,selected,6-3,7-6;6-2;4-6;5-8;1-1;0-7,0-7,0.5,13,-4,726.198900289
GEMS244,2018_Apr_26_1056,Jerry,MP,orientation,8,6,0,0-0;0-0;0-0;0-0,2,SimpleHill,0-0,0,4,selected,0-7,3-6;6-8;7-8;5-9;5-2;3-10,5-9,0.52,25,12,730.27139493
GEMS244,2018_Apr_26_1056,Jerry,MP,orientation,8,6,0,0-0;0-0;0-0;0-0,2,SimpleHill,0-0,0,5,selected,5-9,7-9;5-8;9-12;6-8;7-13;12-7,7-9,0.26,29,4,734.098612621
GEMS244,2018_Apr_26_1056,Jerry,MP,orientation,8,6,0,0-0;0-0;0-0;0-0,2,SimpleHill,0-0,0,6,selected,7-9,11-8;1-9;11-13;8-8;13-11;5-16,11-13,0.35,42,13,738.0215
GEMS244,2018_Apr_26_1056,Jerry,MP,orientation,8,6,0,0-0;0-0;0-0;0-0,2,SimpleHill,0-0,0,7,selected,11-13,10-17;5-11;12-16;14-16;9-19;14-12,9-19,0.44,47,5,742.007312523
GEMS244,2018_Apr_26_1056,Jerry,MP,orientation,8,6,0,0-0;0-0;0-0;0-0,2,SimpleHill,0-0,0,8,selected,9-19,3-14;14-22;11-17;5-18;5-25;2-19,14-22,0.38,58,11,745.962992139
GEMS244,2018_Apr_26_1056,Jerry,MP,orientation,8,6,0,0-0;0-0;0-0;0-0,2,SimpleHill,0-0,0,9,selected,14-22,20-17;19-16;20-19;10-20;7-19;18-27,18-27,0.33,68,10,749.866865039
GEMS244,2018_Apr_26_1056,Jerry,MP,orientation,8,6,0,0-0;0-0;0-0;0-0,2,SimpleHill,0-0,0,10,selected,18-27,12-31;23-23;16-21;11-27;18-25;20-26,11-27,0.4,59,-9,753.832215302
GEMS244,2018_Apr_26_1056,Jerry,MP,orientation,8,6,0,0-0;0-0;0-0;0-0,2,SimpleHill,0-0,0,11,selected,11-27,6-22;8-21;14-30;14-28;9-27;10-27,14-30,0.27,66,7,757.661702773
GEMS244,2018_Apr_26_1056,Jerry,MP,orientation,8,6,0,0-0;0-0;0-0;0-0,2,SimpleHill,0-0,0,12,selected,14-30,16-33;18-33;9-27;17-31;8-27;11-30,8-27,0.38,54,-12,761.625570686
GEMS244,2018_Apr_26_1056,Jerry,MP,orientation,8,6,0,0-0;0-0;0-0;0-0,2,SimpleHill,0-0,0,13,selected,8-27,9-21;7-32;5-33;12-31;2-26;14-24,9-21,0.25,49,-5,765.452203888
GEMS244,2018_Apr_26_1056,Jerry,MP,orientation,8,6,0,0-0;0-0;0-0;0-0,2,SimpleHill,0-0,0,14,selected,9-21,14-23;3-24;5-26;10-25;3-26;8-15,3-24,0.45,42,-7,769.467245694
GEMS244,2018_Apr_26_1056,Jerry,MP,orientation,8,6,0,0-0;0-0;0-0;0-0,2,SimpleHill,0-0,0,15,selected,3-24,0-31;5-22;9-21;9-22;6-21;6-29,5-22,0.28,43,1,773.306872747
GEMS244,2018_Apr_26_1056,Jerry,MP,orientation,8,6,0,0-0;0-0;0-0;0-0,2,SimpleHill,0-0,0,16,selected,5-22,2-18;7-18;5-29;11-21;2-17;11-26,11-21,0.26,52,9,777.146476754
GEMS244,2018_Apr_26_1056,Jerry,MP,orientation,8,6,0,0-0;0-0;0-0;0-0,2,SimpleHill,0-0,0,17,selected,11-21,16-17;15-27;5-22;8-16;7-17;15-25,7-17,0.4,41,-11,781.114544285
GEMS244,2018_Apr_26_1056,Jerry,MP,orientation,8,6,0,0-0;0-0;0-0;0-0,2,SimpleHill,0-0,0,18,selected,7-17,1-21;12-23;3-17;0-20;10-24;2-14,2-14,0.41,28,-13,785.075712855
GEMS244,2018_Apr_26_1056,Jerry,MP,orientation,8,6,0,0-0;0-0;0-0;0-0,2,SimpleHill,0-0,0,19,selected,2-14,9-12;6-8;4-9;3-18;4-10;8-11,9-12,0.31,37,9,788.918936152
GEMS244,2018_Apr_26_1056,Jerry,MP,orientation,8,6,0,0-0;0-0;0-0;0-0,2,SimpleHill,0-0,0,20,selected,9-12,6-15;14-6;10-18;15-9;6-7;6-5,10-18,0.39,47,10,792.859498741
GEMS244,2018_Apr_26_1056,Jerry,MP,orientation,8,6,0,0-0;0-0;0-0;0-0,2,SimpleHill,0-0,0,21,selected,10-18,12-17;17-21;5-12;11-18;4-20;4-15,17-21,0.65,61,14,797.066836039
GEMS244,2018_Apr_26_1056,Jerry,MP,orientation,8,6,0,0-0;0-0;0-0;0-0,2,SimpleHill,0-0,0,22,selected,17-21,11-17;12-18;16-19;18-19;17-16;14-23,18-19,0.53,60,-1,801.165030619
GEMS244,2018_Apr_26_1056,Jerry,MP,orientation,8,6,0,0-0;0-0;0-0;0-0,2,SimpleHill,0-0,0,23,selected,18-19,13-25;25-16;12-16;21-25;14-20;16-19,13-25,0.44,60,0,805.186049839
GEMS244,2018_Apr_26_1056,Jerry,MP,orientation,8,6,0,0-0;0-0;0-0;0-0,2,SimpleHill,0-0,0,24,selected,13-25,10-21;8-30;13-17;11-26;8-21;12-20,8-21,0.27,47,-13,809.001294456
GEMS244,2018_Apr_26_1056,Jerry,MP,orientation,8,6,0,0-0;0-0;0-0;0-0,2,SimpleHill,0-0,0,25,selected,8-21,8-28;3-23;14-24;4-18;12-16;5-18,14-24,0.32,60,13,812.891349585
GEMS244,2018_Apr_26_1056,Jerry,MP,orientation,8,6,0,0-0;0-0;0-0;0-0,2,SimpleHill,0-0,0,26,selected,14-24,17-22;10-26;10-23;17-31;14-30;17-30,17-30,0.43,70,10,816.883002523
GEMS244,2018_Apr_26_1056,Jerry,MP,orientation,8,6,0,0-0;0-0;0-0;0-0,2,SimpleHill,0-0,0,27,selected,17-30,13-33;18-24;18-27;17-22;22-26;19-31,18-24,0.4,66,-4,820.827635093
GEMS244,2018_Apr_26_1056,Jerry,MP,orientation,8,6,0,0-0;0-0;0-0;0-0,2,SimpleHill,0-0,0,28,selected,18-24,23-22;15-24;21-25;24-25;12-27;19-22,12-27,0.37,60,-6,824.757383983
GEMS244,2018_Apr_26_1056,Jerry,MP,orientation,8,6,0,0-0;0-0;0-0;0-0,2,SimpleHill,0-0,0,29,selected,12-27,17-21;16-31;11-23;7-29;11-27;7-27,7-29,1.24,54,-6,829.571028776
GEMS244,2018_Apr_26_1056,Jerry,MP,orientation,8,6,0,0-0;0-0;0-0;0-0,2,SimpleHill,0-0,0,30,selected,7-29,12-33;0-27;3-25;5-29;11-28;2-31,2-31,0.57,46,-8,833.683625616
GEMS244,2018_Apr_26_1056,Jerry,MP,orientation,8,6,0,0-0;0-0;0-0;0-0,2,SimpleHill,0-0,0,31,selected,2-31,1-29;1-30;8-27;2-37;8-31;5-29,8-27,0.46,54,8,837.677168702
GEMS244,2018_Apr_26_1056,Jerry,MP,orientation,8,6,0,0-0;0-0;0-0;0-0,2,SimpleHill,0-0,0,32,selected,8-27,10-32;9-28;7-23;7-30;7-26;4-27,7-26,1.03,51,-3,842.28117889
GEMS244,2018_Apr_26_1056,Jerry,MP,orientation,8,6,0,0-0;0-0;0-0;0-0,2,SimpleHill,0-0,0,33,selected,7-26,6-24;2-30;5-30;2-25;6-30;5-33,5-33,0.67,53,2,846.51615973
GEMS244,2018_Apr_26_1056,Jerry,MP,orientation,8,6,0,0-0;0-0;0-0;0-0,2,SimpleHill,0-0,0,34,selected,5-33,8-32;2-30;1-32;7-38;5-25;8-33,2-30,0.29,45,-8,850.368489991
GEMS244,2018_Apr_26_1056,Jerry,MP,orientation,8,6,0,0-0;0-0;0-0;0-0,2,SimpleHill,0-0,0,35,selected,2-30,3-37;7-28;0-36;7-29;2-34;3-32,7-29,0.55,54,9,854.486370284
GEMS244,2018_Apr_26_1056,Jerry,MP,orientation,8,6,0,0-0;0-0;0-0;0-0,2,SimpleHill,0-0,0,36,selected,7-29,11-29;5-35;7-36;6-32;1-27;6-22,11-29,0.36,60,6,858.392698297
GEMS244,2018_Apr_26_1056,Jerry,MP,orientation,8,6,0,0-0;0-0;0-0;0-0,2,SimpleHill,0-0,0,37,selected,11-29,11-33;6-27;11-28;8-25;5-26;10-27,11-28,0.58,59,-1,862.51781333
GEMS244,2018_Apr_26_1056,Jerry,MP,orientation,8,6,0,0-0;0-0;0-0;0-0,2,SimpleHill,0-0,0,38,selected,11-28,7-26;5-24;9-31;4-30;12-29;11-31,5-24,0.36,45,-14,866.419279132
GEMS244,2018_Apr_26_1056,Jerry,MP,orientation,8,6,0,0-0;0-0;0-0;0-0,2,SimpleHill,0-0,0,39,selected,5-24,10-27;1-24;4-27;7-22;10-29;3-25,3-25,0.46,43,-2,870.429439201
GEMS244,2018_Apr_26_1056,Jerry,MP,orientation,8,6,0,0-0;0-0;0-0;0-0,3,SimpleHill,0-0,0,0,selected,0-0,0-0;5-0;5-4;4-0;3-3;4-2,5-4,1.57,17,17,884.416745916
GEMS244,2018_Apr_26_1056,Jerry,MP,orientation,8,6,0,0-0;0-0;0-0;0-0,3,SimpleHill,0-0,0,1,selected,5-4,6-8;0-9;3-7;8-7;1-8;0-0,6-8,1.11,26,9,889.049954659
GEMS244,2018_Apr_26_1056,Jerry,MP,orientation,8,6,0,0-0;0-0;0-0;0-0,3,SimpleHill,0-0,0,2,selected,6-8,13-8;12-4;10-12;9-4;1-13;1-9,12-4,0.54,28,2,893.149362391
GEMS244,2018_Apr_26_1056,Jerry,MP,orientation,8,6,0,0-0;0-0;0-0;0-0,3,SimpleHill,0-0,0,3,selected,12-4,15-2;12-6;14-1;11-6;16-6;18-4,11-6,0.61,30,2,897.306075395
GEMS244,2018_Apr_26_1056,Jerry,MP,orientation,8,6,0,0-0;0-0;0-0;0-0,3,SimpleHill,0-0,0,4,selected,11-6,14-4;14-10;3-6;15-2;13-8;9-8,13-8,0.48,37,7,901.346039635
GEMS244,2018_Apr_26_1056,Jerry,MP,orientation,8,6,0,0-0;0-0;0-0;0-0,3,SimpleHill,0-0,0,5,selected,13-8,19-9;10-9;13-8;9-13;17-4;8-13,19-9,0.82,47,10,905.739290412
GEMS244,2018_Apr_26_1056,Jerry,MP,orientation,8,6,0,0-0;0-0;0-0;0-0,3,SimpleHill,0-0,0,6,selected,19-9,22-13;20-5;16-6;24-5;15-6;13-9,16-6,0.24,38,-9,909.520019731
GEMS244,2018_Apr_26_1056,Jerry,MP,orientation,8,6,0,0-0;0-0;0-0;0-0,3,SimpleHill,0-0,0,7,selected,16-6,20-8;10-5;17-1;20-1;21-7;21-3,21-7,0.33,46,8,913.413613487
GEMS244,2018_Apr_26_1056,Jerry,MP,orientation,8,6,0,0-0;0-0;0-0;0-0,3,SimpleHill,0-0,0,8,selected,21-7,22-6;18-3;24-11;15-2;24-10;20-2,20-2,0.48,35,-11,917.464783859
GEMS244,2018_Apr_26_1056,Jerry,MP,orientation,8,6,0,0-0;0-0;0-0;0-0,3,SimpleHill,0-0,0,9,selected,20-2,19-4;14-7;16-8;21-9;18-8;20-0,21-9,0.33,49,14,921.346662215
GEMS244,2018_Apr_26_1056,Jerry,MP,orientation,8,6,0,0-0;0-0;0-0;0-0,3,SimpleHill,0-0,0,10,selected,21-9,14-12;23-3;23-16;27-4;27-9;18-6,23-3,1.49,41,-8,926.408518248
GEMS244,2018_Apr_26_1056,Jerry,MP,orientation,8,6,0,0-0;0-0;0-0;0-0,3,SimpleHill,0-0,0,11,selected,23-3,15-3;28-5;21-9;27-6;22-4;20-10,20-10,0.64,50,9,930.588554822
GEMS244,2018_Apr_26_1056,Jerry,MP,orientation,8,6,0,0-0;0-0;0-0;0-0,3,SimpleHill,0-0,0,12,selected,20-10,24-15;15-15;20-5;22-16;17-12;19-15,17-12,0.31,49,-1,934.468874326
GEMS244,2018_Apr_26_1056,Jerry,MP,orientation,8,6,0,0-0;0-0;0-0;0-0,3,SimpleHill,0-0,0,13,selected,17-12,16-8;13-18;11-7;21-14;11-10;17-14,11-7,0.58,32,-17,938.616874082
GEMS244,2018_Apr_26_1056,Jerry,MP,orientation,8,6,0,0-0;0-0;0-0;0-0,3,SimpleHill,0-0,0,14,selected,11-7,12-10;14-13;17-11;17-5;11-13;10-3,12-10,0.27,39,7,942.454697732
GEMS244,2018_Apr_26_1056,Jerry,MP,orientation,8,6,0,0-0;0-0;0-0;0-0,3,SimpleHill,0-0,0,15,selected,12-10,15-11;17-10;8-16;19-9;10-5;13-11,19-9,0.96,47,8,946.963621122
GEMS244,2018_Apr_26_1056,Jerry,MP,orientation,8,6,0,0-0;0-0;0-0;0-0,3,SimpleHill,0-0,0,16,selected,19-9,16-4;14-13;19-15;20-12;16-3;26-6,14-13,0.84,46,-1,951.339462686
GEMS244,2018_Apr_26_1056,Jerry,MP,orientation,8,6,0,0-0;0-0;0-0;0-0,3,SimpleHill,0-0,0,17,selected,14-13,9-8;14-16;13-13;8-16;14-8;17-18,17-18,0.42,57,11,955.316423999
GEMS244,2018_Apr_26_1056,Jerry,MP,orientation,8,6,0,0-0;0-0;0-0;0-0,3,SimpleHill,0-0,0,18,selected,17-18,11-14;19-20;21-24;13-12;12-16;19-15,21-24,0.54,69,12,959.416212642
GEMS244,2018_Apr_26_1056,Jerry,MP,orientation,8,6,0,0-0;0-0;0-0;0-0,3,SimpleHill,0-0,0,19,selected,21-24,23-24;28-25;22-24;15-27;24-27;21-26,24-27,0.33,75,6,963.297703686
GEMS244,2018_Apr_26_1056,Jerry,MP,orientation,8,6,0,0-0;0-0;0-0;0-0,3,SimpleHill,0-0,0,20,selected,24-27,26-23;17-27;27-20;17-28;27-24;21-23,26-23,0.35,73,-2,967.21371963
GEMS244,2018_Apr_26_1056,Jerry,MP,orientation,8,6,0,0-0;0-0;0-0;0-0,3,SimpleHill,0-0,0,21,selected,26-23,30-17;26-22;32-24;27-24;28-30;28-17,26-22,0.31,72,-1,971.075286491
GEMS244,2018_Apr_26_1056,Jerry,MP,orientation,8,6,0,0-0;0-0;0-0;0-0,3,SimpleHill,0-0,0,22,selected,26-22,21-18;19-22;24-18;33-22;25-23;27-22,24-18,2.25,66,-6,976.878320524
GEMS244,2018_Apr_26_1056,Jerry,MP,orientation,8,6,0,0-0;0-0;0-0;0-0,3,SimpleHill,0-0,0,23,selected,24-18,21-24;27-22;26-18;22-12;31-17;27-16,27-16,0.43,66,0,980.87365549
GEMS244,2018_Apr_26_1056,Jerry,MP,orientation,8,6,0,0-0;0-0;0-0;0-0,3,SimpleHill,0-0,0,24,selected,27-16,26-21;27-20;29-21;30-11;28-14;27-21,30-11,0.4,61,-5,984.816285239
GEMS244,2018_Apr_26_1056,Jerry,MP,orientation,8,6,0,0-0;0-0;0-0;0-0,3,SimpleHill,0-0,0,25,selected,30-11,33-10;36-11;34-10;34-15;24-15;31-10,33-10,0.28,62,1,988.664935711
GEMS244,2018_Apr_26_1056,Jerry,MP,orientation,8,6,0,0-0;0-0;0-0;0-0,3,SimpleHill,0-0,0,26,selected,33-10,36-6;38-15;37-6;29-10;36-11;38-13,37-6,0.37,57,-5,992.604163832
GEMS244,2018_Apr_26_1056,Jerry,MP,orientation,8,6,0,0-0;0-0;0-0;0-0,3,SimpleHill,0-0,0,27,selected,37-6,41-8;30-5;40-13;42-1;33-9;43-7,33-9,0.48,60,3,996.645363951
GEMS244,2018_Apr_26_1056,Jerry,MP,orientation,8,6,0,0-0;0-0;0-0;0-0,3,SimpleHill,0-0,0,28,selected,33-9,38-6;38-14;35-3;34-13;40-10;39-11,38-14,0.5,71,11,1000.71528921
GEMS244,2018_Apr_26_1056,Jerry,MP,orientation,8,6,0,0-0;0-0;0-0;0-0,3,SimpleHill,0-0,0,29,selected,38-14,31-16;38-15;45-11;41-15;43-16;32-14,32-14,0.34,67,-4,1004.59975679
GEMS244,2018_Apr_26_1056,Jerry,MP,orientation,8,6,0,0-0;0-0;0-0;0-0,3,SimpleHill,0-0,0,30,selected,32-14,31-20;37-19;28-14;33-20;29-11;34-8,28-14,0.32,64,-3,1008.45228327
GEMS244,2018_Apr_26_1056,Jerry,MP,orientation,8,6,0,0-0;0-0;0-0;0-0,3,SimpleHill,0-0,0,31,selected,28-14,26-10;26-19;29-17;31-16;21-17;22-15,26-10,0.66,56,-8,1012.67637583
GEMS244,2018_Apr_26_1056,Jerry,MP,orientation,8,6,0,0-0;0-0;0-0;0-0,3,SimpleHill,0-0,0,32,selected,26-10,29-7;32-5;29-14;23-16;25-8;26-13,23-16,0.4,62,6,1016.64268477
GEMS244,2018_Apr_26_1056,Jerry,MP,orientation,8,6,0,0-0;0-0;0-0;0-0,3,SimpleHill,0-0,0,33,selected,23-16,28-13;16-19;26-9;19-18;26-12;22-21,19-18,0.27,60,-2,1020.45549412
GEMS244,2018_Apr_26_1056,Jerry,MP,orientation,8,6,0,0-0;0-0;0-0;0-0,3,SimpleHill,0-0,0,34,selected,19-18,14-20;22-12;20-22;25-13;18-23;21-24,25-13,0.41,60,0,1024.44042095
GEMS244,2018_Apr_26_1056,Jerry,MP,orientation,8,6,0,0-0;0-0;0-0;0-0,3,SimpleHill,0-0,0,35,selected,25-13,28-9;26-15;27-9;30-11;25-17;23-16,26-15,0.39,63,3,1028.40721707
GEMS244,2018_Apr_26_1056,Jerry,MP,orientation,8,6,0,0-0;0-0;0-0;0-0,3,SimpleHill,0-0,0,36,selected,26-15,21-19;30-18;30-13;29-16;29-14;25-14,29-16,0.45,68,5,1032.43548223
GEMS244,2018_Apr_26_1056,Jerry,MP,orientation,8,6,0,0-0;0-0;0-0;0-0,3,SimpleHill,0-0,0,37,selected,29-16,32-10;29-21;29-11;34-14;36-17;34-22,36-17,0.41,74,6,1036.42699689
GEMS244,2018_Apr_26_1056,Jerry,MP,orientation,8,6,0,0-0;0-0;0-0;0-0,3,SimpleHill,0-0,0,38,selected,36-17,35-19;30-12;31-16;35-23;31-11;42-19,42-19,0.31,79,5,1040.32127853
GEMS244,2018_Apr_26_1056,Jerry,MP,orientation,8,6,0,0-0;0-0;0-0;0-0,3,SimpleHill,0-0,0,39,selected,42-19,40-26;35-22;47-20;40-25;45-13;38-21,47-20,0.35,81,2,1044.21349685
GEMS244,2018_Apr_26_1056,Jerry,MP,orientation,8,6,0,0-0;0-0;0-0;0-0,4,SimpleHill,0-0,0,0,selected,0-0,6-3;7-3;6-1;4-2;0-2;5-1,6-1,1.44,13,13,1056.23003605
GEMS244,2018_Apr_26_1056,Jerry,MP,orientation,8,6,0,0-0;0-0;0-0;0-0,4,SimpleHill,0-0,0,1,selected,6-1,10-0;10-5;6-1;0-6;4-2;3-4,10-0,0.96,18,5,1060.74165654
GEMS244,2018_Apr_26_1056,Jerry,MP,orientation,8,6,0,0-0;0-0;0-0;0-0,4,SimpleHill,0-0,0,2,selected,10-0,13-5;14-3;9-5;4-0;5-5;12-7,14-3,0.63,29,11,1064.92617953
GEMS244,2018_Apr_26_1056,Jerry,MP,orientation,8,6,0,0-0;0-0;0-0;0-0,4,SimpleHill,0-0,0,3,selected,14-3,13-1;10-6;18-9;9-1;6-3;20-8,6-3,1.07,17,-12,1069.57157549
GEMS244,2018_Apr_26_1056,Jerry,MP,orientation,8,6,0,0-0;0-0;0-0;0-0,4,SimpleHill,0-0,0,4,selected,6-3,8-10;10-8;7-1;4-9;6-5;7-4,10-8,1.9,32,15,1075.02048851
GEMS244,2018_Apr_26_1056,Jerry,MP,orientation,8,6,0,0-0;0-0;0-0;0-0,4,SimpleHill,0-0,0,5,selected,10-8,15-7;13-12;13-14;14-11;10-5;9-7,9-7,0.59,29,-3,1079.16796427
GEMS244,2018_Apr_26_1056,Jerry,MP,orientation,8,6,0,0-0;0-0;0-0;0-0,4,SimpleHill,0-0,0,6,selected,9-7,8-0;7-9;6-12;12-10;9-11;13-10,12-10,0.34,39,10,1083.05985225
GEMS244,2018_Apr_26_1056,Jerry,MP,orientation,8,6,0,0-0;0-0;0-0;0-0,4,SimpleHill,0-0,0,7,selected,12-10,18-10;16-14;15-14;15-7;11-9;19-13,18-10,0.4,47,8,1087.02426432
GEMS244,2018_Apr_26_1056,Jerry,MP,orientation,8,6,0,0-0;0-0;0-0;0-0,4,SimpleHill,0-0,0,8,selected,18-10,23-8;19-17;17-11;18-8;20-4;14-12,20-4,0.26,39,-8,1090.85252584
GEMS244,2018_Apr_26_1056,Jerry,MP,orientation,8,6,0,0-0;0-0;0-0;0-0,4,SimpleHill,0-0,0,9,selected,20-4,17-6;20-5;25-6;21-7;13-1;17-1,25-6,0.25,48,9,1094.65430318
GEMS244,2018_Apr_26_1056,Jerry,MP,orientation,8,6,0,0-0;0-0;0-0;0-0,4,SimpleHill,0-0,0,10,selected,25-6,27-1;30-8;28-9;25-11;21-3;29-5,29-5,0.24,50,2,1098.46653733
GEMS244,2018_Apr_26_1056,Jerry,MP,orientation,8,6,0,0-0;0-0;0-0;0-0,4,SimpleHill,0-0,0,11,selected,29-5,23-7;34-5;26-4;30-0;32-11;35-5,34-5,0.23,54,4,1102.26593158
GEMS244,2018_Apr_26_1056,Jerry,MP,orientation,8,6,0,0-0;0-0;0-0;0-0,4,SimpleHill,0-0,0,12,selected,34-5,39-5;28-10;31-12;32-3;33-1;39-7,32-3,0.26,49,-5,1106.0995809
GEMS244,2018_Apr_26_1056,Jerry,MP,orientation,8,6,0,0-0;0-0;0-0;0-0,4,SimpleHill,0-0,0,13,selected,32-3,33-3;25-3;30-6;31-1;30-0;31-4,33-3,0.27,50,1,1109.92563538
GEMS244,2018_Apr_26_1056,Jerry,MP,orientation,8,6,0,0-0;0-0;0-0;0-0,4,SimpleHill,0-0,0,14,selected,33-3,27-6;29-0;34-1;34-2;28-7;39-1,28-7,0.39,53,3,1113.8845204
GEMS244,2018_Apr_26_1056,Jerry,MP,orientation,8,6,0,0-0;0-0;0-0;0-0,4,SimpleHill,0-0,0,15,selected,28-7,28-3;33-9;26-4;34-10;25-2;31-5,26-4,0.29,46,-7,1117.73998309
GEMS244,2018_Apr_26_1056,Jerry,MP,orientation,8,6,0,0-0;0-0;0-0;0-0,4,SimpleHill,0-0,0,16,selected,26-4,30-1;28-8;24-0;33-2;20-2;23-1,23-1,0.28,37,-9,1121.58688842
GEMS244,2018_Apr_26_1056,Jerry,MP,orientation,8,6,0,0-0;0-0;0-0;0-0,4,SimpleHill,0-0,0,17,selected,23-1,27-1;18-6;18-4;20-2;19-2;20-3,18-6,0.29,40,3,1125.42474312
GEMS244,2018_Apr_26_1056,Jerry,MP,orientation,8,6,0,0-0;0-0;0-0;0-0,4,SimpleHill,0-0,0,18,selected,18-6,23-12;11-4;11-3;20-8;15-8;25-5,11-4,0.23,27,-13,1129.21323373
GEMS244,2018_Apr_26_1056,Jerry,MP,orientation,8,6,0,0-0;0-0;0-0;0-0,4,SimpleHill,0-0,0,19,selected,11-4,6-5;17-9;11-3;9-8;12-11;11-1,6-5,0.74,20,-7,1133.52770612
GEMS244,2018_Apr_26_1056,Jerry,MP,orientation,8,6,0,0-0;0-0;0-0;0-0,4,SimpleHill,0-0,0,20,selected,6-5,11-10;6-0;9-0;5-12;4-12;13-4,4-12,0.65,28,8,1137.74487795
GEMS244,2018_Apr_26_1056,Jerry,MP,orientation,8,6,0,0-0;0-0;0-0;0-0,4,SimpleHill,0-0,0,21,selected,4-12,1-13;7-11;11-9;4-16;6-11;2-16,2-16,0.29,30,2,1141.59497717
GEMS244,2018_Apr_26_1056,Jerry,MP,orientation,8,6,0,0-0;0-0;0-0;0-0,4,SimpleHill,0-0,0,22,selected,2-16,2-16;7-16;0-16;2-17;6-14;7-14,2-17,0.46,32,2,1145.63586423
GEMS244,2018_Apr_26_1056,Jerry,MP,orientation,8,6,0,0-0;0-0;0-0;0-0,4,SimpleHill,0-0,0,23,selected,2-17,6-16;2-24;5-22;2-11;1-15;4-22,6-16,0.43,38,6,1149.63191333
GEMS244,2018_Apr_26_1056,Jerry,MP,orientation,8,6,0,0-0;0-0;0-0;0-0,4,SimpleHill,0-0,0,24,selected,6-16,6-8;4-17;1-10;8-10;3-21;8-16,4-17,0.37,35,-3,1153.5627723
GEMS244,2018_Apr_26_1056,Jerry,MP,orientation,8,6,0,0-0;0-0;0-0;0-0,4,SimpleHill,0-0,0,25,selected,4-17,5-20;1-10;10-20;4-11;8-13;5-24,5-24,1.37,45,10,1158.47255988
GEMS244,2018_Apr_26_1056,Jerry,MP,orientation,8,6,0,0-0;0-0;0-0;0-0,4,SimpleHill,0-0,0,26,selected,5-24,1-18;4-26;8-21;5-26;5-23;3-24,4-26,0.88,46,1,1162.92803415
GEMS244,2018_Apr_26_1056,Jerry,MP,orientation,8,6,0,0-0;0-0;0-0;0-0,4,SimpleHill,0-0,0,27,selected,4-26,5-28;2-25;1-22;8-30;8-28;2-26,8-30,0.3,56,10,1166.7823349
GEMS244,2018_Apr_26_1056,Jerry,MP,orientation,8,6,0,0-0;0-0;0-0;0-0,4,SimpleHill,0-0,0,28,selected,8-30,6-24;11-27;8-24;6-33;13-26;6-27,6-24,0.39,47,-9,1170.73231047
GEMS244,2018_Apr_26_1056,Jerry,MP,orientation,8,6,0,0-0;0-0;0-0;0-0,4,SimpleHill,0-0,0,29,selected,6-24,7-18;8-22;1-28;3-17;8-29;3-18,8-29,0.67,55,8,1174.98249604
GEMS244,2018_Apr_26_1056,Jerry,MP,orientation,8,6,0,0-0;0-0;0-0;0-0,4,SimpleHill,0-0,0,30,selected,8-29,4-34;7-32;2-27;12-30;10-31;5-26,2-27,0.33,43,-12,1178.89099812
GEMS244,2018_Apr_26_1056,Jerry,MP,orientation,8,6,0,0-0;0-0;0-0;0-0,4,SimpleHill,0-0,0,31,selected,2-27,2-29;5-22;7-33;2-24;2-19;4-27,4-27,0.38,47,4,1182.84739731
GEMS244,2018_Apr_26_1056,Jerry,MP,orientation,8,6,0,0-0;0-0;0-0;0-0,4,SimpleHill,0-0,0,32,selected,4-27,7-32;4-22;7-24;4-34;0-30;8-25,4-34,1.07,52,5,1187.45346089
GEMS244,2018_Apr_26_1056,Jerry,MP,orientation,8,6,0,0-0;0-0;0-0;0-0,4,SimpleHill,0-0,0,33,selected,4-34,11-36;1-39;6-36;3-40;10-30;6-30,1-39,0.25,49,-3,1191.26367141
GEMS244,2018_Apr_26_1056,Jerry,MP,orientation,8,6,0,0-0;0-0;0-0;0-0,4,SimpleHill,0-0,0,34,selected,1-39,2-43;1-37;3-43;3-46;0-40;2-45,0-40,0.45,48,-1,1195.28145161
GEMS244,2018_Apr_26_1056,Jerry,MP,orientation,8,6,0,0-0;0-0;0-0;0-0,4,SimpleHill,0-0,0,35,selected,0-40,1-34;5-41;4-35;8-40;5-35;0-44,1-34,0.4,46,-2,1199.22537773
GEMS244,2018_Apr_26_1056,Jerry,MP,orientation,8,6,0,0-0;0-0;0-0;0-0,4,SimpleHill,0-0,0,36,selected,1-34,7-35;2-39;0-34;6-35;7-34;4-40,0-34,0.48,44,-2,1203.23803101
GEMS244,2018_Apr_26_1056,Jerry,MP,orientation,8,6,0,0-0;0-0;0-0;0-0,4,SimpleHill,0-0,0,37,selected,0-34,2-29;6-38;0-38;6-29;3-39;4-37,4-37,0.25,54,10,1207.04033171
GEMS244,2018_Apr_26_1056,Jerry,MP,orientation,8,6,0,0-0;0-0;0-0;0-0,4,SimpleHill,0-0,0,38,selected,4-37,2-30;5-44;11-37;4-34;2-33;7-43,5-44,0.35,58,4,1210.9303958
GEMS244,2018_Apr_26_1056,Jerry,MP,orientation,8,6,0,0-0;0-0;0-0;0-0,4,SimpleHill,0-0,0,39,selected,5-44,2-44;1-44;12-46;2-51;3-42;0-39,2-51,0.46,53,-5,1214.96281609
