subj_id,date,computer,experimenter,instructions,sight_radius,n_gabors,start_pos_list_ix,start_pos_list,landscape_ix,landscape_name,starting_pos,starting_score,trial,feedback,pos,stims,selected,rt,score,delta,exp_time
GEMS240,2018_Apr_24_1548,George,GH,orientation,8,6,20,15-22;7-24;21-30;25-13,0,OrientationBias,0-0,0,0,training,0-0,0-8;4-2;5-6;3-1;1-0;7-2,7-2,8.43,26,26,197.368076195
GEMS240,2018_Apr_24_1548,George,GH,orientation,8,6,20,15-22;7-24;21-30;25-13,0,OrientationBias,0-0,0,1,training,7-2,11-2;5-3;12-7;13-7;15-2;5-9,15-2,6.12,51,25,209.208816953
GEMS240,2018_Apr_24_1548,George,GH,orientation,8,6,20,15-22;7-24;21-30;25-13,0,OrientationBias,0-0,0,2,training,15-2,15-5;17-2;15-9;12-0;13-6;16-8,12-0,6.69,42,-9,221.768133171
GEMS240,2018_Apr_24_1548,George,GH,orientation,8,6,20,15-22;7-24;21-30;25-13,0,OrientationBias,0-0,0,3,training,12-0,12-8;14-7;14-0;15-4;10-3;18-2,14-7,8.61,48,6,235.885414816
GEMS240,2018_Apr_24_1548,George,GH,orientation,8,6,20,15-22;7-24;21-30;25-13,0,OrientationBias,0-0,0,4,training,14-7,21-8;19-3;20-6;18-1;20-7;14-15,18-1,8.41,59,11,250.143824051
GEMS240,2018_Apr_24_1548,George,GH,orientation,8,6,20,15-22;7-24;21-30;25-13,0,OrientationBias,0-0,0,5,training,18-1,16-4;18-4;13-3;22-0;23-4;12-5,23-4,4.31,70,11,261.606271256
GEMS240,2018_Apr_24_1548,George,GH,orientation,8,6,20,15-22;7-24;21-30;25-13,0,OrientationBias,0-0,0,6,training,23-4,31-4;17-7;26-2;26-1;28-2;24-4,31-4,4.75,85,15,269.378904931
GEMS240,2018_Apr_24_1548,George,GH,orientation,8,6,20,15-22;7-24;21-30;25-13,0,OrientationBias,0-0,0,7,training,31-4,23-4;38-3;32-2;31-9;37-9;37-3,37-3,6.39,93,8,278.567932153
GEMS240,2018_Apr_24_1548,George,GH,orientation,8,6,20,15-22;7-24;21-30;25-13,0,OrientationBias,0-0,0,8,training,37-3,33-2;32-0;34-2;40-6;34-7;40-9,40-6,6.12,96,3,288.003998918
GEMS240,2018_Apr_24_1548,George,GH,orientation,8,6,20,15-22;7-24;21-30;25-13,0,OrientationBias,0-0,0,9,training,40-6,36-11;43-13;37-8;46-11;38-10;48-6,48-6,6.35,99,3,298.04823893
GEMS240,2018_Apr_24_1548,George,GH,orientation,8,6,20,15-22;7-24;21-30;25-13,0,OrientationBias,0-0,0,10,training,48-6,48-11;51-4;51-10;48-13;56-6;51-1,56-6,9.77,98,-1,310.346630624
GEMS240,2018_Apr_24_1548,George,GH,orientation,8,6,20,15-22;7-24;21-30;25-13,0,OrientationBias,0-0,0,11,training,56-6,59-11;49-9;59-12;58-2;57-12;56-4,57-12,4.1,98,0,318.6556638
GEMS240,2018_Apr_24_1548,George,GH,orientation,8,6,20,15-22;7-24;21-30;25-13,0,OrientationBias,0-0,0,12,training,57-12,57-15;54-10;59-18;61-12;58-5;59-16,54-10,2.44,99,1,324.596992089
GEMS240,2018_Apr_24_1548,George,GH,orientation,8,6,20,15-22;7-24;21-30;25-13,0,OrientationBias,0-0,0,13,training,54-10,49-5;57-13;57-4;53-13;55-14;54-15,54-15,4.64,99,0,331.618552893
GEMS240,2018_Apr_24_1548,George,GH,orientation,8,6,20,15-22;7-24;21-30;25-13,0,OrientationBias,0-0,0,14,training,54-15,55-12;47-12;57-19;48-16;53-9;56-13,56-13,7.74,98,-1,342.114314065
GEMS240,2018_Apr_24_1548,George,GH,orientation,8,6,20,15-22;7-24;21-30;25-13,0,OrientationBias,0-0,0,15,training,56-13,56-12;57-16;54-15;51-12;58-12;54-10,58-12,4.14,97,-1,348.933339415
GEMS240,2018_Apr_24_1548,George,GH,orientation,8,6,20,15-22;7-24;21-30;25-13,0,OrientationBias,0-0,0,16,training,58-12,56-8;54-17;53-13;58-13;55-5;60-7,58-13,3.4,97,0,355.352991506
GEMS240,2018_Apr_24_1548,George,GH,orientation,8,6,20,15-22;7-24;21-30;25-13,0,OrientationBias,0-0,0,17,training,58-13,62-18;64-9;53-10;56-11;62-13;57-15,53-10,3.75,99,2,368.882687626
GEMS240,2018_Apr_24_1548,George,GH,orientation,8,6,20,15-22;7-24;21-30;25-13,0,OrientationBias,0-0,0,18,training,53-10,48-16;50-11;49-4;50-7;53-4;50-4,49-4,3.13,99,0,375.660577223
GEMS240,2018_Apr_24_1548,George,GH,orientation,8,6,20,15-22;7-24;21-30;25-13,0,OrientationBias,0-0,0,19,training,49-4,47-3;49-9;44-1;45-5;48-2;52-0,49-9,5.19,99,0,384.353191564
GEMS240,2018_Apr_24_1548,George,GH,orientation,8,6,20,15-22;7-24;21-30;25-13,0,OrientationBias,0-0,0,20,training,49-9,49-8;49-15;48-7;47-16;54-3;52-11,54-3,2.54,99,0,389.699962709
GEMS240,2018_Apr_24_1548,George,GH,orientation,8,6,20,15-22;7-24;21-30;25-13,0,OrientationBias,0-0,0,21,training,54-3,61-5;53-6;57-6;47-5;58-1;50-6,57-6,1.1,98,-1,394.071042974
GEMS240,2018_Apr_24_1548,George,GH,orientation,8,6,20,15-22;7-24;21-30;25-13,0,OrientationBias,0-0,0,22,training,57-6,64-7;62-11;60-7;54-6;51-4;56-3,54-6,1.94,99,1,399.296497706
GEMS240,2018_Apr_24_1548,George,GH,orientation,8,6,20,15-22;7-24;21-30;25-13,0,OrientationBias,0-0,0,23,training,54-6,60-5;52-11;59-0;57-6;56-10;56-6,57-6,2.17,98,-1,406.27817784
GEMS240,2018_Apr_24_1548,George,GH,orientation,8,6,20,15-22;7-24;21-30;25-13,0,OrientationBias,0-0,0,24,training,57-6,51-10;58-12;57-1;54-5;54-1;55-0,51-10,7.04,99,1,415.890245655
GEMS240,2018_Apr_24_1548,George,GH,orientation,8,6,20,15-22;7-24;21-30;25-13,0,OrientationBias,0-0,0,25,training,51-10,44-7;52-3;58-10;50-4;48-17;56-5,44-7,1.27,98,-1,419.197045544
GEMS240,2018_Apr_24_1548,George,GH,orientation,8,6,20,15-22;7-24;21-30;25-13,0,OrientationBias,0-0,0,26,training,44-7,47-3;45-1;42-13;48-10;46-3;44-7,48-10,0.64,99,1,422.757636692
GEMS240,2018_Apr_24_1548,George,GH,orientation,8,6,20,15-22;7-24;21-30;25-13,0,OrientationBias,0-0,0,27,training,48-10,52-12;44-16;44-5;48-17;50-6;52-9,44-16,0.69,98,-1,425.779749655
GEMS240,2018_Apr_24_1548,George,GH,orientation,8,6,20,15-22;7-24;21-30;25-13,0,OrientationBias,0-0,0,28,training,44-16,38-20;43-12;43-23;47-9;43-15;38-11,43-12,1.06,98,0,430.19706635
GEMS240,2018_Apr_24_1548,George,GH,orientation,8,6,20,15-22;7-24;21-30;25-13,0,OrientationBias,0-0,0,29,training,43-12,39-9;45-13;36-9;46-7;39-15;51-12,46-7,0.42,99,1,433.190808538
GEMS240,2018_Apr_24_1548,George,GH,orientation,8,6,20,15-22;7-24;21-30;25-13,1,SimpleHill,15-22,59,0,selected,15-22,18-23;10-16;11-19;12-25;19-18;12-24,19-18,1.79,60,1,445.066165081
GEMS240,2018_Apr_24_1548,George,GH,orientation,8,6,20,15-22;7-24;21-30;25-13,1,SimpleHill,15-22,59,1,selected,19-18,25-17;21-16;23-13;26-15;18-13;17-16,25-17,2.14,65,5,450.768696855
GEMS240,2018_Apr_24_1548,George,GH,orientation,8,6,20,15-22;7-24;21-30;25-13,1,SimpleHill,15-22,59,2,selected,25-17,29-21;22-14;23-14;33-17;31-19;31-16,33-17,2.03,72,7,456.360420538
GEMS240,2018_Apr_24_1548,George,GH,orientation,8,6,20,15-22;7-24;21-30;25-13,1,SimpleHill,15-22,59,3,selected,33-17,32-21;39-19;35-13;29-13;33-11;36-13,39-19,2.99,78,6,462.931288261
GEMS240,2018_Apr_24_1548,George,GH,orientation,8,6,20,15-22;7-24;21-30;25-13,1,SimpleHill,15-22,59,4,selected,39-19,36-22;45-18;33-19;45-19;37-13;36-15,45-19,4.53,80,2,471.022940083
GEMS240,2018_Apr_24_1548,George,GH,orientation,8,6,20,15-22;7-24;21-30;25-13,1,SimpleHill,15-22,59,5,selected,45-19,40-22;48-13;42-19;44-18;46-17;43-24,48-13,1.48,72,-8,476.062359179
GEMS240,2018_Apr_24_1548,George,GH,orientation,8,6,20,15-22;7-24;21-30;25-13,1,SimpleHill,15-22,59,6,selected,48-13,53-17;53-19;46-19;48-5;47-15;54-18,48-5,1.87,59,-13,481.510074438
GEMS240,2018_Apr_24_1548,George,GH,orientation,8,6,20,15-22;7-24;21-30;25-13,1,SimpleHill,15-22,59,7,selected,48-5,44-2;43-1;53-4;54-7;47-3;45-0,53-4,3.66,57,-2,488.732278948
GEMS240,2018_Apr_24_1548,George,GH,orientation,8,6,20,15-22;7-24;21-30;25-13,1,SimpleHill,15-22,59,8,selected,53-4,53-6;50-10;59-3;55-0;52-8;52-5,52-8,0.5,64,7,492.803084093
GEMS240,2018_Apr_24_1548,George,GH,orientation,8,6,20,15-22;7-24;21-30;25-13,1,SimpleHill,15-22,59,9,selected,52-8,50-9;52-9;58-9;56-6;49-12;56-14,56-14,2.69,73,9,499.082104738
GEMS240,2018_Apr_24_1548,George,GH,orientation,8,6,20,15-22;7-24;21-30;25-13,1,SimpleHill,15-22,59,10,selected,56-14,49-15;52-15;56-8;62-9;51-9;57-12,57-12,0.99,70,-3,503.652817536
GEMS240,2018_Apr_24_1548,George,GH,orientation,8,6,20,15-22;7-24;21-30;25-13,1,SimpleHill,15-22,59,11,selected,57-12,52-15;64-10;54-13;57-14;57-19;58-7,57-19,3.2,79,9,510.426629792
GEMS240,2018_Apr_24_1548,George,GH,orientation,8,6,20,15-22;7-24;21-30;25-13,1,SimpleHill,15-22,59,12,selected,57-19,63-19;60-20;61-15;57-20;57-24;58-14,57-24,1.57,85,6,515.568353715
GEMS240,2018_Apr_24_1548,George,GH,orientation,8,6,20,15-22;7-24;21-30;25-13,1,SimpleHill,15-22,59,13,selected,57-24,51-20;58-24;51-26;61-30;57-17;63-21,57-17,0.49,77,-8,519.633214739
GEMS240,2018_Apr_24_1548,George,GH,orientation,8,6,20,15-22;7-24;21-30;25-13,1,SimpleHill,15-22,59,14,selected,57-17,52-15;58-23;62-14;50-18;57-19;58-20,62-14,3.32,71,-6,526.5261751
GEMS240,2018_Apr_24_1548,George,GH,orientation,8,6,20,15-22;7-24;21-30;25-13,1,SimpleHill,15-22,59,15,selected,62-14,65-21;63-9;68-9;65-10;63-21;63-8,63-21,0.96,79,8,531.068262649
GEMS240,2018_Apr_24_1548,George,GH,orientation,8,6,20,15-22;7-24;21-30;25-13,1,SimpleHill,15-22,59,16,selected,63-21,59-22;69-26;61-17;66-27;67-21;64-19,61-17,2.12,75,-4,536.754533713
GEMS240,2018_Apr_24_1548,George,GH,orientation,8,6,20,15-22;7-24;21-30;25-13,1,SimpleHill,15-22,59,17,selected,61-17,56-17;54-17;57-18;63-21;63-19;66-14,66-14,2.46,68,-7,542.77959345
GEMS240,2018_Apr_24_1548,George,GH,orientation,8,6,20,15-22;7-24;21-30;25-13,1,SimpleHill,15-22,59,18,selected,66-14,64-12;63-18;65-16;68-14;60-17;62-8,62-8,2.88,61,-7,549.223872513
GEMS240,2018_Apr_24_1548,George,GH,orientation,8,6,20,15-22;7-24;21-30;25-13,1,SimpleHill,15-22,59,19,selected,62-8,61-12;59-13;65-11;60-7;67-11;68-13,65-11,1.43,65,4,554.224904812
GEMS240,2018_Apr_24_1548,George,GH,orientation,8,6,20,15-22;7-24;21-30;25-13,1,SimpleHill,15-22,59,20,selected,65-11,70-11;65-6;66-14;59-10;63-11;70-13,63-11,3.71,66,1,561.516680191
GEMS240,2018_Apr_24_1548,George,GH,orientation,8,6,20,15-22;7-24;21-30;25-13,1,SimpleHill,15-22,59,21,selected,63-11,56-9;61-7;66-10;63-15;62-5;67-17,61-7,1.15,60,-6,566.232789016
GEMS240,2018_Apr_24_1548,George,GH,orientation,8,6,20,15-22;7-24;21-30;25-13,1,SimpleHill,15-22,59,22,selected,61-7,57-4;56-8;64-14;67-9;64-1;54-9,54-9,2.63,66,6,572.440189879
GEMS240,2018_Apr_24_1548,George,GH,orientation,8,6,20,15-22;7-24;21-30;25-13,1,SimpleHill,15-22,59,23,selected,54-9,59-7;56-12;52-11;49-10;54-11;52-10,49-10,2.96,67,1,578.963573131
GEMS240,2018_Apr_24_1548,George,GH,orientation,8,6,20,15-22;7-24;21-30;25-13,1,SimpleHill,15-22,59,24,selected,49-10,42-12;54-14;48-16;47-3;51-13;51-9,42-12,1.58,69,2,584.117357827
GEMS240,2018_Apr_24_1548,George,GH,orientation,8,6,20,15-22;7-24;21-30;25-13,1,SimpleHill,15-22,59,25,selected,42-12,42-10;40-11;36-9;48-13;43-15;38-13,42-10,0.77,66,-3,588.449109262
GEMS240,2018_Apr_24_1548,George,GH,orientation,8,6,20,15-22;7-24;21-30;25-13,1,SimpleHill,15-22,59,26,selected,42-10,45-9;35-11;46-6;47-14;41-10;40-3,35-11,3.05,65,-1,595.08232112
GEMS240,2018_Apr_24_1548,George,GH,orientation,8,6,20,15-22;7-24;21-30;25-13,1,SimpleHill,15-22,59,27,selected,35-11,32-10;36-6;40-10;36-8;30-9;31-12,32-10,0.96,61,-4,599.613040256
GEMS240,2018_Apr_24_1548,George,GH,orientation,8,6,20,15-22;7-24;21-30;25-13,1,SimpleHill,15-22,59,28,selected,32-10,29-6;29-17;29-11;28-8;28-11;35-3,29-6,3.38,52,-9,606.573695742
GEMS240,2018_Apr_24_1548,George,GH,orientation,8,6,20,15-22;7-24;21-30;25-13,1,SimpleHill,15-22,59,29,selected,29-6,32-13;33-11;26-8;35-8;25-3;33-9,32-13,0.95,66,14,611.080307737
GEMS240,2018_Apr_24_1548,George,GH,orientation,8,6,20,15-22;7-24;21-30;25-13,1,SimpleHill,15-22,59,30,selected,32-13,28-15;29-7;28-14;33-9;26-17;28-17,33-9,5.32,60,-6,619.980293493
GEMS240,2018_Apr_24_1548,George,GH,orientation,8,6,20,15-22;7-24;21-30;25-13,1,SimpleHill,15-22,59,31,selected,33-9,28-10;31-11;40-12;32-10;39-9;29-11,32-10,0.34,61,1,623.887007277
GEMS240,2018_Apr_24_1548,George,GH,orientation,8,6,20,15-22;7-24;21-30;25-13,1,SimpleHill,15-22,59,32,selected,32-10,33-5;35-17;27-8;35-7;28-12;39-7,35-17,1.02,73,12,628.493669367
GEMS240,2018_Apr_24_1548,George,GH,orientation,8,6,20,15-22;7-24;21-30;25-13,1,SimpleHill,15-22,59,33,selected,35-17,39-16;31-19;37-23;37-20;32-11;35-14,31-19,1.11,73,0,633.164854142
GEMS240,2018_Apr_24_1548,George,GH,orientation,8,6,20,15-22;7-24;21-30;25-13,1,SimpleHill,15-22,59,34,selected,31-19,35-18;25-16;31-25;25-14;26-15;37-16,25-16,1.76,64,-9,638.508512705
GEMS240,2018_Apr_24_1548,George,GH,orientation,8,6,20,15-22;7-24;21-30;25-13,1,SimpleHill,15-22,59,35,selected,25-16,30-20;27-14;29-14;25-10;29-11;31-20,27-14,0.88,63,-1,642.962763936
GEMS240,2018_Apr_24_1548,George,GH,orientation,8,6,20,15-22;7-24;21-30;25-13,1,SimpleHill,15-22,59,36,selected,27-14,34-16;22-13;34-11;22-11;33-18;29-16,33-18,0.66,73,10,647.184850013
GEMS240,2018_Apr_24_1548,George,GH,orientation,8,6,20,15-22;7-24;21-30;25-13,1,SimpleHill,15-22,59,37,selected,33-18,35-15;30-23;34-25;36-25;29-22;35-19,35-19,1.17,76,3,651.934017692
GEMS240,2018_Apr_24_1548,George,GH,orientation,8,6,20,15-22;7-24;21-30;25-13,1,SimpleHill,15-22,59,38,selected,35-19,41-19;33-20;39-17;35-17;36-16;39-18,35-17,3.5,73,-3,659.00407286
GEMS240,2018_Apr_24_1548,George,GH,orientation,8,6,20,15-22;7-24;21-30;25-13,1,SimpleHill,15-22,59,39,selected,35-17,36-10;40-20;34-21;42-20;40-17;39-14,40-20,0.88,80,7,663.460761917
GEMS240,2018_Apr_24_1548,George,GH,orientation,8,6,20,15-22;7-24;21-30;25-13,2,SimpleHill,7-24,49,0,selected,7-24,5-17;15-24;8-26;10-25;5-26;4-28,8-26,1.08,53,4,676.232762448
GEMS240,2018_Apr_24_1548,George,GH,orientation,8,6,20,15-22;7-24;21-30;25-13,2,SimpleHill,7-24,49,1,selected,8-26,14-31;13-32;13-22;2-21;3-25;11-33,13-32,1.36,66,13,681.140510132
GEMS240,2018_Apr_24_1548,George,GH,orientation,8,6,20,15-22;7-24;21-30;25-13,2,SimpleHill,7-24,49,2,selected,13-32,12-34;15-39;14-27;18-28;15-26;16-36,12-34,4.39,66,0,689.082548066
GEMS240,2018_Apr_24_1548,George,GH,orientation,8,6,20,15-22;7-24;21-30;25-13,2,SimpleHill,7-24,49,3,selected,12-34,16-35;10-33;14-33;7-29;11-38;5-36,5-36,0.72,55,-11,693.379145
GEMS240,2018_Apr_24_1548,George,GH,orientation,8,6,20,15-22;7-24;21-30;25-13,2,SimpleHill,7-24,49,4,selected,5-36,6-37;8-34;5-34;7-34;9-37;10-35,6-37,0.83,57,2,697.780169617
GEMS240,2018_Apr_24_1548,George,GH,orientation,8,6,20,15-22;7-24;21-30;25-13,2,SimpleHill,7-24,49,5,selected,6-37,6-32;0-39;4-36;6-39;3-35;8-38,6-39,1.93,58,1,703.266691954
GEMS240,2018_Apr_24_1548,George,GH,orientation,8,6,20,15-22;7-24;21-30;25-13,2,SimpleHill,7-24,49,6,selected,6-39,8-36;6-40;13-38;5-40;1-43;6-41,8-36,0.78,60,2,707.614127611
GEMS240,2018_Apr_24_1548,George,GH,orientation,8,6,20,15-22;7-24;21-30;25-13,2,SimpleHill,7-24,49,7,selected,8-36,12-40;1-38;7-37;10-35;8-29;6-30,6-30,1.28,53,-7,712.467204422
GEMS240,2018_Apr_24_1548,George,GH,orientation,8,6,20,15-22;7-24;21-30;25-13,2,SimpleHill,7-24,49,8,selected,6-30,12-25;11-33;9-23;6-37;3-23;10-30,11-33,0.9,63,10,716.928357492
GEMS240,2018_Apr_24_1548,George,GH,orientation,8,6,20,15-22;7-24;21-30;25-13,2,SimpleHill,7-24,49,9,selected,11-33,9-29;5-36;9-37;8-31;15-29;17-32,9-37,3.69,63,0,724.193961131
GEMS240,2018_Apr_24_1548,George,GH,orientation,8,6,20,15-22;7-24;21-30;25-13,2,SimpleHill,7-24,49,10,selected,9-37,6-34;3-39;9-36;5-38;11-36;16-34,3-39,0.76,53,-10,728.527429544
GEMS240,2018_Apr_24_1548,George,GH,orientation,8,6,20,15-22;7-24;21-30;25-13,2,SimpleHill,7-24,49,11,selected,3-39,0-43;3-39;6-40;2-36;1-33;0-41,3-39,0.83,53,0,732.927714746
GEMS240,2018_Apr_24_1548,George,GH,orientation,8,6,20,15-22;7-24;21-30;25-13,2,SimpleHill,7-24,49,12,selected,3-39,9-42;5-40;1-36;7-40;0-46;5-46,9-42,0.68,65,12,737.193639438
GEMS240,2018_Apr_24_1548,George,GH,orientation,8,6,20,15-22;7-24;21-30;25-13,2,SimpleHill,7-24,49,13,selected,9-42,13-48;3-37;7-42;8-45;7-45;5-39,8-45,1.3,64,-1,742.053650417
GEMS240,2018_Apr_24_1548,George,GH,orientation,8,6,20,15-22;7-24;21-30;25-13,2,SimpleHill,7-24,49,14,selected,8-45,9-42;12-40;9-44;3-43;14-41;14-40,9-44,1.0,65,1,746.631269536
GEMS240,2018_Apr_24_1548,George,GH,orientation,8,6,20,15-22;7-24;21-30;25-13,2,SimpleHill,7-24,49,15,selected,9-44,14-45;5-47;7-37;12-40;7-51;14-46,5-47,1.3,59,-6,751.503566313
GEMS240,2018_Apr_24_1548,George,GH,orientation,8,6,20,15-22;7-24;21-30;25-13,2,SimpleHill,7-24,49,16,selected,5-47,11-43;5-49;10-41;10-50;7-54;8-50,10-41,3.31,66,7,758.374077293
GEMS240,2018_Apr_24_1548,George,GH,orientation,8,6,20,15-22;7-24;21-30;25-13,2,SimpleHill,7-24,49,17,selected,10-41,6-35;11-44;6-37;13-40;12-44;8-34,11-44,6.03,68,2,767.974428114
GEMS240,2018_Apr_24_1548,George,GH,orientation,8,6,20,15-22;7-24;21-30;25-13,2,SimpleHill,7-24,49,18,selected,11-44,16-42;14-46;14-39;16-50;18-44;8-38,8-38,3.04,61,-7,774.602184313
GEMS240,2018_Apr_24_1548,George,GH,orientation,8,6,20,15-22;7-24;21-30;25-13,2,SimpleHill,7-24,49,19,selected,8-38,5-33;10-40;5-32;12-34;4-42;9-44,10-40,1.58,66,5,779.756206838
GEMS240,2018_Apr_24_1548,George,GH,orientation,8,6,20,15-22;7-24;21-30;25-13,2,SimpleHill,7-24,49,20,selected,10-40,7-47;5-43;4-37;12-37;15-42;12-47,7-47,0.7,62,-4,784.019154987
GEMS240,2018_Apr_24_1548,George,GH,orientation,8,6,20,15-22;7-24;21-30;25-13,2,SimpleHill,7-24,49,21,selected,7-47,8-45;10-52;3-52;10-42;5-49;2-45,10-42,3.15,66,4,790.740068724
GEMS240,2018_Apr_24_1548,George,GH,orientation,8,6,20,15-22;7-24;21-30;25-13,2,SimpleHill,7-24,49,22,selected,10-42,8-37;5-43;13-45;17-39;15-36;14-36,5-43,0.6,58,-8,794.908951232
GEMS240,2018_Apr_24_1548,George,GH,orientation,8,6,20,15-22;7-24;21-30;25-13,2,SimpleHill,7-24,49,23,selected,5-43,6-42;6-43;6-49;4-39;5-47;3-42,4-39,0.68,55,-3,799.16243168
GEMS240,2018_Apr_24_1548,George,GH,orientation,8,6,20,15-22;7-24;21-30;25-13,2,SimpleHill,7-24,49,24,selected,4-39,9-39;2-44;4-34;4-41;3-41;6-37,6-37,1.8,57,2,804.543090719
GEMS240,2018_Apr_24_1548,George,GH,orientation,8,6,20,15-22;7-24;21-30;25-13,2,SimpleHill,7-24,49,25,selected,6-37,4-41;10-36;10-39;5-40;7-41;8-43,10-36,1.9,64,7,810.013507272
GEMS240,2018_Apr_24_1548,George,GH,orientation,8,6,20,15-22;7-24;21-30;25-13,2,SimpleHill,7-24,49,26,selected,10-36,12-39;10-33;13-33;7-39;15-38;10-40,12-39,2.59,68,4,816.17393069
GEMS240,2018_Apr_24_1548,George,GH,orientation,8,6,20,15-22;7-24;21-30;25-13,2,SimpleHill,7-24,49,27,selected,12-39,15-39;10-41;12-40;10-33;6-36;11-43,15-39,7.13,73,5,826.859537882
GEMS240,2018_Apr_24_1548,George,GH,orientation,8,6,20,15-22;7-24;21-30;25-13,2,SimpleHill,7-24,49,28,selected,15-39,15-44;17-40;19-36;9-34;18-40;19-43,15-44,2.6,74,1,833.028986635
GEMS240,2018_Apr_24_1548,George,GH,orientation,8,6,20,15-22;7-24;21-30;25-13,2,SimpleHill,7-24,49,29,selected,15-44,12-49;16-40;19-48;19-44;14-40;20-38,12-49,1.17,71,-3,837.770610689
GEMS240,2018_Apr_24_1548,George,GH,orientation,8,6,20,15-22;7-24;21-30;25-13,2,SimpleHill,7-24,49,30,selected,12-49,17-51;8-55;11-49;10-48;18-50;16-45,17-51,6.65,78,7,847.990253497
GEMS240,2018_Apr_24_1548,George,GH,orientation,8,6,20,15-22;7-24;21-30;25-13,2,SimpleHill,7-24,49,31,selected,17-51,17-45;21-57;22-50;9-51;17-52;21-51,17-45,1.01,77,-1,852.563973887
GEMS240,2018_Apr_24_1548,George,GH,orientation,8,6,20,15-22;7-24;21-30;25-13,2,SimpleHill,7-24,49,32,selected,17-45,21-46;16-44;15-49;12-41;11-45;19-51,19-51,3.37,80,3,859.496698404
GEMS240,2018_Apr_24_1548,George,GH,orientation,8,6,20,15-22;7-24;21-30;25-13,2,SimpleHill,7-24,49,33,selected,19-51,18-57;16-47;25-53;12-48;24-46;16-55,25-53,2.58,87,7,865.649510978
GEMS240,2018_Apr_24_1548,George,GH,orientation,8,6,20,15-22;7-24;21-30;25-13,2,SimpleHill,7-24,49,34,selected,25-53,27-60;30-53;24-56;24-50;28-59;31-50,30-53,3.48,91,4,872.701044302
GEMS240,2018_Apr_24_1548,George,GH,orientation,8,6,20,15-22;7-24;21-30;25-13,2,SimpleHill,7-24,49,35,selected,30-53,27-54;30-51;29-54;24-56;25-51;30-58,30-51,5.19,91,0,881.474112023
GEMS240,2018_Apr_24_1548,George,GH,orientation,8,6,20,15-22;7-24;21-30;25-13,2,SimpleHill,7-24,49,36,selected,30-51,27-44;33-51;33-53;23-49;31-55;24-49,33-51,3.78,94,3,888.816533748
GEMS240,2018_Apr_24_1548,George,GH,orientation,8,6,20,15-22;7-24;21-30;25-13,2,SimpleHill,7-24,49,37,selected,33-51,30-56;38-49;28-46;37-51;37-46;32-45,37-51,2.75,96,2,895.125643106
GEMS240,2018_Apr_24_1548,George,GH,orientation,8,6,20,15-22;7-24;21-30;25-13,2,SimpleHill,7-24,49,38,selected,37-51,33-49;39-45;40-45;41-50;35-51;34-57,39-45,7.11,97,1,905.807980871
GEMS240,2018_Apr_24_1548,George,GH,orientation,8,6,20,15-22;7-24;21-30;25-13,2,SimpleHill,7-24,49,39,selected,39-45,43-46;36-38;45-43;46-48;36-48;40-50,43-46,4.77,98,1,914.144777288
GEMS240,2018_Apr_24_1548,George,GH,orientation,8,6,20,15-22;7-24;21-30;25-13,3,SimpleHill,21-30,75,0,selected,21-30,25-32;27-29;18-30;17-27;24-23;21-30,27-29,1.79,80,5,926.961628248
GEMS240,2018_Apr_24_1548,George,GH,orientation,8,6,20,15-22;7-24;21-30;25-13,3,SimpleHill,21-30,75,1,selected,27-29,27-29;24-36;23-34;30-32;30-23;21-34,30-23,2.26,77,-3,932.785673291
GEMS240,2018_Apr_24_1548,George,GH,orientation,8,6,20,15-22;7-24;21-30;25-13,3,SimpleHill,21-30,75,2,selected,30-23,28-25;30-27;33-16;28-20;34-21;33-27,28-25,1.13,77,0,937.493599586
GEMS240,2018_Apr_24_1548,George,GH,orientation,8,6,20,15-22;7-24;21-30;25-13,3,SimpleHill,21-30,75,3,selected,28-25,32-19;25-25;32-27;32-28;28-26;31-23,32-19,2.43,74,-3,943.481758077
GEMS240,2018_Apr_24_1548,George,GH,orientation,8,6,20,15-22;7-24;21-30;25-13,3,SimpleHill,21-30,75,4,selected,32-19,29-24;35-24;25-19;29-14;33-23;39-17,35-24,0.81,81,7,947.843769476
GEMS240,2018_Apr_24_1548,George,GH,orientation,8,6,20,15-22;7-24;21-30;25-13,3,SimpleHill,21-30,75,5,selected,35-24,40-28;32-23;41-22;41-28;28-26;29-23,40-28,1.99,88,7,953.419356005
GEMS240,2018_Apr_24_1548,George,GH,orientation,8,6,20,15-22;7-24;21-30;25-13,3,SimpleHill,21-30,75,6,selected,40-28,39-24;43-26;42-22;34-26;43-28;46-23,43-26,0.77,87,-1,957.770322285
GEMS240,2018_Apr_24_1548,George,GH,orientation,8,6,20,15-22;7-24;21-30;25-13,3,SimpleHill,21-30,75,7,selected,43-26,40-22;48-23;44-33;40-25;43-30;47-20,47-20,6.06,81,-6,967.407556428
GEMS240,2018_Apr_24_1548,George,GH,orientation,8,6,20,15-22;7-24;21-30;25-13,3,SimpleHill,21-30,75,8,selected,47-20,48-16;50-21;48-19;50-15;42-25;41-15,50-21,0.7,83,2,971.673193997
GEMS240,2018_Apr_24_1548,George,GH,orientation,8,6,20,15-22;7-24;21-30;25-13,3,SimpleHill,21-30,75,9,selected,50-21,46-21;46-16;55-24;47-19;44-21;45-27,46-21,1.04,82,-1,976.281165265
GEMS240,2018_Apr_24_1548,George,GH,orientation,8,6,20,15-22;7-24;21-30;25-13,3,SimpleHill,21-30,75,10,selected,46-21,48-25;39-21;51-18;44-26;40-21;49-20,44-26,0.74,87,5,980.595577599
GEMS240,2018_Apr_24_1548,George,GH,orientation,8,6,20,15-22;7-24;21-30;25-13,3,SimpleHill,21-30,75,11,selected,44-26,44-31;36-26;48-30;49-22;43-21;49-21,49-22,1.32,84,-3,985.482089373
GEMS240,2018_Apr_24_1548,George,GH,orientation,8,6,20,15-22;7-24;21-30;25-13,3,SimpleHill,21-30,75,12,selected,49-22,46-27;43-21;49-29;54-19;55-19;45-20,49-29,1.41,91,7,990.452881555
GEMS240,2018_Apr_24_1548,George,GH,orientation,8,6,20,15-22;7-24;21-30;25-13,3,SimpleHill,21-30,75,13,selected,49-29,54-31;54-35;51-31;55-27;47-24;50-31,54-31,3.36,92,1,997.375392554
GEMS240,2018_Apr_24_1548,George,GH,orientation,8,6,20,15-22;7-24;21-30;25-13,3,SimpleHill,21-30,75,14,selected,54-31,53-25;53-29;54-30;58-27;51-38;54-24,53-25,2.49,87,-5,1003.43234441
GEMS240,2018_Apr_24_1548,George,GH,orientation,8,6,20,15-22;7-24;21-30;25-13,3,SimpleHill,21-30,75,15,selected,53-25,54-21;55-27;52-23;48-31;48-22;59-20,59-20,3.37,80,-7,1010.37354274
GEMS240,2018_Apr_24_1548,George,GH,orientation,8,6,20,15-22;7-24;21-30;25-13,3,SimpleHill,21-30,75,16,selected,59-20,56-21;55-22;64-19;57-24;65-20;66-22,55-22,0.99,83,3,1014.9323116
GEMS240,2018_Apr_24_1548,George,GH,orientation,8,6,20,15-22;7-24;21-30;25-13,3,SimpleHill,21-30,75,17,selected,55-22,49-23;55-18;62-19;56-23;55-17;56-29,55-17,2.68,77,-6,1021.18359813
GEMS240,2018_Apr_24_1548,George,GH,orientation,8,6,20,15-22;7-24;21-30;25-13,3,SimpleHill,21-30,75,18,selected,55-17,57-18;50-11;48-17;56-22;62-14;53-21,48-17,0.82,78,1,1025.5770852
GEMS240,2018_Apr_24_1548,George,GH,orientation,8,6,20,15-22;7-24;21-30;25-13,3,SimpleHill,21-30,75,19,selected,48-17,43-20;55-15;47-15;46-13;49-21;53-22,47-15,1.19,75,-3,1030.33636365
GEMS240,2018_Apr_24_1548,George,GH,orientation,8,6,20,15-22;7-24;21-30;25-13,3,SimpleHill,21-30,75,20,selected,47-15,51-17;42-18;45-21;45-17;51-13;47-20,45-17,0.63,77,2,1034.54365728
GEMS240,2018_Apr_24_1548,George,GH,orientation,8,6,20,15-22;7-24;21-30;25-13,3,SimpleHill,21-30,75,21,selected,45-17,47-17;43-11;49-14;50-21;46-21;48-13,48-13,2.03,72,-5,1040.14206354
GEMS240,2018_Apr_24_1548,George,GH,orientation,8,6,20,15-22;7-24;21-30;25-13,3,SimpleHill,21-30,75,22,selected,48-13,50-9;52-18;45-19;44-12;44-7;50-12,52-18,0.77,79,7,1044.49538474
GEMS240,2018_Apr_24_1548,George,GH,orientation,8,6,20,15-22;7-24;21-30;25-13,3,SimpleHill,21-30,75,23,selected,52-18,55-16;46-14;51-13;54-15;58-18;49-14,55-16,0.86,76,-3,1048.92813663
GEMS240,2018_Apr_24_1548,George,GH,orientation,8,6,20,15-22;7-24;21-30;25-13,3,SimpleHill,21-30,75,24,selected,55-16,60-12;60-21;58-22;54-21;61-15;51-13,61-15,0.82,73,-3,1053.32662643
GEMS240,2018_Apr_24_1548,George,GH,orientation,8,6,20,15-22;7-24;21-30;25-13,3,SimpleHill,21-30,75,25,selected,61-15,60-22;59-19;64-9;66-18;61-21;61-7,60-22,1.88,82,9,1058.77718699
GEMS240,2018_Apr_24_1548,George,GH,orientation,8,6,20,15-22;7-24;21-30;25-13,3,SimpleHill,21-30,75,26,selected,60-22,61-28;66-27;55-20;54-17;60-27;58-16,55-20,2.37,81,-1,1064.72878834
GEMS240,2018_Apr_24_1548,George,GH,orientation,8,6,20,15-22;7-24;21-30;25-13,3,SimpleHill,21-30,75,27,selected,55-20,55-20;52-20;58-20;49-16;60-23;51-14,52-20,1.38,81,0,1069.66613083
GEMS240,2018_Apr_24_1548,George,GH,orientation,8,6,20,15-22;7-24;21-30;25-13,3,SimpleHill,21-30,75,28,selected,52-20,54-13;50-14;55-15;50-22;53-24;47-20,47-20,0.89,81,0,1074.11991345
GEMS240,2018_Apr_24_1548,George,GH,orientation,8,6,20,15-22;7-24;21-30;25-13,3,SimpleHill,21-30,75,29,selected,47-20,49-21;45-14;43-15;53-22;41-25;48-14,41-25,0.95,85,4,1078.64298013
GEMS240,2018_Apr_24_1548,George,GH,orientation,8,6,20,15-22;7-24;21-30;25-13,3,SimpleHill,21-30,75,30,selected,41-25,38-19;46-28;47-22;48-27;43-32;40-30,38-19,0.94,77,-8,1083.14863152
GEMS240,2018_Apr_24_1548,George,GH,orientation,8,6,20,15-22;7-24;21-30;25-13,3,SimpleHill,21-30,75,31,selected,38-19,42-13;41-24;38-21;43-25;36-14;33-25,41-24,1.97,84,7,1088.69891697
GEMS240,2018_Apr_24_1548,George,GH,orientation,8,6,20,15-22;7-24;21-30;25-13,3,SimpleHill,21-30,75,32,selected,41-24,45-28;34-22;44-17;39-24;47-22;40-27,40-27,0.88,87,3,1093.1506081
GEMS240,2018_Apr_24_1548,George,GH,orientation,8,6,20,15-22;7-24;21-30;25-13,3,SimpleHill,21-30,75,33,selected,40-27,40-25;46-25;36-30;35-27;39-33;38-20,40-25,2.69,85,-2,1099.41120613
GEMS240,2018_Apr_24_1548,George,GH,orientation,8,6,20,15-22;7-24;21-30;25-13,3,SimpleHill,21-30,75,34,selected,40-25,39-28;35-31;39-18;38-23;47-26;41-21,41-21,1.53,81,-4,1104.5140932
GEMS240,2018_Apr_24_1548,George,GH,orientation,8,6,20,15-22;7-24;21-30;25-13,3,SimpleHill,21-30,75,35,selected,41-21,39-15;36-26;39-28;38-28;37-23;45-19,39-28,0.85,87,6,1108.94956555
GEMS240,2018_Apr_24_1548,George,GH,orientation,8,6,20,15-22;7-24;21-30;25-13,3,SimpleHill,21-30,75,36,selected,39-28,36-23;45-33;36-30;43-27;39-31;40-33,45-33,2.21,93,6,1114.72021401
GEMS240,2018_Apr_24_1548,George,GH,orientation,8,6,20,15-22;7-24;21-30;25-13,3,SimpleHill,21-30,75,37,selected,45-33,50-32;45-35;50-28;40-36;41-31;38-33,50-32,0.83,93,0,1119.12403944
GEMS240,2018_Apr_24_1548,George,GH,orientation,8,6,20,15-22;7-24;21-30;25-13,3,SimpleHill,21-30,75,38,selected,50-32,49-36;49-29;56-28;57-35;47-29;53-26,47-29,1.19,91,-2,1123.88866728
GEMS240,2018_Apr_24_1548,George,GH,orientation,8,6,20,15-22;7-24;21-30;25-13,3,SimpleHill,21-30,75,39,selected,47-29,48-30;41-29;48-28;51-24;48-27;47-31,48-30,0.87,91,0,1128.31875887
GEMS240,2018_Apr_24_1548,George,GH,orientation,8,6,20,15-22;7-24;21-30;25-13,4,SimpleHill,25-13,60,0,selected,25-13,24-14;25-13;28-18;19-14;22-17;21-18,25-13,1.58,60,0,1138.81339268
GEMS240,2018_Apr_24_1548,George,GH,orientation,8,6,20,15-22;7-24;21-30;25-13,4,SimpleHill,25-13,60,1,selected,25-13,26-12;28-9;29-14;19-11;28-18;21-11,26-12,0.56,59,-1,1142.96538037
GEMS240,2018_Apr_24_1548,George,GH,orientation,8,6,20,15-22;7-24;21-30;25-13,4,SimpleHill,25-13,60,2,selected,26-12,24-14;27-12;31-9;22-6;32-10;26-7,27-12,0.88,60,1,1147.41729589
GEMS240,2018_Apr_24_1548,George,GH,orientation,8,6,20,15-22;7-24;21-30;25-13,4,SimpleHill,25-13,60,3,selected,27-12,20-9;25-14;32-12;30-11;33-11;25-7,33-11,1.53,63,3,1152.50530922
GEMS240,2018_Apr_24_1548,George,GH,orientation,8,6,20,15-22;7-24;21-30;25-13,4,SimpleHill,25-13,60,4,selected,33-11,30-17;29-12;35-11;34-13;35-12;31-5,30-17,1.08,70,7,1157.15501257
GEMS240,2018_Apr_24_1548,George,GH,orientation,8,6,20,15-22;7-24;21-30;25-13,4,SimpleHill,25-13,60,5,selected,30-17,28-13;26-17;34-21;29-17;34-18;23-14,34-21,1.12,78,8,1161.8576535
GEMS240,2018_Apr_24_1548,George,GH,orientation,8,6,20,15-22;7-24;21-30;25-13,4,SimpleHill,25-13,60,6,selected,34-21,39-20;38-17;28-25;29-18;30-22;31-23,29-18,2.53,70,-8,1167.96787582
GEMS240,2018_Apr_24_1548,George,GH,orientation,8,6,20,15-22;7-24;21-30;25-13,4,SimpleHill,25-13,60,7,selected,29-18,26-16;30-15;23-17;24-19;34-24;24-24,24-24,0.61,72,2,1172.13047843
GEMS240,2018_Apr_24_1548,George,GH,orientation,8,6,20,15-22;7-24;21-30;25-13,4,SimpleHill,25-13,60,8,selected,24-24,24-32;23-23;19-20;26-31;16-24;21-22,23-23,0.68,70,-2,1176.37157577
GEMS240,2018_Apr_24_1548,George,GH,orientation,8,6,20,15-22;7-24;21-30;25-13,4,SimpleHill,25-13,60,9,selected,23-23,16-21;18-24;18-25;20-21;30-23;17-25,30-23,1.65,77,7,1181.61162513
GEMS240,2018_Apr_24_1548,George,GH,orientation,8,6,20,15-22;7-24;21-30;25-13,4,SimpleHill,25-13,60,10,selected,30-23,35-25;29-28;25-19;37-23;32-25;29-20,37-23,1.12,82,5,1186.30240534
GEMS240,2018_Apr_24_1548,George,GH,orientation,8,6,20,15-22;7-24;21-30;25-13,4,SimpleHill,25-13,60,11,selected,37-23,38-26;37-17;38-18;35-24;33-17;42-19,37-17,0.92,74,-8,1190.78632916
GEMS240,2018_Apr_24_1548,George,GH,orientation,8,6,20,15-22;7-24;21-30;25-13,4,SimpleHill,25-13,60,12,selected,37-17,36-23;43-14;36-12;36-20;34-24;41-12,36-23,0.72,81,7,1195.07107722
GEMS240,2018_Apr_24_1548,George,GH,orientation,8,6,20,15-22;7-24;21-30;25-13,4,SimpleHill,25-13,60,13,selected,36-23,33-24;42-18;41-22;32-29;41-28;41-19,41-28,0.71,88,7,1199.36838284
GEMS240,2018_Apr_24_1548,George,GH,orientation,8,6,20,15-22;7-24;21-30;25-13,4,SimpleHill,25-13,60,14,selected,41-28,45-27;47-29;38-26;38-25;37-28;41-27,45-27,0.62,88,0,1203.56238783
GEMS240,2018_Apr_24_1548,George,GH,orientation,8,6,20,15-22;7-24;21-30;25-13,4,SimpleHill,25-13,60,15,selected,45-27,47-30;46-29;46-34;48-25;49-23;45-31,47-30,0.97,91,3,1208.11740552
GEMS240,2018_Apr_24_1548,George,GH,orientation,8,6,20,15-22;7-24;21-30;25-13,4,SimpleHill,25-13,60,16,selected,47-30,43-24;40-27;44-36;42-27;43-31;50-23,42-27,1.18,88,-3,1212.88251574
GEMS240,2018_Apr_24_1548,George,GH,orientation,8,6,20,15-22;7-24;21-30;25-13,4,SimpleHill,25-13,60,17,selected,42-27,42-21;49-25;44-33;39-22;48-29;40-22,42-21,0.7,81,-7,1217.17013375
GEMS240,2018_Apr_24_1548,George,GH,orientation,8,6,20,15-22;7-24;21-30;25-13,4,SimpleHill,25-13,60,18,selected,42-21,34-21;48-25;39-23;45-19;48-19;41-14,39-23,1.77,83,2,1222.50493887
GEMS240,2018_Apr_24_1548,George,GH,orientation,8,6,20,15-22;7-24;21-30;25-13,4,SimpleHill,25-13,60,19,selected,39-23,41-19;43-26;37-28;44-19;38-30;34-18,43-26,1.25,87,4,1227.33610726
GEMS240,2018_Apr_24_1548,George,GH,orientation,8,6,20,15-22;7-24;21-30;25-13,4,SimpleHill,25-13,60,20,selected,43-26,50-27;47-26;46-22;50-24;38-22;42-23,47-26,1.02,88,1,1231.91813085
GEMS240,2018_Apr_24_1548,George,GH,orientation,8,6,20,15-22;7-24;21-30;25-13,4,SimpleHill,25-13,60,21,selected,47-26,47-20;40-29;42-20;40-27;46-32;52-27,46-32,1.5,93,5,1236.97570336
GEMS240,2018_Apr_24_1548,George,GH,orientation,8,6,20,15-22;7-24;21-30;25-13,4,SimpleHill,25-13,60,22,selected,46-32,43-32;44-31;48-39;44-30;43-25;43-35,44-31,0.68,92,-1,1241.2370901
GEMS240,2018_Apr_24_1548,George,GH,orientation,8,6,20,15-22;7-24;21-30;25-13,4,SimpleHill,25-13,60,23,selected,44-31,50-36;44-23;38-29;39-27;39-32;41-32,50-36,0.71,96,4,1245.51997106
GEMS240,2018_Apr_24_1548,George,GH,orientation,8,6,20,15-22;7-24;21-30;25-13,4,SimpleHill,25-13,60,24,selected,50-36,55-34;47-43;53-36;43-34;52-31;55-42,53-36,0.72,95,-1,1249.7995109
GEMS240,2018_Apr_24_1548,George,GH,orientation,8,6,20,15-22;7-24;21-30;25-13,4,SimpleHill,25-13,60,25,selected,53-36,55-37;55-31;52-37;51-31;57-38;57-34,55-37,1.08,96,1,1254.43116391
GEMS240,2018_Apr_24_1548,George,GH,orientation,8,6,20,15-22;7-24;21-30;25-13,4,SimpleHill,25-13,60,26,selected,55-37,52-40;62-39;58-30;51-43;51-34;59-35,59-35,1.5,93,-3,1259.51951141
GEMS240,2018_Apr_24_1548,George,GH,orientation,8,6,20,15-22;7-24;21-30;25-13,4,SimpleHill,25-13,60,27,selected,59-35,56-35;57-36;63-36;59-29;64-40;56-33,57-36,0.59,95,2,1263.67094887
GEMS240,2018_Apr_24_1548,George,GH,orientation,8,6,20,15-22;7-24;21-30;25-13,4,SimpleHill,25-13,60,28,selected,57-36,61-37;50-37;60-31;54-43;59-34;63-34,61-37,1.93,94,-1,1269.17175054
GEMS240,2018_Apr_24_1548,George,GH,orientation,8,6,20,15-22;7-24;21-30;25-13,4,SimpleHill,25-13,60,29,selected,61-37,58-39;62-39;56-37;57-32;56-43;58-31,56-43,1.01,98,4,1273.7488399
GEMS240,2018_Apr_24_1548,George,GH,orientation,8,6,20,15-22;7-24;21-30;25-13,4,SimpleHill,25-13,60,30,selected,56-43,60-39;53-41;55-40;50-48;63-46;62-42,60-39,2.13,95,-3,1279.45896748
GEMS240,2018_Apr_24_1548,George,GH,orientation,8,6,20,15-22;7-24;21-30;25-13,4,SimpleHill,25-13,60,31,selected,60-39,56-41;67-40;61-41;60-34;61-39;68-39,67-40,0.54,92,-3,1283.57537527
GEMS240,2018_Apr_24_1548,George,GH,orientation,8,6,20,15-22;7-24;21-30;25-13,4,SimpleHill,25-13,60,32,selected,67-40,67-36;62-38;66-39;68-40;65-43;64-35,65-43,1.28,94,2,1288.42550659
GEMS240,2018_Apr_24_1548,George,GH,orientation,8,6,20,15-22;7-24;21-30;25-13,4,SimpleHill,25-13,60,33,selected,65-43,59-47;68-36;69-49;58-42;66-40;61-41,59-47,1.16,98,4,1293.16474947
GEMS240,2018_Apr_24_1548,George,GH,orientation,8,6,20,15-22;7-24;21-30;25-13,4,SimpleHill,25-13,60,34,selected,59-47,56-51;61-43;58-54;60-45;61-51;65-44,65-44,2.26,94,-4,1298.99201657
GEMS240,2018_Apr_24_1548,George,GH,orientation,8,6,20,15-22;7-24;21-30;25-13,4,SimpleHill,25-13,60,35,selected,65-44,61-50;66-37;66-42;62-47;69-39;68-40,61-50,0.75,97,3,1303.31410024
GEMS240,2018_Apr_24_1548,George,GH,orientation,8,6,20,15-22;7-24;21-30;25-13,4,SimpleHill,25-13,60,36,selected,61-50,57-55;63-51;61-49;67-53;63-54;67-50,57-55,1.04,98,1,1307.92332596
GEMS240,2018_Apr_24_1548,George,GH,orientation,8,6,20,15-22;7-24;21-30;25-13,4,SimpleHill,25-13,60,37,selected,57-55,61-59;64-53;52-58;58-60;53-50;59-52,61-59,2.09,95,-3,1313.60065363
GEMS240,2018_Apr_24_1548,George,GH,orientation,8,6,20,15-22;7-24;21-30;25-13,4,SimpleHill,25-13,60,38,selected,61-59,67-58;68-61;61-59;62-59;63-59;64-66,62-59,1.03,95,0,1318.2071864
GEMS240,2018_Apr_24_1548,George,GH,orientation,8,6,20,15-22;7-24;21-30;25-13,4,SimpleHill,25-13,60,39,selected,62-59,65-56;67-59;60-55;58-55;59-52;57-63,65-56,1.81,94,-1,1323.58935148
