subj_id,date,computer,experimenter,version,generation,inherit_from,sight_radius,n_gabors,block_ix,landscape_name,starting_pos,starting_score,trial,pos,stims,selected,rt,score,delta,exp_time,landscape_ix
GEMS105,2018_Sep_24_1225,Kramer,SF,1.1,1,,10,6,1,SimpleHill,0-0,0,0,0-0,1-4;3-7;2-2;6-4;5-8;5-3,1-4,10.45,9,9,313.363555264,1
GEMS105,2018_Sep_24_1225,Kramer,SF,1.1,1,,10,6,1,SimpleHill,0-0,0,1,1-4,0-1;11-4;3-8;9-7;7-12;8-7,9-7,7.22,29,20,324.179379653,1
GEMS105,2018_Sep_24_1225,Kramer,SF,1.1,1,,10,6,1,SimpleHill,0-0,0,2,9-7,6-6;17-2;15-5;1-5;15-13;3-0,15-5,2.76,35,6,330.513965191,1
GEMS105,2018_Sep_24_1225,Kramer,SF,1.1,1,,10,6,1,SimpleHill,0-0,0,3,15-5,10-13;22-6;11-5;15-0;11-4;7-9,22-6,4.62,45,10,338.726853812,1
GEMS105,2018_Sep_24_1225,Kramer,SF,1.1,1,,10,6,1,SimpleHill,0-0,0,4,22-6,26-4;20-9;28-12;16-0;15-10;23-13,16-0,5.8,26,-19,348.091213791,1
GEMS105,2018_Sep_24_1225,Kramer,SF,1.1,1,,10,6,1,SimpleHill,0-0,0,5,16-0,9-4;23-7;16-1;21-4;11-1;10-7,23-7,13.45,48,22,365.107646421,1
GEMS105,2018_Sep_24_1225,Kramer,SF,1.1,1,,10,6,1,SimpleHill,0-0,0,6,23-7,30-7;31-13;26-8;24-2;22-8;25-10,25-10,6.06,55,7,374.730488152,1
GEMS105,2018_Sep_24_1225,Kramer,SF,1.1,1,,10,6,1,SimpleHill,0-0,0,7,25-10,31-6;22-4;30-13;18-4;20-8;33-6,18-4,4.16,37,-18,382.464149069,1
GEMS105,2018_Sep_24_1225,Kramer,SF,1.1,1,,10,6,1,SimpleHill,0-0,0,8,18-4,16-6;16-0;14-7;23-6;23-11;14-11,14-11,2.9,43,6,388.915766804,1
GEMS105,2018_Sep_24_1225,Kramer,SF,1.1,1,,10,6,1,SimpleHill,0-0,0,9,14-11,10-9;13-16;16-7;10-7;10-10;7-7,10-10,1.86,36,-7,394.343418513,1
GEMS105,2018_Sep_24_1225,Kramer,SF,1.1,1,,10,6,1,SimpleHill,0-0,0,10,10-10,3-16;11-2;15-17;3-10;17-10;6-18,3-16,2.65,32,-4,400.566461455,1
GEMS105,2018_Sep_24_1225,Kramer,SF,1.1,1,,10,6,1,SimpleHill,0-0,0,11,3-16,10-15;5-14;4-12;3-18;4-14;0-17,4-12,2.02,28,-4,406.154764477,1
GEMS105,2018_Sep_24_1225,Kramer,SF,1.1,1,,10,6,1,SimpleHill,0-0,0,12,4-12,6-10;4-15;3-4;10-12;3-8;0-13,4-15,1.56,33,5,411.282709295,1
GEMS105,2018_Sep_24_1225,Kramer,SF,1.1,1,,10,6,1,SimpleHill,0-0,0,13,4-15,11-9;11-13;2-18;6-18;12-13;2-21,2-21,1.55,37,4,416.412987274,1
GEMS105,2018_Sep_24_1225,Kramer,SF,1.1,1,,10,6,1,SimpleHill,0-0,0,14,2-21,5-23;8-15;7-27;9-23;5-19;9-28,9-28,2.32,56,19,422.310652802,1
GEMS105,2018_Sep_24_1225,Kramer,SF,1.1,1,,10,6,1,SimpleHill,0-0,0,15,9-28,1-28;12-23;12-26;6-33;0-25;1-30,6-33,3.35,55,-1,429.304812059,1
GEMS105,2018_Sep_24_1225,Kramer,SF,1.1,1,,10,6,1,SimpleHill,0-0,0,16,6-33,10-30;0-27;1-38;15-32;3-32;9-26,9-26,1.39,54,-1,434.272372522,1
GEMS105,2018_Sep_24_1225,Kramer,SF,1.1,1,,10,6,1,SimpleHill,0-0,0,17,9-26,1-30;3-19;9-23;18-30;10-30;8-28,1-30,3.47,43,-11,441.31016594,1
GEMS105,2018_Sep_24_1225,Kramer,SF,1.1,1,,10,6,1,SimpleHill,0-0,0,18,1-30,1-25;3-37;1-28;5-37;9-34;5-28,5-37,1.29,56,13,446.171318103,1
GEMS105,2018_Sep_24_1225,Kramer,SF,1.1,1,,10,6,1,SimpleHill,0-0,0,19,5-37,6-37;2-46;9-44;6-43;4-29;6-34,9-44,1.19,65,9,450.939239567,1
GEMS105,2018_Sep_24_1225,Kramer,SF,1.1,1,,10,6,1,SimpleHill,0-0,0,20,9-44,10-50;10-35;11-50;1-42;6-50;11-47,6-50,0.84,61,-4,455.337097311,1
GEMS105,2018_Sep_24_1225,Kramer,SF,1.1,1,,10,6,1,SimpleHill,0-0,0,21,6-50,10-57;11-52;6-53;4-55;14-51;4-48,4-48,1.78,57,-4,460.706522445,1
GEMS105,2018_Sep_24_1225,Kramer,SF,1.1,1,,10,6,1,SimpleHill,0-0,0,22,4-48,2-41;1-49;11-43;3-47;12-50;9-56,2-41,1.98,52,-5,466.261619948,1
GEMS105,2018_Sep_24_1225,Kramer,SF,1.1,1,,10,6,1,SimpleHill,0-0,0,23,2-41,1-41;2-32;5-37;2-51;0-32;8-38,2-32,3.42,47,-5,473.258561456,1
GEMS105,2018_Sep_24_1225,Kramer,SF,1.1,1,,10,6,1,SimpleHill,0-0,0,24,2-32,10-36;5-28;2-39;3-26;5-40;6-37,5-40,2.38,57,10,479.215475295,1
GEMS105,2018_Sep_24_1225,Kramer,SF,1.1,1,,10,6,1,SimpleHill,0-0,0,25,5-40,9-39;3-32;11-46;5-46;5-34;2-49,11-46,1.92,69,12,484.687728807,1
GEMS105,2018_Sep_24_1225,Kramer,SF,1.1,1,,10,6,1,SimpleHill,0-0,0,26,11-46,8-44;8-45;16-54;13-53;18-40;16-39,16-54,2.12,76,7,490.391596078,1
GEMS105,2018_Sep_24_1225,Kramer,SF,1.1,1,,10,6,1,SimpleHill,0-0,0,27,16-54,22-53;23-48;21-51;14-60;8-58;24-50,24-50,3.52,86,10,497.466718458,1
GEMS105,2018_Sep_24_1225,Kramer,SF,1.1,1,,10,6,1,SimpleHill,0-0,0,28,24-50,24-52;31-47;17-43;23-50;16-47;17-55,31-47,3.25,92,6,504.295576406,1
GEMS105,2018_Sep_24_1225,Kramer,SF,1.1,1,,10,6,1,SimpleHill,0-0,0,29,31-47,34-55;30-47;23-53;25-53;31-57;23-50,34-55,2.44,94,2,510.307543735,1
GEMS105,2018_Sep_24_1225,Kramer,SF,1.1,1,,10,6,1,SimpleHill,0-0,0,30,34-55,39-52;37-51;26-57;36-46;37-54;35-50,36-46,3.2,95,1,517.089425429,1
GEMS105,2018_Sep_24_1225,Kramer,SF,1.1,1,,10,6,1,SimpleHill,0-0,0,31,36-46,37-39;31-41;39-52;42-50;32-42;39-40,37-39,1.22,94,-1,521.897493637,1
GEMS105,2018_Sep_24_1225,Kramer,SF,1.1,1,,10,6,1,SimpleHill,0-0,0,32,37-39,36-30;45-43;38-39;33-37;44-42;43-43,43-43,0.91,98,4,526.374878885,1
GEMS105,2018_Sep_24_1225,Kramer,SF,1.1,1,,10,6,1,SimpleHill,0-0,0,33,43-43,50-39;40-46;38-42;43-45;39-48;37-38,40-46,2.45,97,-1,532.384112937,1
GEMS105,2018_Sep_24_1225,Kramer,SF,1.1,1,,10,6,1,SimpleHill,0-0,0,34,40-46,34-52;41-42;33-50;37-43;41-38;40-51,34-52,3.24,94,-3,539.210228646,1
GEMS105,2018_Sep_24_1225,Kramer,SF,1.1,1,,10,6,1,SimpleHill,0-0,0,35,34-52,37-60;41-54;38-51;40-56;28-60;26-49,38-51,1.55,97,3,544.337399799,1
GEMS105,2018_Sep_24_1225,Kramer,SF,1.1,1,,10,6,1,SimpleHill,0-0,0,36,38-51,36-42;44-45;35-42;33-48;37-54;40-43,33-48,2.75,94,-3,550.641360729,1
GEMS105,2018_Sep_24_1225,Kramer,SF,1.1,1,,10,6,1,SimpleHill,0-0,0,37,33-48,25-51;36-51;36-44;40-50;25-52;29-42,36-44,0.78,95,1,554.986889618,1
GEMS105,2018_Sep_24_1225,Kramer,SF,1.1,1,,10,6,1,SimpleHill,0-0,0,38,36-44,35-50;43-44;38-49;37-50;27-43;36-49,43-44,1.93,98,3,560.500358024,1
GEMS105,2018_Sep_24_1225,Kramer,SF,1.1,1,,10,6,1,SimpleHill,0-0,0,39,43-44,43-53;39-44;39-38;36-43;46-47;52-48,39-44,3.57,96,-2,567.634992153,1
GEMS105,2018_Sep_24_1225,Kramer,SF,1.1,1,,10,6,2,SimpleHill,0-0,0,0,0-0,3-1;2-5;1-6;1-8;6-8;3-0,6-8,10.64,26,26,593.438302174,1
GEMS105,2018_Sep_24_1225,Kramer,SF,1.1,1,,10,6,2,SimpleHill,0-0,0,1,6-8,7-8;6-18;3-11;6-9;9-10;12-13,12-13,5.78,43,17,602.799824525,1
GEMS105,2018_Sep_24_1225,Kramer,SF,1.1,1,,10,6,2,SimpleHill,0-0,0,2,12-13,7-13;17-17;12-17;9-22;17-9;9-10,17-17,3.96,56,13,610.336113984,1
GEMS105,2018_Sep_24_1225,Kramer,SF,1.1,1,,10,6,2,SimpleHill,0-0,0,3,17-17,17-11;8-18;18-12;18-21;25-22;15-18,18-21,2.96,62,6,616.87101904,1
GEMS105,2018_Sep_24_1225,Kramer,SF,1.1,1,,10,6,2,SimpleHill,0-0,0,4,18-21,22-19;25-18;17-28;24-22;18-22;19-24,17-28,3.51,68,6,623.953509967,1
GEMS105,2018_Sep_24_1225,Kramer,SF,1.1,1,,10,6,2,SimpleHill,0-0,0,5,17-28,21-22;19-22;25-23;15-31;13-25;20-24,20-24,1.36,68,0,628.894794611,1
GEMS105,2018_Sep_24_1225,Kramer,SF,1.1,1,,10,6,2,SimpleHill,0-0,0,6,20-24,15-21;20-23;29-20;18-19;29-25;19-25,29-25,2.0,78,10,634.463374443,1
GEMS105,2018_Sep_24_1225,Kramer,SF,1.1,1,,10,6,2,SimpleHill,0-0,0,7,29-25,30-30;33-18;25-20;31-28;26-22;31-16,30-30,2.79,84,6,640.826998207,1
GEMS105,2018_Sep_24_1225,Kramer,SF,1.1,1,,10,6,2,SimpleHill,0-0,0,8,30-30,26-31;21-30;38-29;31-36;28-23;24-32,31-36,1.66,88,4,646.055316286,1
GEMS105,2018_Sep_24_1225,Kramer,SF,1.1,1,,10,6,2,SimpleHill,0-0,0,9,31-36,29-35;39-33;33-29;33-36;30-35;28-28,28-28,3.48,80,-8,653.103602042,1
GEMS105,2018_Sep_24_1225,Kramer,SF,1.1,1,,10,6,2,SimpleHill,0-0,0,10,28-28,21-25;20-30;32-19;32-35;36-27;35-26,20-30,1.6,74,-6,658.274026124,1
GEMS105,2018_Sep_24_1225,Kramer,SF,1.1,1,,10,6,2,SimpleHill,0-0,0,11,20-30,24-29;14-32;20-35;21-23;19-25;14-38,24-29,1.06,77,3,662.905111538,1
GEMS105,2018_Sep_24_1225,Kramer,SF,1.1,1,,10,6,2,SimpleHill,0-0,0,12,24-29,22-31;19-27;25-30;33-31;17-26;23-35,25-30,2.16,79,2,668.62438394,1
GEMS105,2018_Sep_24_1225,Kramer,SF,1.1,1,,10,6,2,SimpleHill,0-0,0,13,25-30,16-34;22-32;29-37;15-30;30-32;21-23,22-32,2.39,77,-2,674.596594079,1
GEMS105,2018_Sep_24_1225,Kramer,SF,1.1,1,,10,6,2,SimpleHill,0-0,0,14,22-32,29-39;23-27;18-38;26-39;27-37;27-38,26-39,1.28,86,9,679.439064636,1
GEMS105,2018_Sep_24_1225,Kramer,SF,1.1,1,,10,6,2,SimpleHill,0-0,0,15,26-39,27-47;26-49;20-45;25-40;26-36;26-44,27-47,0.75,89,3,683.765884391,1
GEMS105,2018_Sep_24_1225,Kramer,SF,1.1,1,,10,6,2,SimpleHill,0-0,0,16,27-47,31-38;35-44;19-43;30-40;19-42;34-49,34-49,1.07,94,5,688.404326189,1
GEMS105,2018_Sep_24_1225,Kramer,SF,1.1,1,,10,6,2,SimpleHill,0-0,0,17,34-49,31-48;34-41;39-50;36-48;37-52;28-42,39-50,0.88,97,3,692.871366661,1
GEMS105,2018_Sep_24_1225,Kramer,SF,1.1,1,,10,6,2,SimpleHill,0-0,0,18,39-50,31-51;29-50;33-42;40-43;39-55;42-45,29-50,1.13,91,-6,697.554178834,1
GEMS105,2018_Sep_24_1225,Kramer,SF,1.1,1,,10,6,2,SimpleHill,0-0,0,19,29-50,26-47;23-43;29-50;33-42;35-52;38-50,23-43,2.96,84,-7,704.075571791,1
GEMS105,2018_Sep_24_1225,Kramer,SF,1.1,1,,10,6,2,SimpleHill,0-0,0,20,23-43,32-46;20-35;19-47;29-43;19-38;22-47,22-47,0.81,84,0,708.433834952,1
GEMS105,2018_Sep_24_1225,Kramer,SF,1.1,1,,10,6,2,SimpleHill,0-0,0,21,22-47,29-53;23-53;28-45;28-54;24-52;14-53,24-52,0.87,86,2,712.871085299,1
GEMS105,2018_Sep_24_1225,Kramer,SF,1.1,1,,10,6,2,SimpleHill,0-0,0,22,24-52,19-56;32-56;28-53;30-60;23-58;30-58,19-56,1.38,80,-6,717.838795246,1
GEMS105,2018_Sep_24_1225,Kramer,SF,1.1,1,,10,6,2,SimpleHill,0-0,0,23,19-56,24-52;28-54;14-64;26-62;14-62;20-60,20-60,4.27,80,0,725.683612727,1
GEMS105,2018_Sep_24_1225,Kramer,SF,1.1,1,,10,6,2,SimpleHill,0-0,0,24,20-60,19-63;26-67;14-56;13-60;24-60;20-50,14-56,0.94,73,-7,730.202808563,1
GEMS105,2018_Sep_24_1225,Kramer,SF,1.1,1,,10,6,2,SimpleHill,0-0,0,25,14-56,11-65;7-58;18-65;8-61;18-53;5-58,18-53,0.91,79,6,734.694714523,1
GEMS105,2018_Sep_24_1225,Kramer,SF,1.1,1,,10,6,2,SimpleHill,0-0,0,26,18-53,19-58;23-52;13-57;10-58;15-53;20-47,13-57,2.77,71,-8,741.02476658,1
GEMS105,2018_Sep_24_1225,Kramer,SF,1.1,1,,10,6,2,SimpleHill,0-0,0,27,13-57,14-48;11-66;9-57;10-66;14-56;9-60,9-60,1.11,64,-7,745.713066753,1
GEMS105,2018_Sep_24_1225,Kramer,SF,1.1,1,,10,6,2,SimpleHill,0-0,0,28,9-60,16-64;9-70;3-65;6-68;18-63;1-58,6-68,0.81,54,-10,750.103586358,1
GEMS105,2018_Sep_24_1225,Kramer,SF,1.1,1,,10,6,2,SimpleHill,0-0,0,29,6-68,1-68;6-58;3-61;6-63;0-61;9-64,1-68,0.73,45,-9,754.413789108,1
GEMS105,2018_Sep_24_1225,Kramer,SF,1.1,1,,10,6,2,SimpleHill,0-0,0,30,1-68,0-59;1-62;3-69;7-67;3-70;6-67,1-62,1.05,49,4,759.05145564,1
GEMS105,2018_Sep_24_1225,Kramer,SF,1.1,1,,10,6,2,SimpleHill,0-0,0,31,1-62,6-60;6-69;3-55;4-57;2-66;4-61,3-55,0.86,55,6,763.486748937,1
GEMS105,2018_Sep_24_1225,Kramer,SF,1.1,1,,10,6,2,SimpleHill,0-0,0,32,3-55,8-54;8-53;11-55;9-57;10-53;2-53,10-53,0.9,67,12,767.953123295,1
GEMS105,2018_Sep_24_1225,Kramer,SF,1.1,1,,10,6,2,SimpleHill,0-0,0,33,10-53,12-53;11-58;9-49;9-50;4-60;11-55,12-53,1.2,70,3,772.716861459,1
GEMS105,2018_Sep_24_1225,Kramer,SF,1.1,1,,10,6,2,SimpleHill,0-0,0,34,12-53,14-52;14-60;10-55;16-53;11-59;18-60,16-53,1.34,76,6,777.63045323,1
GEMS105,2018_Sep_24_1225,Kramer,SF,1.1,1,,10,6,2,SimpleHill,0-0,0,35,16-53,15-55;20-51;22-49;11-45;24-48;25-51,25-51,1.7,87,11,782.906849645,1
GEMS105,2018_Sep_24_1225,Kramer,SF,1.1,1,,10,6,2,SimpleHill,0-0,0,36,25-51,33-52;23-60;27-52;18-46;21-58;21-48,21-58,1.09,81,-6,787.564045711,1
GEMS105,2018_Sep_24_1225,Kramer,SF,1.1,1,,10,6,2,SimpleHill,0-0,0,37,21-58,28-52;19-52;18-65;21-53;23-49;14-64,19-52,1.67,80,-1,792.807303825,1
GEMS105,2018_Sep_24_1225,Kramer,SF,1.1,1,,10,6,2,SimpleHill,0-0,0,38,19-52,15-46;28-48;18-48;17-57;21-48;26-45,18-48,1.18,79,-1,797.57189792,1
GEMS105,2018_Sep_24_1225,Kramer,SF,1.1,1,,10,6,2,SimpleHill,0-0,0,39,18-48,16-51;15-54;19-55;27-51;18-41;19-42,16-51,1.01,76,-3,802.153450494,1
GEMS105,2018_Sep_24_1225,Kramer,SF,1.1,1,,10,6,3,SimpleHill,0-0,0,0,0-0,3-6;6-4;0-9;2-5;2-7;0-1,0-9,4.17,16,16,887.475228139,1
GEMS105,2018_Sep_24_1225,Kramer,SF,1.1,1,,10,6,3,SimpleHill,0-0,0,1,0-9,0-12;1-11;2-8;4-6;6-16;5-12,5-12,2.52,30,14,893.566210182,1
GEMS105,2018_Sep_24_1225,Kramer,SF,1.1,1,,10,6,3,SimpleHill,0-0,0,2,5-12,6-9;7-16;4-4;0-19;14-12;9-18,0-19,1.76,30,0,898.899884094,1
GEMS105,2018_Sep_24_1225,Kramer,SF,1.1,1,,10,6,3,SimpleHill,0-0,0,3,0-19,9-20;1-25;6-16;0-19;1-22;9-23,6-16,3.11,38,8,905.581625235,1
GEMS105,2018_Sep_24_1225,Kramer,SF,1.1,1,,10,6,3,SimpleHill,0-0,0,4,6-16,10-18;14-10;7-18;9-22;11-8;5-8,14-10,1.17,42,4,910.317887551,1
GEMS105,2018_Sep_24_1225,Kramer,SF,1.1,1,,10,6,3,SimpleHill,0-0,0,5,14-10,19-4;14-0;8-11;20-7;22-6;8-12,8-11,1.47,34,-8,915.360821027,1
GEMS105,2018_Sep_24_1225,Kramer,SF,1.1,1,,10,6,3,SimpleHill,0-0,0,6,8-11,9-4;14-9;3-13;4-11;10-4;13-17,13-17,1.19,50,16,920.119266129,1
GEMS105,2018_Sep_24_1225,Kramer,SF,1.1,1,,10,6,3,SimpleHill,0-0,0,7,13-17,12-15;9-26;14-12;8-17;13-25;13-7,9-26,2.31,54,4,925.984108007,1
GEMS105,2018_Sep_24_1225,Kramer,SF,1.1,1,,10,6,3,SimpleHill,0-0,0,8,9-26,7-26;3-19;11-35;9-25;10-27;5-32,10-27,1.1,57,3,930.663099867,1
GEMS105,2018_Sep_24_1225,Kramer,SF,1.1,1,,10,6,3,SimpleHill,0-0,0,9,10-27,3-32;14-27;19-31;5-24;16-26;14-35,3-32,1.41,49,-8,935.645817069,1
GEMS105,2018_Sep_24_1225,Kramer,SF,1.1,1,,10,6,3,SimpleHill,0-0,0,10,3-32,7-33;11-32;9-30;3-24;7-41;9-39,9-39,1.19,63,14,940.385604251,1
GEMS105,2018_Sep_24_1225,Kramer,SF,1.1,1,,10,6,3,SimpleHill,0-0,0,11,9-39,7-45;5-34;10-31;16-45;10-43;3-44,3-44,1.61,55,-8,945.566955039,1
GEMS105,2018_Sep_24_1225,Kramer,SF,1.1,1,,10,6,3,SimpleHill,0-0,0,12,3-44,1-38;8-43;8-39;1-39;1-50;12-48,8-43,1.68,63,8,950.802555241,1
GEMS105,2018_Sep_24_1225,Kramer,SF,1.1,1,,10,6,3,SimpleHill,0-0,0,13,8-43,5-39;9-34;13-48;3-35;1-47;6-38,13-48,2.19,72,9,956.572959669,1
GEMS105,2018_Sep_24_1225,Kramer,SF,1.1,1,,10,6,3,SimpleHill,0-0,0,14,13-48,9-57;12-56;21-43;13-39;7-48;14-46,9-57,1.9,65,-7,962.046222115,1
GEMS105,2018_Sep_24_1225,Kramer,SF,1.1,1,,10,6,3,SimpleHill,0-0,0,15,9-57,10-50;2-64;8-49;6-52;12-58;14-51,12-58,2.36,69,4,967.981484842,1
GEMS105,2018_Sep_24_1225,Kramer,SF,1.1,1,,10,6,3,SimpleHill,0-0,0,16,12-58,7-60;7-59;14-53;5-57;6-51;12-55,7-60,1.71,61,-8,973.269629642,1
GEMS105,2018_Sep_24_1225,Kramer,SF,1.1,1,,10,6,3,SimpleHill,0-0,0,17,7-60,15-58;11-58;3-66;2-53;12-55;0-64,12-55,2.51,70,9,979.346964827,1
GEMS105,2018_Sep_24_1225,Kramer,SF,1.1,1,,10,6,3,SimpleHill,0-0,0,18,12-55,9-59;10-64;9-49;13-58;4-52;18-50,9-59,1.23,64,-6,984.15196174,1
GEMS105,2018_Sep_24_1225,Kramer,SF,1.1,1,,10,6,3,SimpleHill,0-0,0,19,9-59,7-52;15-61;5-57;6-59;4-56;12-50,15-61,1.06,73,9,988.77822943,1
GEMS105,2018_Sep_24_1225,Kramer,SF,1.1,1,,10,6,3,SimpleHill,0-0,0,20,15-61,13-61;10-69;15-58;13-70;21-57;7-56,13-70,1.87,64,-9,994.234170665,1
GEMS105,2018_Sep_24_1225,Kramer,SF,1.1,1,,10,6,3,SimpleHill,0-0,0,21,13-70,9-61;19-63;11-69;7-67;10-70;22-67,9-61,1.85,63,-1,999.657617629,1
GEMS105,2018_Sep_24_1225,Kramer,SF,1.1,1,,10,6,3,SimpleHill,0-0,0,22,9-61,7-52;9-63;9-52;10-61;11-63;10-54,11-63,0.64,66,3,1003.87893687,1
GEMS105,2018_Sep_24_1225,Kramer,SF,1.1,1,,10,6,3,SimpleHill,0-0,0,23,11-63,14-62;8-68;3-66;7-70;5-55;13-64,8-68,0.96,58,-8,1008.41254491,1
GEMS105,2018_Sep_24_1225,Kramer,SF,1.1,1,,10,6,3,SimpleHill,0-0,0,24,8-68,13-69;14-60;5-68;3-69;2-62;11-64,11-64,0.81,65,7,1012.80268744,1
GEMS105,2018_Sep_24_1225,Kramer,SF,1.1,1,,10,6,3,SimpleHill,0-0,0,25,11-64,12-67;12-68;10-67;14-61;15-64;10-68,14-61,0.77,71,6,1017.13786259,1
GEMS105,2018_Sep_24_1225,Kramer,SF,1.1,1,,10,6,3,SimpleHill,0-0,0,26,14-61,11-55;16-52;15-64;10-70;12-57;19-58,11-55,1.07,69,-2,1021.76538216,1
GEMS105,2018_Sep_24_1225,Kramer,SF,1.1,1,,10,6,3,SimpleHill,0-0,0,27,11-55,16-59;3-51;13-63;15-64;11-64;19-57,13-63,0.47,69,0,1025.78833029,1
GEMS105,2018_Sep_24_1225,Kramer,SF,1.1,1,,10,6,3,SimpleHill,0-0,0,28,13-63,15-64;6-60;13-61;19-57;10-58;11-59,6-60,1.93,59,-10,1031.29344811,1
GEMS105,2018_Sep_24_1225,Kramer,SF,1.1,1,,10,6,3,SimpleHill,0-0,0,29,6-60,10-59;6-54;10-54;8-64;13-55;0-61,13-55,1.73,72,13,1036.6080387,1
GEMS105,2018_Sep_24_1225,Kramer,SF,1.1,1,,10,6,3,SimpleHill,0-0,0,30,13-55,14-48;16-55;19-63;15-60;6-56;6-58,15-60,2.64,73,1,1042.81293875,1
GEMS105,2018_Sep_24_1225,Kramer,SF,1.1,1,,10,6,3,SimpleHill,0-0,0,31,15-60,20-67;15-63;23-57;10-65;14-61;18-55,18-55,1.55,79,6,1047.9464039,1
GEMS105,2018_Sep_24_1225,Kramer,SF,1.1,1,,10,6,3,SimpleHill,0-0,0,32,18-55,22-61;27-59;26-54;16-55;21-48;10-61,22-61,1.32,81,2,1052.83050547,1
GEMS105,2018_Sep_24_1225,Kramer,SF,1.1,1,,10,6,3,SimpleHill,0-0,0,33,22-61,16-58;29-59;13-64;27-68;19-57;21-64,27-68,2.19,82,1,1058.59332369,1
GEMS105,2018_Sep_24_1225,Kramer,SF,1.1,1,,10,6,3,SimpleHill,0-0,0,34,27-68,28-63;22-67;36-68;22-63;36-70;21-68,21-68,2.2,76,-6,1064.37310013,1
GEMS105,2018_Sep_24_1225,Kramer,SF,1.1,1,,10,6,3,SimpleHill,0-0,0,35,21-68,21-70;15-66;15-64;20-61;17-65;23-63,21-70,0.73,75,-1,1068.66816854,1
GEMS105,2018_Sep_24_1225,Kramer,SF,1.1,1,,10,6,3,SimpleHill,0-0,0,36,21-70,13-69;16-66;17-61;23-66;14-63;12-69,23-66,1.01,80,5,1073.26395695,1
GEMS105,2018_Sep_24_1225,Kramer,SF,1.1,1,,10,6,3,SimpleHill,0-0,0,37,23-66,30-61;27-65;18-65;23-60;21-68;32-69,18-65,2.03,75,-5,1078.85441292,1
GEMS105,2018_Sep_24_1225,Kramer,SF,1.1,1,,10,6,3,SimpleHill,0-0,0,38,18-65,17-67;15-60;17-65;10-59;26-59;19-62,26-59,1.28,86,11,1083.70838827,1
GEMS105,2018_Sep_24_1225,Kramer,SF,1.1,1,,10,6,3,SimpleHill,0-0,0,39,26-59,28-53;27-68;24-59;23-61;30-52;25-57,25-57,1.61,86,0,1088.88106005,1
GEMS105,2018_Sep_24_1225,Kramer,SF,1.1,1,,10,6,4,SimpleHill,0-0,0,0,0-0,1-3;9-1;1-8;4-4;2-2;8-5,9-1,3.42,18,18,1103.74318113,1
GEMS105,2018_Sep_24_1225,Kramer,SF,1.1,1,,10,6,4,SimpleHill,0-0,0,1,9-1,10-9;9-3;1-1;15-0;8-8;9-2,8-8,3.18,29,11,1110.51649617,1
GEMS105,2018_Sep_24_1225,Kramer,SF,1.1,1,,10,6,4,SimpleHill,0-0,0,2,8-8,12-15;4-5;7-4;0-7;2-10;1-1,12-15,1.81,46,17,1115.90850421,1
GEMS105,2018_Sep_24_1225,Kramer,SF,1.1,1,,10,6,4,SimpleHill,0-0,0,3,12-15,18-21;15-17;13-18;15-11;5-9;6-12,15-17,3.79,53,7,1123.2786137,1
GEMS105,2018_Sep_24_1225,Kramer,SF,1.1,1,,10,6,4,SimpleHill,0-0,0,4,15-17,12-22;16-19;16-11;14-19;10-23;18-22,16-11,2.77,46,-7,1129.61952012,1
GEMS105,2018_Sep_24_1225,Kramer,SF,1.1,1,,10,6,4,SimpleHill,0-0,0,5,16-11,19-11;10-6;11-6;14-15;16-20;10-3,16-20,2.92,58,12,1136.09779395,1
GEMS105,2018_Sep_24_1225,Kramer,SF,1.1,1,,10,6,4,SimpleHill,0-0,0,6,16-20,16-19;22-24;9-13;20-11;17-18;9-18,16-19,2.37,57,-1,1142.05041534,1
GEMS105,2018_Sep_24_1225,Kramer,SF,1.1,1,,10,6,4,SimpleHill,0-0,0,7,16-19,19-24;12-23;10-18;21-14;14-26;14-25,12-23,1.1,56,-1,1146.71049704,1
GEMS105,2018_Sep_24_1225,Kramer,SF,1.1,1,,10,6,4,SimpleHill,0-0,0,8,12-23,16-25;9-24;20-19;9-20;7-23;12-28,12-28,1.65,61,5,1151.92575916,1
GEMS105,2018_Sep_24_1225,Kramer,SF,1.1,1,,10,6,4,SimpleHill,0-0,0,9,12-28,11-20;16-23;5-22;6-27;19-27;16-35,6-27,2.81,50,-11,1158.30127695,1
GEMS105,2018_Sep_24_1225,Kramer,SF,1.1,1,,10,6,4,SimpleHill,0-0,0,10,6-27,10-22;11-32;10-27;3-18;7-20;4-18,10-27,1.19,57,7,1163.04410918,1
GEMS105,2018_Sep_24_1225,Kramer,SF,1.1,1,,10,6,4,SimpleHill,0-0,0,11,10-27,16-21;12-30;17-28;13-19;11-22;8-28,17-28,1.36,68,11,1167.96799739,1
GEMS105,2018_Sep_24_1225,Kramer,SF,1.1,1,,10,6,4,SimpleHill,0-0,0,12,17-28,24-25;12-34;14-32;21-21;19-26;21-37,14-32,0.98,67,-1,1172.51133498,1
GEMS105,2018_Sep_24_1225,Kramer,SF,1.1,1,,10,6,4,SimpleHill,0-0,0,13,14-32,20-31;20-34;23-30;14-36;19-37;14-34,20-34,1.21,76,9,1177.2975549,1
GEMS105,2018_Sep_24_1225,Kramer,SF,1.1,1,,10,6,4,SimpleHill,0-0,0,14,20-34,15-33;24-25;24-29;24-43;15-30;20-25,15-33,1.63,69,-7,1182.49823485,1
GEMS105,2018_Sep_24_1225,Kramer,SF,1.1,1,,10,6,4,SimpleHill,0-0,0,15,15-33,18-24;16-25;21-31;15-43;14-36;15-37,15-43,1.43,74,5,1187.50509252,1
GEMS105,2018_Sep_24_1225,Kramer,SF,1.1,1,,10,6,4,SimpleHill,0-0,0,16,15-43,12-47;20-46;7-48;10-47;17-34;13-44,12-47,1.7,70,-4,1192.78094542,1
GEMS105,2018_Sep_24_1225,Kramer,SF,1.1,1,,10,6,4,SimpleHill,0-0,0,17,12-47,12-42;9-55;12-53;14-45;20-43;15-53,14-45,0.97,73,3,1197.31936478,1
GEMS105,2018_Sep_24_1225,Kramer,SF,1.1,1,,10,6,4,SimpleHill,0-0,0,18,14-45,13-48;9-51;6-39;21-41;15-40;20-50,20-50,1.11,82,9,1202.00130918,1
GEMS105,2018_Sep_24_1225,Kramer,SF,1.1,1,,10,6,4,SimpleHill,0-0,0,19,20-50,25-49;15-57;26-55;27-45;25-47;20-57,26-55,1.57,87,5,1207.15146656,1
GEMS105,2018_Sep_24_1225,Kramer,SF,1.1,1,,10,6,4,SimpleHill,0-0,0,20,26-55,32-59;21-62;32-50;22-49;25-56;29-55,32-59,0.88,91,4,1211.61104245,1
GEMS105,2018_Sep_24_1225,Kramer,SF,1.1,1,,10,6,4,SimpleHill,0-0,0,21,32-59,36-67;37-64;32-63;24-53;25-59;38-61,25-59,0.83,85,-6,1216.00989216,1
GEMS105,2018_Sep_24_1225,Kramer,SF,1.1,1,,10,6,4,SimpleHill,0-0,0,22,25-59,33-53;27-51;24-67;26-50;34-63;19-60,33-53,1.31,94,9,1220.88815171,1
GEMS105,2018_Sep_24_1225,Kramer,SF,1.1,1,,10,6,4,SimpleHill,0-0,0,23,33-53,39-58;39-60;29-50;32-51;38-48;27-52,39-60,1.62,95,1,1226.07651895,1
GEMS105,2018_Sep_24_1225,Kramer,SF,1.1,1,,10,6,4,SimpleHill,0-0,0,24,39-60,36-52;31-54;44-68;48-61;34-61;30-62,30-62,1.89,89,-6,1231.55404375,1
GEMS105,2018_Sep_24_1225,Kramer,SF,1.1,1,,10,6,4,SimpleHill,0-0,0,25,30-62,35-62;30-62;33-69;28-70;24-63;22-64,33-69,1.4,87,-2,1236.52813156,1
GEMS105,2018_Sep_24_1225,Kramer,SF,1.1,1,,10,6,4,SimpleHill,0-0,0,26,33-69,36-63;28-70;33-62;35-65;25-67;28-66,25-67,1.79,81,-6,1241.90230144,1
GEMS105,2018_Sep_24_1225,Kramer,SF,1.1,1,,10,6,4,SimpleHill,0-0,0,27,25-67,16-63;19-63;30-66;23-66;34-64;33-61,19-63,3.21,77,-4,1248.67873963,1
GEMS105,2018_Sep_24_1225,Kramer,SF,1.1,1,,10,6,4,SimpleHill,0-0,0,28,19-63,20-66;11-65;12-61;22-63;25-69;15-66,20-66,1.8,76,-1,1254.05802331,1
GEMS105,2018_Sep_24_1225,Kramer,SF,1.1,1,,10,6,4,SimpleHill,0-0,0,29,20-66,21-69;26-63;18-69;20-65;26-66;11-65,20-65,0.61,77,1,1258.24969775,1
GEMS105,2018_Sep_24_1225,Kramer,SF,1.1,1,,10,6,4,SimpleHill,0-0,0,30,20-65,26-62;26-61;26-65;14-59;27-62;12-63,26-65,0.56,83,6,1262.39568911,1
GEMS105,2018_Sep_24_1225,Kramer,SF,1.1,1,,10,6,4,SimpleHill,0-0,0,31,26-65,21-57;32-59;24-59;19-63;18-64;27-56,18-64,0.46,75,-8,1266.41463351,1
GEMS105,2018_Sep_24_1225,Kramer,SF,1.1,1,,10,6,4,SimpleHill,0-0,0,32,18-64,12-69;12-60;15-64;19-63;14-68;9-68,12-60,0.46,69,-6,1270.43628527,1
GEMS105,2018_Sep_24_1225,Kramer,SF,1.1,1,,10,6,4,SimpleHill,0-0,0,33,12-60,5-54;4-57;16-60;17-54;19-54;14-55,14-55,0.65,73,4,1274.66482933,1
GEMS105,2018_Sep_24_1225,Kramer,SF,1.1,1,,10,6,4,SimpleHill,0-0,0,34,14-55,8-59;12-47;17-55;16-50;17-60;8-60,8-59,0.48,63,-10,1278.72330206,1
GEMS105,2018_Sep_24_1225,Kramer,SF,1.1,1,,10,6,4,SimpleHill,0-0,0,35,8-59,10-67;10-60;8-59;11-54;6-67;5-54,10-60,0.47,66,3,1282.74863232,1
GEMS105,2018_Sep_24_1225,Kramer,SF,1.1,1,,10,6,4,SimpleHill,0-0,0,36,10-60,14-66;12-56;8-67;16-67;12-68;6-57,16-67,1.0,71,5,1287.3122968,1
GEMS105,2018_Sep_24_1225,Kramer,SF,1.1,1,,10,6,4,SimpleHill,0-0,0,37,16-67,14-58;8-68;21-63;20-70;10-60;17-62,10-60,0.79,66,-5,1291.68481148,1
GEMS105,2018_Sep_24_1225,Kramer,SF,1.1,1,,10,6,4,SimpleHill,0-0,0,38,10-60,16-67;10-59;9-55;2-59;11-65;1-56,10-59,1.32,66,0,1296.57031666,1
GEMS105,2018_Sep_24_1225,Kramer,SF,1.1,1,,10,6,4,SimpleHill,0-0,0,39,10-59,6-54;13-57;14-67;6-63;8-57;9-62,14-67,0.77,68,2,1300.90881534,1
