subj_id,date,computer,experimenter,version,generation,inherit_from,sight_radius,n_gabors,block_ix,landscape_name,starting_pos,starting_score,trial,pos,stims,selected,rt,score,delta,exp_time,landscape_ix
GEMS277,2018_Nov_09_2118,Kramer,SR,1.3,2,GEMS218,10,6,1,SimpleHill,0-0,1,0,0-0,5-1;6-8;4-8;3-1;1-2;1-7,1-Mar,9.01,8,7,319.4255656,1
GEMS277,2018_Nov_09_2118,Kramer,SR,1.3,2,GEMS218,10,6,1,SimpleHill,0-0,1,1,1-Mar,9-4;3-5;7-2;1-8;0-7;5-9,2-Jul,10.12,17,9,333.6391488,1
GEMS277,2018_Nov_09_2118,Kramer,SR,1.3,2,GEMS218,10,6,1,SimpleHill,0-0,1,2,2-Jul,16-3;4-5;15-8;12-6;11-3;16-2,16-2,8.1,31,14,345.7961185,1
GEMS277,2018_Nov_09_2118,Kramer,SR,1.3,2,GEMS218,10,6,1,SimpleHill,0-0,1,3,16-2,20-10;7-5;7-1;8-6;24-3;20-0,20-0,9.27,33,2,359.1439835,1
GEMS277,2018_Nov_09_2118,Kramer,SR,1.3,2,GEMS218,10,6,1,SimpleHill,0-0,1,4,20-0,18-7;16-7;24-6;17-0;14-7;17-6,14-7,6.12,38,5,369.3461346,1
GEMS277,2018_Nov_09_2118,Kramer,SR,1.3,2,GEMS218,10,6,1,SimpleHill,0-0,1,5,14-7,17-5;16-11;6-1;8-15;14-3;18-16,15-Aug,2.5,41,3,375.9043652,1
GEMS277,2018_Nov_09_2118,Kramer,SR,1.3,2,GEMS218,10,6,1,SimpleHill,0-0,1,6,15-Aug,12-12;7-22;4-11;4-17;10-6;12-8,8-Dec,1.68,36,-5,381.64467010000004,1
GEMS277,2018_Nov_09_2118,Kramer,SR,1.3,2,GEMS218,10,6,1,SimpleHill,0-0,1,7,8-Dec,15-2;11-7;13-14;6-12;12-10;20-8,13-14,2.82,47,11,388.5202452,1
GEMS277,2018_Nov_09_2118,Kramer,SR,1.3,2,GEMS218,10,6,1,SimpleHill,0-0,1,8,13-14,18-10;12-22;7-19;6-21;16-6;21-18,19-Jul,4.15,44,-3,396.74913369999996,1
GEMS277,2018_Nov_09_2118,Kramer,SR,1.3,2,GEMS218,10,6,1,SimpleHill,0-0,1,9,19-Jul,6-16;10-21;8-25;5-22;0-12;6-18,22-May,4.15,44,0,404.98407349999997,1
GEMS277,2018_Nov_09_2118,Kramer,SR,1.3,2,GEMS218,10,6,1,SimpleHill,0-0,1,10,22-May,14-21;9-25;9-23;2-28;6-28;5-28,28-May,2.96,50,6,412.0057105,1
GEMS277,2018_Nov_09_2118,Kramer,SR,1.3,2,GEMS218,10,6,1,SimpleHill,0-0,1,11,28-May,1-26;9-25;12-21;6-35;1-34;1-20,26-Jan,2.6,41,-9,418.7375562,1
GEMS277,2018_Nov_09_2118,Kramer,SR,1.3,2,GEMS218,10,6,1,SimpleHill,0-0,1,12,26-Jan,5-35;2-35;1-28;5-25;5-30;4-19,25-May,4.13,48,7,426.93404100000004,1
GEMS277,2018_Nov_09_2118,Kramer,SR,1.3,2,GEMS218,10,6,1,SimpleHill,0-0,1,13,25-May,11-31;2-34;0-27;7-34;10-29;5-25,Jul-34,4.94,58,10,435.938215,1
GEMS277,2018_Nov_09_2118,Kramer,SR,1.3,2,GEMS218,10,6,1,SimpleHill,0-0,1,14,Jul-34,4-26;1-34;12-28;2-27;17-34;5-35,17-34,7.11,74,16,447.1098008,1
GEMS277,2018_Nov_09_2118,Kramer,SR,1.3,2,GEMS218,10,6,1,SimpleHill,0-0,1,15,17-34,17-31;13-41;15-38;20-43;11-40;13-34,Nov-40,27.31,68,-6,478.5007397,1
GEMS277,2018_Nov_09_2118,Kramer,SR,1.3,2,GEMS218,10,6,1,SimpleHill,0-0,1,16,Nov-40,16-47;19-42;13-38;16-35;6-42;13-42,13-38,3.13,70,2,485.7106601,1
GEMS277,2018_Nov_09_2118,Kramer,SR,1.3,2,GEMS218,10,6,1,SimpleHill,0-0,1,17,13-38,11-43;10-33;6-44;14-45;8-39;9-42,Oct-33,2.61,63,-7,492.37950839999996,1
GEMS277,2018_Nov_09_2118,Kramer,SR,1.3,2,GEMS218,10,6,1,SimpleHill,0-0,1,18,Oct-33,18-33;4-26;12-28;4-40;14-29;9-28,28-Sep,1.79,57,-6,498.24864299999996,1
GEMS277,2018_Nov_09_2118,Kramer,SR,1.3,2,GEMS218,10,6,1,SimpleHill,0-0,1,19,28-Sep,1-30;15-36;17-29;11-23;8-21;16-30,17-29,2.98,70,13,505.30299410000003,1
GEMS277,2018_Nov_09_2118,Kramer,SR,1.3,2,GEMS218,10,6,1,SimpleHill,0-0,1,20,17-29,19-31;19-33;22-21;17-28;22-23;12-31,17-28,9.8,69,-1,519.1617243,1
GEMS277,2018_Nov_09_2118,Kramer,SR,1.3,2,GEMS218,10,6,1,SimpleHill,0-0,1,21,17-28,24-27;17-27;11-32;10-27;17-35;18-23,17-35,1.87,74,5,525.1150916,1
GEMS277,2018_Nov_09_2118,Kramer,SR,1.3,2,GEMS218,10,6,1,SimpleHill,0-0,1,22,17-35,18-29;9-36;11-28;16-35;13-43;19-26,13-43,11.57,72,-2,540.7611208,1
GEMS277,2018_Nov_09_2118,Kramer,SR,1.3,2,GEMS218,10,6,1,SimpleHill,0-0,1,23,13-43,12-37;14-35;18-43;14-34;4-39;14-37,18-43,9.26,79,7,554.0984768999999,1
GEMS277,2018_Nov_09_2118,Kramer,SR,1.3,2,GEMS218,10,6,1,SimpleHill,0-0,1,24,18-43,23-35;17-40;9-40;22-40;21-38;16-52,17-40,9.99,77,-2,568.1434045,1
GEMS277,2018_Nov_09_2118,Kramer,SR,1.3,2,GEMS218,10,6,1,SimpleHill,0-0,1,25,17-40,13-31;24-44;21-38;26-41;24-47;23-47,24-47,2.5,87,10,574.7071497000001,1
GEMS277,2018_Nov_09_2118,Kramer,SR,1.3,2,GEMS218,10,6,1,SimpleHill,0-0,1,26,24-47,16-42;16-51;15-44;19-43;31-50;28-43,15-44,3.9,75,-12,582.6954352000001,1
GEMS277,2018_Nov_09_2118,Kramer,SR,1.3,2,GEMS218,10,6,1,SimpleHill,0-0,1,27,15-44,14-45;20-48;13-45;14-49;20-43;23-46,23-46,3.3,86,11,590.0600312000001,1
GEMS277,2018_Nov_09_2118,Kramer,SR,1.3,2,GEMS218,10,6,1,SimpleHill,0-0,1,28,23-46,25-41;30-45;23-48;21-48;26-42;31-48,21-48,4.13,84,-2,598.2462612,1
GEMS277,2018_Nov_09_2118,Kramer,SR,1.3,2,GEMS218,10,6,1,SimpleHill,0-0,1,29,21-48,20-47;20-45;28-42;19-39;25-56;28-48,20-47,6.16,82,-2,608.4568364,1
GEMS277,2018_Nov_09_2118,Kramer,SR,1.3,2,GEMS218,10,6,1,SimpleHill,0-0,1,30,20-47,17-39;13-41;21-53;28-53;17-45;20-47,17-45,2.82,78,-4,615.3506988,1
GEMS277,2018_Nov_09_2118,Kramer,SR,1.3,2,GEMS218,10,6,1,SimpleHill,0-0,1,31,17-45,18-46;24-40;22-46;12-50;22-47;16-49,22-46,2.08,85,7,621.5239177,1
GEMS277,2018_Nov_09_2118,Kramer,SR,1.3,2,GEMS218,10,6,1,SimpleHill,0-0,1,32,22-46,18-52;17-39;18-55;19-55;27-48;22-55,18-55,0.78,80,-5,626.3661631,1
GEMS277,2018_Nov_09_2118,Kramer,SR,1.3,2,GEMS218,10,6,1,SimpleHill,0-0,1,33,18-55,25-56;20-52;14-51;15-59;11-52;22-63,15-59,2.04,74,-6,632.4920015,1
GEMS277,2018_Nov_09_2118,Kramer,SR,1.3,2,GEMS218,10,6,1,SimpleHill,0-0,1,34,15-59,22-57;9-62;22-63;11-68;9-67;20-53,Sep-67,5.63,61,-13,642.2001899,1
GEMS277,2018_Nov_09_2118,Kramer,SR,1.3,2,GEMS218,10,6,1,SimpleHill,0-0,1,35,Sep-67,9-68;11-61;13-59;5-62;5-70;15-66,13-59,3.79,72,11,650.0526207,1
GEMS277,2018_Nov_09_2118,Kramer,SR,1.3,2,GEMS218,10,6,1,SimpleHill,0-0,1,36,13-59,7-67;8-60;21-64;7-59;18-52;16-50,21-64,4.07,80,8,658.1924062,1
GEMS277,2018_Nov_09_2118,Kramer,SR,1.3,2,GEMS218,10,6,1,SimpleHill,0-0,1,37,21-64,16-62;18-55;28-64;13-70;24-60;22-59,28-64,4.07,87,7,666.3392107000001,1
GEMS277,2018_Nov_09_2118,Kramer,SR,1.3,2,GEMS218,10,6,1,SimpleHill,0-0,1,38,28-64,22-67;28-62;22-62;33-56;26-61;27-61,28-62,7.84,88,1,678.2603609,1
GEMS277,2018_Nov_09_2118,Kramer,SR,1.3,2,GEMS218,10,6,1,SimpleHill,0-0,1,39,28-62,32-57;33-67;30-63;24-66;25-58;19-61,32-57,12.17,93,5,694.5043168,1
GEMS277,2018_Nov_09_2118,Kramer,SR,1.3,2,GEMS218,10,6,1,SimpleHill,0-0,1,40,32-57,25-50;26-50;36-58;27-49;35-62;28-54,35-62,9.49,93,0,708.0667672000001,1
GEMS277,2018_Nov_09_2118,Kramer,SR,1.3,2,GEMS218,10,6,1,SimpleHill,0-0,1,41,35-62,28-60;30-66;35-53;26-59;31-57;32-66,32-66,7.45,89,-4,719.5998804999999,1
GEMS277,2018_Nov_09_2118,Kramer,SR,1.3,2,GEMS218,10,6,1,SimpleHill,0-0,1,42,32-66,28-70;25-60;35-65;41-68;30-63;29-62,28-70,5.57,83,-6,729.2315423,1
GEMS277,2018_Nov_09_2118,Kramer,SR,1.3,2,GEMS218,10,6,1,SimpleHill,0-0,1,43,28-70,30-64;36-67;37-68;32-61;29-63;22-64,37-68,8.93,91,8,742.2302107,1
GEMS277,2018_Nov_09_2118,Kramer,SR,1.3,2,GEMS218,10,6,1,SimpleHill,0-0,1,44,37-68,40-65;46-68;28-70;42-68;38-65;42-61,28-70,6.48,83,-8,752.7709422,1
GEMS277,2018_Nov_09_2118,Kramer,SR,1.3,2,GEMS218,10,6,1,SimpleHill,0-0,1,45,28-70,28-67;22-62;28-66;29-62;21-65;22-70,29-62,5.69,89,6,762.5372342000001,1
GEMS277,2018_Nov_09_2118,Kramer,SR,1.3,2,GEMS218,10,6,1,SimpleHill,0-0,1,46,29-62,25-61;36-64;35-60;32-66;23-62;33-61,35-60,4.95,94,5,771.5591927999999,1
GEMS277,2018_Nov_09_2118,Kramer,SR,1.3,2,GEMS218,10,6,1,SimpleHill,0-0,1,47,35-60,30-67;43-55;28-66;34-69;38-51;41-54,34-69,2.76,88,-6,778.3948204,1
GEMS277,2018_Nov_09_2118,Kramer,SR,1.3,2,GEMS218,10,6,1,SimpleHill,0-0,1,48,34-69,27-62;32-62;41-70;27-67;38-61;36-65,32-62,3.45,91,3,785.9189896,1
GEMS277,2018_Nov_09_2118,Kramer,SR,1.3,2,GEMS218,10,6,1,SimpleHill,0-0,1,49,32-62,33-66;33-61;35-67;25-61;32-70;27-60,32-70,2.94,86,-5,792.9393805,1
GEMS277,2018_Nov_09_2118,Kramer,SR,1.3,2,GEMS218,10,6,1,SimpleHill,0-0,1,50,32-70,39-69;33-68;37-67;31-68;32-62;26-63,32-62,3.32,91,5,800.3174991000001,1
GEMS277,2018_Nov_09_2118,Kramer,SR,1.3,2,GEMS218,10,6,1,SimpleHill,0-0,1,51,32-62,29-63;32-65;39-59;32-57;23-65;38-70,32-65,3.77,90,-1,808.1647249,1
GEMS277,2018_Nov_09_2118,Kramer,SR,1.3,2,GEMS218,10,6,1,SimpleHill,0-0,1,52,32-65,32-60;29-67;34-70;23-63;35-63;34-60,35-63,1.71,93,3,813.9543282000001,1
GEMS277,2018_Nov_09_2118,Kramer,SR,1.3,2,GEMS218,10,6,1,SimpleHill,0-0,1,53,35-63,28-63;27-64;29-64;35-65;41-64;41-69,29-64,2.1,88,-5,820.1298584,1
GEMS277,2018_Nov_09_2118,Kramer,SR,1.3,2,GEMS218,10,6,1,SimpleHill,0-0,1,54,29-64,35-62;36-59;28-58;34-64;25-62;28-56,36-59,3.41,95,7,827.6166293,1
GEMS277,2018_Nov_09_2118,Kramer,SR,1.3,2,GEMS218,10,6,1,SimpleHill,0-0,1,55,36-59,33-66;45-56;36-69;41-57;32-61;45-57,32-61,7.24,92,-3,838.9491439999999,1
GEMS277,2018_Nov_09_2118,Kramer,SR,1.3,2,GEMS218,10,6,1,SimpleHill,0-0,1,56,32-61,38-68;33-70;33-58;24-61;37-61;26-68,33-70,2.56,87,-5,845.5813349,1
GEMS277,2018_Nov_09_2118,Kramer,SR,1.3,2,GEMS218,10,6,1,SimpleHill,0-0,1,57,33-70,37-69;40-68;39-62;34-69;38-62;36-66,34-69,1.78,88,1,851.4363994999999,1
GEMS277,2018_Nov_09_2118,Kramer,SR,1.3,2,GEMS218,10,6,1,SimpleHill,0-0,1,58,34-69,42-66;29-70;25-69;41-63;29-63;25-70,29-70,2.49,84,-4,858.0093736,1
GEMS277,2018_Nov_09_2118,Kramer,SR,1.3,2,GEMS218,10,6,1,SimpleHill,0-0,1,59,29-70,35-70;21-70;29-61;31-67;25-69;20-69,21-70,3.34,76,-8,865.4224828,1
GEMS277,2018_Nov_09_2118,Kramer,SR,1.3,2,GEMS218,10,6,1,SimpleHill,0-0,1,60,21-70,22-64;11-70;19-70;25-68;22-61;23-62,19-70,2.41,73,-3,871.9175335000001,1
GEMS277,2018_Nov_09_2118,Kramer,SR,1.3,2,GEMS218,10,6,1,SimpleHill,0-0,1,61,19-70,23-61;15-61;26-70;13-66;17-69;21-66,17-69,1.89,72,-1,877.8921927000001,1
GEMS277,2018_Nov_09_2118,Kramer,SR,1.3,2,GEMS218,10,6,1,SimpleHill,0-0,1,62,17-69,10-62;19-63;21-69;17-66;22-67;15-67,19-63,0.95,78,6,882.9182909,1
GEMS277,2018_Nov_09_2118,Kramer,SR,1.3,2,GEMS218,10,6,1,SimpleHill,0-0,1,63,19-63,13-62;25-67;17-66;19-63;26-59;21-58,26-59,2.87,87,9,889.8601037999999,1
GEMS277,2018_Nov_09_2118,Kramer,SR,1.3,2,GEMS218,10,6,1,SimpleHill,0-0,1,64,26-59,22-65;26-62;27-53;20-57;35-56;22-57,27-53,2.25,90,3,896.1965171,1
GEMS277,2018_Nov_09_2118,Kramer,SR,1.3,2,GEMS218,10,6,1,SimpleHill,0-0,1,65,27-53,18-55;23-54;28-61;27-55;34-47;19-55,34-47,2.43,95,5,902.683594,1
GEMS277,2018_Nov_09_2118,Kramer,SR,1.3,2,GEMS218,10,6,1,SimpleHill,0-0,1,66,34-47,32-48;27-49;36-56;34-39;28-54;32-54,27-49,4.47,90,-5,911.2167204,1
GEMS277,2018_Nov_09_2118,Kramer,SR,1.3,2,GEMS218,10,6,1,SimpleHill,0-0,1,67,27-49,32-41;28-48;23-45;20-44;28-51;32-44,28-51,2.06,91,1,917.3488986,1
GEMS277,2018_Nov_09_2118,Kramer,SR,1.3,2,GEMS218,10,6,1,SimpleHill,0-0,1,68,28-51,30-42;29-59;27-53;25-45;27-54;20-54,27-54,2.0,90,-1,923.4163232999999,1
GEMS277,2018_Nov_09_2118,Kramer,SR,1.3,2,GEMS218,10,6,1,SimpleHill,0-0,1,69,27-54,30-59;23-60;25-51;27-58;28-61;24-60,27-58,2.27,89,-1,929.7383208999998,1
GEMS277,2018_Nov_09_2118,Kramer,SR,1.3,2,GEMS218,10,6,1,SimpleHill,0-0,1,70,27-58,36-60;28-56;27-55;30-54;32-51;26-50,30-54,1.68,92,3,935.4969716,1
GEMS277,2018_Nov_09_2118,Kramer,SR,1.3,2,GEMS218,10,6,1,SimpleHill,0-0,1,71,30-54,37-53;29-63;24-61;29-47;30-56;30-61,29-63,2.37,88,-4,941.9352689,1
GEMS277,2018_Nov_09_2118,Kramer,SR,1.3,2,GEMS218,10,6,1,SimpleHill,0-0,1,72,29-63,34-66;25-55;32-66;26-66;35-58;33-63,32-66,3.2,89,1,949.2054439,1
GEMS277,2018_Nov_09_2118,Kramer,SR,1.3,2,GEMS218,10,6,1,SimpleHill,0-0,1,73,32-66,24-62;34-59;35-63;34-70;22-66;40-62,34-70,1.3,87,-2,954.5833454,1
GEMS277,2018_Nov_09_2118,Kramer,SR,1.3,2,GEMS218,10,6,1,SimpleHill,0-0,1,74,34-70,42-65;25-68;28-66;31-70;25-67;35-62,25-68,2.87,82,-5,961.5427438999999,1
GEMS277,2018_Nov_09_2118,Kramer,SR,1.3,2,GEMS218,10,6,1,SimpleHill,0-0,1,75,25-68,20-64;27-63;30-69;29-59;19-62;15-68,30-69,2.31,85,3,967.9409383999999,1
GEMS277,2018_Nov_09_2118,Kramer,SR,1.3,2,GEMS218,10,6,1,SimpleHill,0-0,1,76,30-69,32-60;30-59;33-60;25-62;28-65;37-65,28-65,3.63,86,1,975.6479072000001,1
GEMS277,2018_Nov_09_2118,Kramer,SR,1.3,2,GEMS218,10,6,1,SimpleHill,0-0,1,77,28-65,30-58;30-56;23-65;29-56;35-60;29-64,23-65,1.25,81,-5,980.9545995999999,1
GEMS277,2018_Nov_09_2118,Kramer,SR,1.3,2,GEMS218,10,6,1,SimpleHill,0-0,1,78,23-65,24-58;26-57;21-63;16-64;28-66;21-60,28-66,2.78,86,5,987.8208447000001,1
GEMS277,2018_Nov_09_2118,Kramer,SR,1.3,2,GEMS218,10,6,1,SimpleHill,0-0,1,79,28-66,23-70;27-62;30-67;21-67;28-58;24-64,27-62,4.67,87,1,996.5521207,1
GEMS277,2018_Nov_09_2118,Kramer,SR,1.3,2,GEMS218,10,6,2,SimpleHill,0-0,1,0,0-0,7-5;1-0;5-4;8-3;1-4;0-9,Jan-00,8.27,2,1,1165.834365,1
GEMS277,2018_Nov_09_2118,Kramer,SR,1.3,2,GEMS218,10,6,2,SimpleHill,0-0,1,1,Jan-00,10-2;6-3;3-0;9-4;8-2;8-6,Mar-00,3.51,6,4,1173.420051,1
GEMS277,2018_Nov_09_2118,Kramer,SR,1.3,2,GEMS218,10,6,2,SimpleHill,0-0,1,2,Mar-00,9-3;7-2;5-5;1-8;1-0;6-5,Jan-00,3.22,2,-4,1180.710844,1
GEMS277,2018_Nov_09_2118,Kramer,SR,1.3,2,GEMS218,10,6,2,SimpleHill,0-0,1,3,Jan-00,7-2;0-9;8-1;2-1;1-10;7-8,1-Aug,1.05,17,15,1185.821241,1
GEMS277,2018_Nov_09_2118,Kramer,SR,1.3,2,GEMS218,10,6,2,SimpleHill,0-0,1,4,1-Aug,8-11;9-8;8-10;0-7;13-1;3-0,13-1,2.89,25,8,1192.784882,1
GEMS277,2018_Nov_09_2118,Kramer,SR,1.3,2,GEMS218,10,6,2,SimpleHill,0-0,1,5,13-1,13-6;9-4;15-3;7-2;19-4;20-6,19-4,1.87,39,14,1198.726985,1
GEMS277,2018_Nov_09_2118,Kramer,SR,1.3,2,GEMS218,10,6,2,SimpleHill,0-0,1,6,19-4,19-6;17-5;12-0;11-6;25-2;11-0,Dec-00,1.81,22,-17,1204.601017,1
GEMS277,2018_Nov_09_2118,Kramer,SR,1.3,2,GEMS218,10,6,2,SimpleHill,0-0,1,7,Dec-00,7-0;11-2;6-2;9-2;11-1;6-1,1-Nov,1.08,22,0,1209.742814,1
GEMS277,2018_Nov_09_2118,Kramer,SR,1.3,2,GEMS218,10,6,2,SimpleHill,0-0,1,8,1-Nov,12-2;6-9;15-9;4-2;4-0;6-6,Apr-00,2.2,8,-14,1216.007664,1
GEMS277,2018_Nov_09_2118,Kramer,SR,1.3,2,GEMS218,10,6,2,SimpleHill,0-0,1,9,Apr-00,6-5;5-0;3-1;12-1;5-5;7-8,1-Mar,1.98,8,0,1222.04485,1
GEMS277,2018_Nov_09_2118,Kramer,SR,1.3,2,GEMS218,10,6,2,SimpleHill,0-0,1,10,1-Mar,4-8;9-6;4-10;1-4;5-2;11-3,10-Apr,4.12,26,18,1230.216392,1
GEMS277,2018_Nov_09_2118,Kramer,SR,1.3,2,GEMS218,10,6,2,SimpleHill,0-0,1,11,10-Apr,4-0;12-6;0-12;6-10;10-15;2-18,15-Oct,4.32,44,18,1238.589783,1
GEMS277,2018_Nov_09_2118,Kramer,SR,1.3,2,GEMS218,10,6,2,SimpleHill,0-0,1,12,15-Oct,3-15;10-7;13-7;16-22;10-22;9-18,18-Sep,4.42,46,2,1247.083731,1
GEMS277,2018_Nov_09_2118,Kramer,SR,1.3,2,GEMS218,10,6,2,SimpleHill,0-0,1,13,18-Sep,16-19;11-16;14-18;5-10;4-15;13-20,14-18,1.58,54,8,1252.7308369999998,1
GEMS277,2018_Nov_09_2118,Kramer,SR,1.3,2,GEMS218,10,6,2,SimpleHill,0-0,1,14,14-18,18-21;20-14;24-18;13-25;19-14;20-12,24-18,5.17,67,13,1261.967732,1
GEMS277,2018_Nov_09_2118,Kramer,SR,1.3,2,GEMS218,10,6,2,SimpleHill,0-0,1,15,24-18,24-16;17-13;20-10;24-23;15-16;31-12,15-16,3.72,53,-14,1269.770883,1
GEMS277,2018_Nov_09_2118,Kramer,SR,1.3,2,GEMS218,10,6,2,SimpleHill,0-0,1,16,15-16,8-20;8-11;18-9;13-13;14-9;9-12,13-13,3.26,46,-7,1277.081579,1
GEMS277,2018_Nov_09_2118,Kramer,SR,1.3,2,GEMS218,10,6,2,SimpleHill,0-0,1,17,13-13,9-22;8-8;12-5;22-10;15-4;19-14,19-14,3.29,55,9,1284.444751,1
GEMS277,2018_Nov_09_2118,Kramer,SR,1.3,2,GEMS218,10,6,2,SimpleHill,0-0,1,18,19-14,19-7;12-21;21-9;21-21;26-14;12-12,21-Dec,2.12,55,0,1290.647182,1
GEMS277,2018_Nov_09_2118,Kramer,SR,1.3,2,GEMS218,10,6,2,SimpleHill,0-0,1,19,21-Dec,14-22;13-19;10-20;21-17;4-20;9-30,21-17,1.35,62,7,1296.0559150000001,1
GEMS277,2018_Nov_09_2118,Kramer,SR,1.3,2,GEMS218,10,6,2,SimpleHill,0-0,1,20,21-17,20-13;18-26;24-19;27-16;23-21;28-16,27-16,2.12,67,5,1302.244824,1
GEMS277,2018_Nov_09_2118,Kramer,SR,1.3,2,GEMS218,10,6,2,SimpleHill,0-0,1,21,27-16,19-11;20-16;19-13;33-20;21-23;31-14,20-16,0.98,59,-8,1307.2916599999999,1
GEMS277,2018_Nov_09_2118,Kramer,SR,1.3,2,GEMS218,10,6,2,SimpleHill,0-0,1,22,20-16,17-16;22-15;21-10;19-10;18-13;19-14,18-13,0.61,53,-6,1311.954982,1
GEMS277,2018_Nov_09_2118,Kramer,SR,1.3,2,GEMS218,10,6,2,SimpleHill,0-0,1,23,18-13,12-13;17-12;24-15;19-6;11-13;18-17,24-15,0.5,62,9,1316.512943,1
GEMS277,2018_Nov_09_2118,Kramer,SR,1.3,2,GEMS218,10,6,2,SimpleHill,0-0,1,24,24-15,24-20;24-5;24-24;18-21;32-14;18-14,18-21,0.49,63,1,1321.075893,1
GEMS277,2018_Nov_09_2118,Kramer,SR,1.3,2,GEMS218,10,6,2,SimpleHill,0-0,1,25,18-21,22-24;16-30;15-23;26-27;13-28;18-24,22-24,0.82,71,8,1325.976445,1
GEMS277,2018_Nov_09_2118,Kramer,SR,1.3,2,GEMS218,10,6,2,SimpleHill,0-0,1,26,22-24,20-24;20-23;17-32;25-33;15-29;24-22,17-32,0.65,72,1,1330.697499,1
GEMS277,2018_Nov_09_2118,Kramer,SR,1.3,2,GEMS218,10,6,2,SimpleHill,0-0,1,27,17-32,23-30;13-27;16-27;15-33;19-24;18-34,18-34,0.34,75,3,1335.104584,1
GEMS277,2018_Nov_09_2118,Kramer,SR,1.3,2,GEMS218,10,6,2,SimpleHill,0-0,1,28,18-34,20-26;20-36;15-38;15-28;27-36;23-38,20-36,0.4,79,4,1339.560886,1
GEMS277,2018_Nov_09_2118,Kramer,SR,1.3,2,GEMS218,10,6,2,SimpleHill,0-0,1,29,20-36,13-35;15-37;15-30;14-35;24-29;11-34,14-35,0.39,70,-9,1343.9984279999999,1
GEMS277,2018_Nov_09_2118,Kramer,SR,1.3,2,GEMS218,10,6,2,SimpleHill,0-0,1,30,14-35,12-26;9-40;23-31;16-29;12-40;11-28,Sep-40,0.48,65,-5,1348.549324,1
GEMS277,2018_Nov_09_2118,Kramer,SR,1.3,2,GEMS218,10,6,2,SimpleHill,0-0,1,31,Sep-40,15-38;5-40;2-47;4-47;4-38;9-30,Feb-47,0.36,54,-11,1352.974972,1
GEMS277,2018_Nov_09_2118,Kramer,SR,1.3,2,GEMS218,10,6,2,SimpleHill,0-0,1,32,Feb-47,2-57;10-50;9-51;2-41;11-43;5-46,May-46,0.44,60,6,1357.471847,1
GEMS277,2018_Nov_09_2118,Kramer,SR,1.3,2,GEMS218,10,6,2,SimpleHill,0-0,1,33,May-46,6-54;0-40;6-51;13-46;7-53;1-53,13-46,0.42,73,13,1361.953841,1
GEMS277,2018_Nov_09_2118,Kramer,SR,1.3,2,GEMS218,10,6,2,SimpleHill,0-0,1,34,13-46,16-50;5-50;12-43;5-43;5-41;16-45,Dec-43,0.8,71,-2,1366.835419,1
GEMS277,2018_Nov_09_2118,Kramer,SR,1.3,2,GEMS218,10,6,2,SimpleHill,0-0,1,35,Dec-43,5-38;3-46;2-43;15-47;16-35;11-35,16-35,0.45,73,2,1371.338356,1
GEMS277,2018_Nov_09_2118,Kramer,SR,1.3,2,GEMS218,10,6,2,SimpleHill,0-0,1,36,16-35,10-33;25-34;26-35;21-28;15-40;13-28,25-34,0.25,83,10,1375.639453,1
GEMS277,2018_Nov_09_2118,Kramer,SR,1.3,2,GEMS218,10,6,2,SimpleHill,0-0,1,37,25-34,27-35;21-37;28-38;22-42;30-42;34-33,22-42,0.46,84,1,1380.175416,1
GEMS277,2018_Nov_09_2118,Kramer,SR,1.3,2,GEMS218,10,6,2,SimpleHill,0-0,1,38,22-42,29-35;17-47;20-36;30-45;18-51;22-50,22-50,0.25,85,1,1384.5076960000001,1
GEMS277,2018_Nov_09_2118,Kramer,SR,1.3,2,GEMS218,10,6,2,SimpleHill,0-0,1,39,22-50,16-42;21-41;28-48;20-45;17-56;22-48,16-42,0.27,76,-9,1388.8551220000002,1
GEMS277,2018_Nov_09_2118,Kramer,SR,1.3,2,GEMS218,10,6,2,SimpleHill,0-0,1,40,16-42,20-43;12-40;24-46;22-49;20-45;7-45,24-46,0.45,87,11,1393.378146,1
GEMS277,2018_Nov_09_2118,Kramer,SR,1.3,2,GEMS218,10,6,2,SimpleHill,0-0,1,41,24-46,18-48;20-50;26-41;23-55;21-49;20-41,23-55,0.38,85,-2,1397.8402640000002,1
GEMS277,2018_Nov_09_2118,Kramer,SR,1.3,2,GEMS218,10,6,2,SimpleHill,0-0,1,42,23-55,29-57;16-61;25-47;23-49;23-54;20-46,23-54,0.23,86,1,1402.154414,1
GEMS277,2018_Nov_09_2118,Kramer,SR,1.3,2,GEMS218,10,6,2,SimpleHill,0-0,1,43,23-54,19-48;24-58;26-51;17-47;25-59;17-52,24-58,0.24,86,0,1406.451627,1
GEMS277,2018_Nov_09_2118,Kramer,SR,1.3,2,GEMS218,10,6,2,SimpleHill,0-0,1,44,24-58,28-61;19-55;29-63;23-56;24-55;17-59,29-63,0.25,88,2,1410.765633,1
GEMS277,2018_Nov_09_2118,Kramer,SR,1.3,2,GEMS218,10,6,2,SimpleHill,0-0,1,45,29-63,29-67;36-61;32-70;31-58;29-68;32-69,31-58,0.28,92,4,1415.1216029999998,1
GEMS277,2018_Nov_09_2118,Kramer,SR,1.3,2,GEMS218,10,6,2,SimpleHill,0-0,1,46,31-58,35-51;25-61;33-60;32-67;35-52;29-50,35-51,0.36,96,4,1419.557443,1
GEMS277,2018_Nov_09_2118,Kramer,SR,1.3,2,GEMS218,10,6,2,SimpleHill,0-0,1,47,35-51,41-53;35-55;32-44;29-56;34-44;41-59,41-59,0.23,97,1,1423.871425,1
GEMS277,2018_Nov_09_2118,Kramer,SR,1.3,2,GEMS218,10,6,2,SimpleHill,0-0,1,48,41-59,40-58;41-65;33-62;42-51;43-60;49-57,33-62,0.24,92,-5,1428.1840730000001,1
GEMS277,2018_Nov_09_2118,Kramer,SR,1.3,2,GEMS218,10,6,2,SimpleHill,0-0,1,49,33-62,27-62;37-54;38-66;36-59;24-63;34-65,36-59,0.23,95,3,1432.472836,1
GEMS277,2018_Nov_09_2118,Kramer,SR,1.3,2,GEMS218,10,6,2,SimpleHill,0-0,1,50,36-59,44-62;43-53;43-63;30-51;40-51;27-59,43-53,0.23,99,4,1436.7719849999999,1
GEMS277,2018_Nov_09_2118,Kramer,SR,1.3,2,GEMS218,10,6,2,SimpleHill,0-0,1,51,43-53,40-47;50-56;49-51;46-48;39-44;34-50,39-44,0.23,97,-2,1441.07744,1
GEMS277,2018_Nov_09_2118,Kramer,SR,1.3,2,GEMS218,10,6,2,SimpleHill,0-0,1,52,39-44,41-38;36-40;39-35;32-42;41-37;31-50,39-35,0.22,94,-3,1445.360539,1
GEMS277,2018_Nov_09_2118,Kramer,SR,1.3,2,GEMS218,10,6,2,SimpleHill,0-0,1,53,39-35,33-32;31-30;42-31;37-37;38-29;40-43,37-37,0.27,94,0,1449.707014,1
GEMS277,2018_Nov_09_2118,Kramer,SR,1.3,2,GEMS218,10,6,2,SimpleHill,0-0,1,54,37-37,39-42;42-34;38-40;40-43;35-30;41-40,41-40,0.27,97,3,1454.032984,1
GEMS277,2018_Nov_09_2118,Kramer,SR,1.3,2,GEMS218,10,6,2,SimpleHill,0-0,1,55,41-40,47-32;49-35;44-43;36-35;36-32;38-46,36-32,0.26,90,-7,1458.360984,1
GEMS277,2018_Nov_09_2118,Kramer,SR,1.3,2,GEMS218,10,6,2,SimpleHill,0-0,1,56,36-32,42-39;37-29;45-36;27-32;29-39;41-26,42-39,0.45,97,7,1462.884201,1
GEMS277,2018_Nov_09_2118,Kramer,SR,1.3,2,GEMS218,10,6,2,SimpleHill,0-0,1,57,42-39,46-30;42-37;44-39;47-46;38-47;43-41,42-37,0.28,96,-1,1467.2125859999999,1
GEMS277,2018_Nov_09_2118,Kramer,SR,1.3,2,GEMS218,10,6,2,SimpleHill,0-0,1,58,42-37,44-45;48-30;42-44;41-39;34-31;38-39,42-44,0.28,99,3,1471.563048,1
GEMS277,2018_Nov_09_2118,Kramer,SR,1.3,2,GEMS218,10,6,2,SimpleHill,0-0,1,59,42-44,41-49;48-52;49-46;37-45;36-36;47-45,37-45,0.42,97,-2,1476.0467429999999,1
GEMS277,2018_Nov_09_2118,Kramer,SR,1.3,2,GEMS218,10,6,2,SimpleHill,0-0,1,60,37-45,27-45;43-50;43-40;40-52;39-54;44-51,43-40,0.39,98,1,1480.484866,1
GEMS277,2018_Nov_09_2118,Kramer,SR,1.3,2,GEMS218,10,6,2,SimpleHill,0-0,1,61,43-40,46-49;40-47;41-48;44-45;44-42;38-43,44-42,0.24,99,1,1484.796592,1
GEMS277,2018_Nov_09_2118,Kramer,SR,1.3,2,GEMS218,10,6,2,SimpleHill,0-0,1,62,44-42,46-40;49-39;37-44;51-38;44-41;46-39,49-39,0.25,98,-1,1489.111025,1
GEMS277,2018_Nov_09_2118,Kramer,SR,1.3,2,GEMS218,10,6,2,SimpleHill,0-0,1,63,49-39,51-39;42-43;43-37;44-40;50-40;58-42,43-37,0.56,96,-2,1493.727259,1
GEMS277,2018_Nov_09_2118,Kramer,SR,1.3,2,GEMS218,10,6,2,SimpleHill,0-0,1,64,43-37,46-42;50-35;48-41;44-39;39-28;37-31,44-39,0.29,97,1,1498.084818,1
GEMS277,2018_Nov_09_2118,Kramer,SR,1.3,2,GEMS218,10,6,2,SimpleHill,0-0,1,65,44-39,42-38;47-30;40-38;47-37;50-46;40-45,40-45,0.35,98,1,1502.5163730000002,1
GEMS277,2018_Nov_09_2118,Kramer,SR,1.3,2,GEMS218,10,6,2,SimpleHill,0-0,1,66,40-45,36-53;35-48;36-44;37-42;44-42;42-49,44-42,0.42,99,1,1507.0078369999999,1
GEMS277,2018_Nov_09_2118,Kramer,SR,1.3,2,GEMS218,10,6,2,SimpleHill,0-0,1,67,44-42,43-43;37-39;53-41;53-40;42-39;45-34,37-39,0.21,95,-4,1511.29425,1
GEMS277,2018_Nov_09_2118,Kramer,SR,1.3,2,GEMS218,10,6,2,SimpleHill,0-0,1,68,37-39,40-37;35-43;40-36;45-39;39-45;29-34,40-36,0.25,95,0,1515.616028,1
GEMS277,2018_Nov_09_2118,Kramer,SR,1.3,2,GEMS218,10,6,2,SimpleHill,0-0,1,69,40-36,39-34;33-32;40-43;43-38;39-33;31-39,43-38,0.37,97,2,1520.0299730000002,1
GEMS277,2018_Nov_09_2118,Kramer,SR,1.3,2,GEMS218,10,6,2,SimpleHill,0-0,1,70,43-38,45-34;51-37;42-31;34-34;36-31;48-30,42-31,0.27,92,-5,1524.374955,1
GEMS277,2018_Nov_09_2118,Kramer,SR,1.3,2,GEMS218,10,6,2,SimpleHill,0-0,1,71,42-31,46-32;41-40;42-41;36-23;33-31;39-23,36-23,0.31,82,-10,1528.7634050000001,1
GEMS277,2018_Nov_09_2118,Kramer,SR,1.3,2,GEMS218,10,6,2,SimpleHill,0-0,1,72,36-23,29-29;36-23;45-21;42-18;34-17;39-25,36-23,0.42,82,0,1533.251311,1
GEMS277,2018_Nov_09_2118,Kramer,SR,1.3,2,GEMS218,10,6,2,SimpleHill,0-0,1,73,36-23,43-20;44-21;35-20;33-24;40-21;35-15,40-21,0.33,82,0,1537.642888,1
GEMS277,2018_Nov_09_2118,Kramer,SR,1.3,2,GEMS218,10,6,2,SimpleHill,0-0,1,74,40-21,46-13;44-21;46-14;33-15;42-30;38-13,46-14,0.47,74,-8,1542.2520769999999,1
GEMS277,2018_Nov_09_2118,Kramer,SR,1.3,2,GEMS218,10,6,2,SimpleHill,0-0,1,75,46-14,39-17;46-6;50-15;48-12;43-9;43-21,48-12,0.39,72,-2,1546.702443,1
GEMS277,2018_Nov_09_2118,Kramer,SR,1.3,2,GEMS218,10,6,2,SimpleHill,0-0,1,76,48-12,42-12;54-9;52-11;44-3;42-15;51-9,54-9,0.34,67,-5,1551.104272,1
GEMS277,2018_Nov_09_2118,Kramer,SR,1.3,2,GEMS218,10,6,2,SimpleHill,0-0,1,77,54-9,47-9;49-12;61-13;50-9;53-9;49-9,49-9,0.81,67,0,1555.9682300000002,1
GEMS277,2018_Nov_09_2118,Kramer,SR,1.3,2,GEMS218,10,6,2,SimpleHill,0-0,1,78,49-9,50-13;49-8;42-14;53-8;52-16;46-5,42-14,0.68,73,6,1560.701584,1
GEMS277,2018_Nov_09_2118,Kramer,SR,1.3,2,GEMS218,10,6,2,SimpleHill,0-0,1,79,42-14,41-21;49-12;37-9;49-11;47-14;39-7,49-11,0.24,70,-3,1565.012666,1
