subj_id,date,computer,experimenter,version,generation,inherit_from,sight_radius,n_gabors,block_ix,landscape_name,starting_pos,starting_score,trial,pos,stims,selected,rt,score,delta,exp_time,landscape_ix
GEMS253,2018_Oct_31_1732,Kramer,AG,1.3,2,GEMS229,10,6,1,SimpleHill,0-0,1,0,0-0,5-1;1-0;7-7;6-2;2-3;5-7,Jan-00,15.21,2,1,799.7054762,1
GEMS253,2018_Oct_31_1732,Kramer,AG,1.3,2,GEMS229,10,6,1,SimpleHill,0-0,1,1,Jan-00,3-6;4-1;2-6;6-7;6-0;7-5,7-Jun,7.04,25,23,810.8335149000002,1
GEMS253,2018_Oct_31_1732,Kramer,AG,1.3,2,GEMS229,10,6,1,SimpleHill,0-0,1,2,7-Jun,0-4;9-5;12-4;8-0;3-13;14-10,14-10,1.97,43,18,816.8707699,1
GEMS253,2018_Oct_31_1732,Kramer,AG,1.3,2,GEMS229,10,6,1,SimpleHill,0-0,1,3,14-10,18-11;9-18;13-3;15-10;13-5;14-16,18-11,2.63,50,7,823.5555524,1
GEMS253,2018_Oct_31_1732,Kramer,AG,1.3,2,GEMS229,10,6,1,SimpleHill,0-0,1,4,18-11,18-9;13-4;14-18;26-10;21-16;27-8,14-18,4.27,54,4,831.8847826,1
GEMS253,2018_Oct_31_1732,Kramer,AG,1.3,2,GEMS229,10,6,1,SimpleHill,0-0,1,5,14-18,6-12;14-28;23-16;8-25;16-21;20-23,12-Jun,3.67,33,-21,839.6310041000003,1
GEMS253,2018_Oct_31_1732,Kramer,AG,1.3,2,GEMS229,10,6,1,SimpleHill,0-0,1,6,12-Jun,4-13;10-12;14-11;8-17;7-12;3-18,14-11,5.28,44,11,848.9676479,1
GEMS253,2018_Oct_31_1732,Kramer,AG,1.3,2,GEMS229,10,6,1,SimpleHill,0-0,1,7,14-11,15-14;18-15;9-15;12-9;22-12;22-14,22-12,3.94,56,12,856.9744835000001,1
GEMS253,2018_Oct_31_1732,Kramer,AG,1.3,2,GEMS229,10,6,1,SimpleHill,0-0,1,8,22-12,19-21;16-16;23-21;18-12;25-17;24-13,24-13,3.0,60,4,864.0316667999998,1
GEMS253,2018_Oct_31_1732,Kramer,AG,1.3,2,GEMS229,10,6,1,SimpleHill,0-0,1,9,24-13,22-14;28-15;22-12;23-18;20-5;17-10,28-15,3.96,66,6,872.0635557,1
GEMS253,2018_Oct_31_1732,Kramer,AG,1.3,2,GEMS229,10,6,1,SimpleHill,0-0,1,10,28-15,24-15;31-9;24-9;34-13;21-18;29-7,24-9,3.31,53,-13,879.4444345,1
GEMS253,2018_Oct_31_1732,Kramer,AG,1.3,2,GEMS229,10,6,1,SimpleHill,0-0,1,11,24-9,19-5;32-7;19-1;23-13;25-9;28-18,28-18,3.05,70,17,886.6166796,1
GEMS253,2018_Oct_31_1732,Kramer,AG,1.3,2,GEMS229,10,6,1,SimpleHill,0-0,1,12,28-18,30-20;32-16;25-20;26-26;33-16;35-11,26-26,3.49,77,7,894.1823614,1
GEMS253,2018_Oct_31_1732,Kramer,AG,1.3,2,GEMS229,10,6,1,SimpleHill,0-0,1,13,26-26,30-28;24-26;29-22;21-19;33-26;28-35,21-19,4.67,64,-13,902.9104006,1
GEMS253,2018_Oct_31_1732,Kramer,AG,1.3,2,GEMS229,10,6,1,SimpleHill,0-0,1,14,21-19,18-16;30-16;28-16;17-20;27-17;23-11,18-16,2.39,57,-7,909.3694274,1
GEMS253,2018_Oct_31_1732,Kramer,AG,1.3,2,GEMS229,10,6,1,SimpleHill,0-0,1,15,18-16,18-22;21-22;20-7;19-8;14-24;23-24,19-8,2.54,46,-11,915.9859614,1
GEMS253,2018_Oct_31_1732,Kramer,AG,1.3,2,GEMS229,10,6,1,SimpleHill,0-0,1,16,19-8,22-17;23-10;17-10;23-7;13-6;17-16,23-7,12.74,49,3,932.8065602,1
GEMS253,2018_Oct_31_1732,Kramer,AG,1.3,2,GEMS229,10,6,1,SimpleHill,0-0,1,17,23-7,21-14;32-5;20-7;26-8;20-10;27-8,32-5,1.57,54,5,938.4448755,1
GEMS253,2018_Oct_31_1732,Kramer,AG,1.3,2,GEMS229,10,6,1,SimpleHill,0-0,1,18,32-5,38-9;24-6;25-11;27-8;24-4;33-8,38-9,4.68,64,10,947.1824049,1
GEMS253,2018_Oct_31_1732,Kramer,AG,1.3,2,GEMS229,10,6,1,SimpleHill,0-0,1,19,38-9,37-14;28-9;42-15;30-12;47-10;44-10,47-10,6.72,68,4,957.9755724,1
GEMS253,2018_Oct_31_1732,Kramer,AG,1.3,2,GEMS229,10,6,1,SimpleHill,0-0,1,20,47-10,48-13;52-7;46-16;52-10;52-8;51-8,48-13,23.09,73,5,985.1540818,1
GEMS253,2018_Oct_31_1732,Kramer,AG,1.3,2,GEMS229,10,6,1,SimpleHill,0-0,1,21,48-13,40-19;53-17;48-10;43-6;41-13;55-12,55-12,2.72,71,-2,991.9273373,1
GEMS253,2018_Oct_31_1732,Kramer,AG,1.3,2,GEMS229,10,6,1,SimpleHill,0-0,1,22,55-12,49-6;63-9;46-13;56-11;58-14;55-8,46-13,7.45,73,2,1003.463553,1
GEMS253,2018_Oct_31_1732,Kramer,AG,1.3,2,GEMS229,10,6,1,SimpleHill,0-0,1,23,46-13,45-8;53-14;42-18;52-15;54-16;53-17,45-8,3.58,65,-8,1011.119609,1
GEMS253,2018_Oct_31_1732,Kramer,AG,1.3,2,GEMS229,10,6,1,SimpleHill,0-0,1,24,45-8,43-2;50-3;47-17;45-11;46-7;40-13,40-13,3.89,71,6,1019.080057,1
GEMS253,2018_Oct_31_1732,Kramer,AG,1.3,2,GEMS229,10,6,1,SimpleHill,0-0,1,25,40-13,42-8;41-17;39-19;46-8;49-14;37-14,37-14,4.35,71,0,1027.505726,1
GEMS253,2018_Oct_31_1732,Kramer,AG,1.3,2,GEMS229,10,6,1,SimpleHill,0-0,1,26,37-14,38-18;34-22;45-14;32-15;33-20;35-8,35-8,3.52,61,-10,1035.10871,1
GEMS253,2018_Oct_31_1732,Kramer,AG,1.3,2,GEMS229,10,6,1,SimpleHill,0-0,1,27,35-8,35-2;41-13;40-10;28-10;44-12;30-5,41-13,2.05,72,11,1041.234757,1
GEMS253,2018_Oct_31_1732,Kramer,AG,1.3,2,GEMS229,10,6,1,SimpleHill,0-0,1,28,41-13,35-6;47-14;48-10;40-18;38-16;41-20,40-18,7.86,78,6,1053.1795029999996,1
GEMS253,2018_Oct_31_1732,Kramer,AG,1.3,2,GEMS229,10,6,1,SimpleHill,0-0,1,29,40-18,41-11;35-18;41-18;32-14;42-10;41-13,35-18,3.96,76,-2,1061.20991,1
GEMS253,2018_Oct_31_1732,Kramer,AG,1.3,2,GEMS229,10,6,1,SimpleHill,0-0,1,30,35-18,37-12;38-24;34-27;40-11;35-21;27-15,27-15,4.36,65,-11,1069.634384,1
GEMS253,2018_Oct_31_1732,Kramer,AG,1.3,2,GEMS229,10,6,1,SimpleHill,0-0,1,31,27-15,31-9;27-8;34-14;20-22;29-13;30-20,27-8,1.59,55,-10,1075.269056,1
GEMS253,2018_Oct_31_1732,Kramer,AG,1.3,2,GEMS229,10,6,1,SimpleHill,0-0,1,32,27-8,35-13;24-0;33-6;33-4;23-17;25-14,35-13,8.53,69,14,1087.873709,1
GEMS253,2018_Oct_31_1732,Kramer,AG,1.3,2,GEMS229,10,6,1,SimpleHill,0-0,1,33,35-13,37-9;32-8;38-21;30-15;32-21;33-17,30-15,2.54,68,-1,1094.470043,1
GEMS253,2018_Oct_31_1732,Kramer,AG,1.3,2,GEMS229,10,6,1,SimpleHill,0-0,1,34,30-15,30-8;32-11;30-21;33-10;33-21;38-10,30-21,2.33,76,8,1100.862599,1
GEMS253,2018_Oct_31_1732,Kramer,AG,1.3,2,GEMS229,10,6,1,SimpleHill,0-0,1,35,30-21,31-23;35-20;33-13;22-26;34-28;27-27,34-28,3.01,86,10,1107.958151,1
GEMS253,2018_Oct_31_1732,Kramer,AG,1.3,2,GEMS229,10,6,1,SimpleHill,0-0,1,36,34-28,41-32;40-28;37-29;32-37;40-23;37-23,32-37,2.87,91,5,1114.9139369999998,1
GEMS253,2018_Oct_31_1732,Kramer,AG,1.3,2,GEMS229,10,6,1,SimpleHill,0-0,1,37,32-37,28-38;40-34;36-41;36-43;36-45;36-33,36-45,5.35,96,5,1124.345559,1
GEMS253,2018_Oct_31_1732,Kramer,AG,1.3,2,GEMS229,10,6,1,SimpleHill,0-0,1,38,36-45,42-46;37-51;30-44;33-51;32-36;44-46,33-51,2.12,95,-1,1130.543552,1
GEMS253,2018_Oct_31_1732,Kramer,AG,1.3,2,GEMS229,10,6,1,SimpleHill,0-0,1,39,33-51,34-44;26-47;30-59;40-46;32-43;29-44,26-47,3.28,89,-6,1137.903944,1
GEMS253,2018_Oct_31_1732,Kramer,AG,1.3,2,GEMS229,10,6,1,SimpleHill,0-0,1,40,26-47,33-43;35-48;32-54;27-46;24-42;21-46,24-42,2.85,86,-3,1144.833579,1
GEMS253,2018_Oct_31_1732,Kramer,AG,1.3,2,GEMS229,10,6,1,SimpleHill,0-0,1,41,24-42,32-40;21-50;27-48;31-43;24-34;27-38,24-34,1.5,82,-4,1150.413146,1
GEMS253,2018_Oct_31_1732,Kramer,AG,1.3,2,GEMS229,10,6,1,SimpleHill,0-0,1,42,24-34,29-36;27-36;31-27;20-25;19-38;17-29,31-27,1.9,83,1,1156.380598,1
GEMS253,2018_Oct_31_1732,Kramer,AG,1.3,2,GEMS229,10,6,1,SimpleHill,0-0,1,43,31-27,32-27;31-25;36-25;28-28;36-26;35-24,36-25,1.71,84,1,1162.154052,1
GEMS253,2018_Oct_31_1732,Kramer,AG,1.3,2,GEMS229,10,6,1,SimpleHill,0-0,1,44,36-25,37-30;30-30;29-23;36-29;30-33;36-34,36-29,3.22,88,4,1169.439599,1
GEMS253,2018_Oct_31_1732,Kramer,AG,1.3,2,GEMS229,10,6,1,SimpleHill,0-0,1,45,36-29,32-33;32-27;44-27;43-34;42-26;29-28,44-27,1.59,89,1,1175.100507,1
GEMS253,2018_Oct_31_1732,Kramer,AG,1.3,2,GEMS229,10,6,1,SimpleHill,0-0,1,46,44-27,40-35;41-28;43-25;48-21;45-31;39-33,41-28,10.64,89,0,1189.810448,1
GEMS253,2018_Oct_31_1732,Kramer,AG,1.3,2,GEMS229,10,6,1,SimpleHill,0-0,1,47,41-28,33-26;48-33;48-31;42-19;38-33;37-32,37-32,2.25,91,2,1196.1373609999996,1
GEMS253,2018_Oct_31_1732,Kramer,AG,1.3,2,GEMS229,10,6,1,SimpleHill,0-0,1,48,37-32,42-37;40-26;37-30;36-30;43-27;42-28,36-30,1.19,89,-2,1201.390009,1
GEMS253,2018_Oct_31_1732,Kramer,AG,1.3,2,GEMS229,10,6,1,SimpleHill,0-0,1,49,36-30,35-27;40-30;32-27;43-35;28-24;27-27,43-35,2.64,95,6,1208.085462,1
GEMS253,2018_Oct_31_1732,Kramer,AG,1.3,2,GEMS229,10,6,1,SimpleHill,0-0,1,50,43-35,36-36;45-43;42-39;48-27;39-35;50-36,50-36,4.92,97,2,1217.093605,1
GEMS253,2018_Oct_31_1732,Kramer,AG,1.3,2,GEMS229,10,6,1,SimpleHill,0-0,1,51,50-36,48-45;54-37;55-30;41-39;58-31;52-32,48-45,6.88,100,3,1228.032031,1
GEMS253,2018_Oct_31_1732,Kramer,AG,1.3,2,GEMS229,10,6,1,SimpleHill,0-0,1,52,48-45,43-42;53-49;47-45;54-45;50-46;48-51,50-46,5.61,100,0,1237.697254,1
GEMS253,2018_Oct_31_1732,Kramer,AG,1.3,2,GEMS229,10,6,1,SimpleHill,0-0,1,53,50-46,54-37;49-50;42-45;43-47;52-55;47-44,52-55,2.29,100,0,1244.067258,1
GEMS253,2018_Oct_31_1732,Kramer,AG,1.3,2,GEMS229,10,6,1,SimpleHill,0-0,1,54,52-55,43-58;59-58;52-45;48-50;51-59;51-53,51-53,4.58,100,0,1252.712818,1
GEMS253,2018_Oct_31_1732,Kramer,AG,1.3,2,GEMS229,10,6,1,SimpleHill,0-0,1,55,51-53,56-57;56-47;45-58;51-51;51-63;51-62,51-51,1.75,100,0,1258.5210550000004,1
GEMS253,2018_Oct_31_1732,Kramer,AG,1.3,2,GEMS229,10,6,1,SimpleHill,0-0,1,56,51-51,45-44;48-45;42-51;59-48;51-56;45-43,59-48,4.11,99,-1,1266.704735,1
GEMS253,2018_Oct_31_1732,Kramer,AG,1.3,2,GEMS229,10,6,1,SimpleHill,0-0,1,57,59-48,56-53;56-47;62-44;67-52;68-45;58-51,56-53,3.28,100,1,1274.053538,1
GEMS253,2018_Oct_31_1732,Kramer,AG,1.3,2,GEMS229,10,6,1,SimpleHill,0-0,1,58,56-53,55-49;64-52;58-46;48-55;52-60;54-50,52-60,3.5,98,-2,1281.610918,1
GEMS253,2018_Oct_31_1732,Kramer,AG,1.3,2,GEMS229,10,6,1,SimpleHill,0-0,1,59,52-60,46-66;59-67;60-65;55-59;52-56;52-53,55-59,2.75,98,0,1288.429187,1
GEMS253,2018_Oct_31_1732,Kramer,AG,1.3,2,GEMS229,10,6,1,SimpleHill,0-0,1,60,55-59,63-63;46-57;60-56;52-59;56-66;48-58,56-66,5.65,95,-3,1298.154767,1
GEMS253,2018_Oct_31_1732,Kramer,AG,1.3,2,GEMS229,10,6,1,SimpleHill,0-0,1,61,56-66,55-68;59-63;52-63;61-69;58-61;60-58,55-68,1.65,94,-1,1303.881723,1
GEMS253,2018_Oct_31_1732,Kramer,AG,1.3,2,GEMS229,10,6,1,SimpleHill,0-0,1,62,55-68,59-63;54-67;49-67;51-62;64-65;49-65,49-65,2.68,96,2,1310.6351550000004,1
GEMS253,2018_Oct_31_1732,Kramer,AG,1.3,2,GEMS229,10,6,1,SimpleHill,0-0,1,63,49-65,46-61;42-69;47-58;50-69;47-66;51-59,47-66,3.46,95,-1,1318.170841,1
GEMS253,2018_Oct_31_1732,Kramer,AG,1.3,2,GEMS229,10,6,1,SimpleHill,0-0,1,64,47-66,55-70;47-62;54-67;41-58;44-64;47-61,44-64,2.29,96,1,1324.525839,1
GEMS253,2018_Oct_31_1732,Kramer,AG,1.3,2,GEMS229,10,6,1,SimpleHill,0-0,1,65,44-64,43-61;42-66;52-63;41-57;43-66;42-65,42-66,4.99,94,-2,1333.592615,1
GEMS253,2018_Oct_31_1732,Kramer,AG,1.3,2,GEMS229,10,6,1,SimpleHill,0-0,1,66,42-66,34-66;40-58;35-70;41-69;41-63;37-64,35-70,1.82,88,-6,1339.478051,1
GEMS253,2018_Oct_31_1732,Kramer,AG,1.3,2,GEMS229,10,6,1,SimpleHill,0-0,1,67,35-70,32-66;42-64;41-68;34-68;40-62;39-68,39-68,5.11,92,4,1348.660775,1
GEMS253,2018_Oct_31_1732,Kramer,AG,1.3,2,GEMS229,10,6,1,SimpleHill,0-0,1,68,39-68,45-66;45-63;32-64;32-62;38-65;44-62,38-65,2.86,93,1,1355.596333,1
GEMS253,2018_Oct_31_1732,Kramer,AG,1.3,2,GEMS229,10,6,1,SimpleHill,0-0,1,69,38-65,38-55;34-62;46-68;30-59;38-61;32-61,46-68,1.99,94,1,1361.664452,1
GEMS253,2018_Oct_31_1732,Kramer,AG,1.3,2,GEMS229,10,6,1,SimpleHill,0-0,1,70,46-68,38-64;50-63;55-67;50-64;42-61;41-67,41-67,4.24,93,-1,1369.98217,1
GEMS253,2018_Oct_31_1732,Kramer,AG,1.3,2,GEMS229,10,6,1,SimpleHill,0-0,1,71,41-67,42-65;37-66;39-63;38-65;46-63;45-64,37-66,9.03,92,-1,1383.071073,1
GEMS253,2018_Oct_31_1732,Kramer,AG,1.3,2,GEMS229,10,6,1,SimpleHill,0-0,1,72,37-66,34-62;43-62;40-70;32-60;34-57;33-60,43-62,3.87,97,5,1391.025801,1
GEMS253,2018_Oct_31_1732,Kramer,AG,1.3,2,GEMS229,10,6,1,SimpleHill,0-0,1,73,43-62,48-64;40-69;39-63;41-56;39-56;36-63,39-56,1.96,97,0,1397.055325,1
GEMS253,2018_Oct_31_1732,Kramer,AG,1.3,2,GEMS229,10,6,1,SimpleHill,0-0,1,74,39-56,31-55;40-49;41-49;41-59;48-52;43-51,41-49,1.83,99,2,1402.9906050000004,1
GEMS253,2018_Oct_31_1732,Kramer,AG,1.3,2,GEMS229,10,6,1,SimpleHill,0-0,1,75,41-49,49-46;35-46;39-47;49-55;50-51;41-50,39-47,3.11,98,-1,1410.176469,1
GEMS253,2018_Oct_31_1732,Kramer,AG,1.3,2,GEMS229,10,6,1,SimpleHill,0-0,1,76,39-47,41-44;39-44;45-39;39-56;35-53;39-40,45-39,1.28,98,0,1415.53988,1
GEMS253,2018_Oct_31_1732,Kramer,AG,1.3,2,GEMS229,10,6,1,SimpleHill,0-0,1,77,45-39,47-41;52-46;53-44;42-45;40-35;52-38,40-35,3.65,94,-4,1423.251317,1
GEMS253,2018_Oct_31_1732,Kramer,AG,1.3,2,GEMS229,10,6,1,SimpleHill,0-0,1,78,40-35,34-31;42-26;44-30;36-42;34-43;44-37,44-30,1.9,92,-2,1429.227752,1
GEMS253,2018_Oct_31_1732,Kramer,AG,1.3,2,GEMS229,10,6,1,SimpleHill,0-0,1,79,44-30,45-37;40-25;50-24;50-37;46-33;45-27,45-37,4.78,97,5,1438.081413,1
GEMS253,2018_Oct_31_1732,Kramer,AG,1.3,2,GEMS229,10,6,2,SimpleHill,0-0,1,0,0-0,1-8;4-3;7-4;0-10;3-3;7-6,4-Jul,8.05,21,20,1556.925484,1
GEMS253,2018_Oct_31_1732,Kramer,AG,1.3,2,GEMS229,10,6,2,SimpleHill,0-0,1,1,4-Jul,6-10;8-3;13-5;5-11;8-7;7-7,7-Aug,6.7,28,7,1567.71236,1
GEMS253,2018_Oct_31_1732,Kramer,AG,1.3,2,GEMS229,10,6,2,SimpleHill,0-0,1,2,7-Aug,10-8;4-13;16-12;15-14;1-4;0-5,0-5,2.75,10,-18,1574.524168,1
GEMS253,2018_Oct_31_1732,Kramer,AG,1.3,2,GEMS229,10,6,2,SimpleHill,0-0,1,3,0-5,3-0;9-3;6-2;2-4;6-4;3-7,4-Jun,7.81,19,9,1586.411395,1
GEMS253,2018_Oct_31_1732,Kramer,AG,1.3,2,GEMS229,10,6,2,SimpleHill,0-0,1,4,4-Jun,7-5;13-3;5-9;4-1;8-13;13-9,13-3,6.03,29,10,1596.522561,1
GEMS253,2018_Oct_31_1732,Kramer,AG,1.3,2,GEMS229,10,6,2,SimpleHill,0-0,1,5,13-3,6-2;23-3;11-7;12-6;14-0;5-4,4-May,4.1,18,-11,1604.695837,1
GEMS253,2018_Oct_31_1732,Kramer,AG,1.3,2,GEMS229,10,6,2,SimpleHill,0-0,1,6,4-May,4-1;0-2;1-5;11-0;1-10;11-5,1-Apr,5.11,10,-8,1613.866934,1
GEMS253,2018_Oct_31_1732,Kramer,AG,1.3,2,GEMS229,10,6,2,SimpleHill,0-0,1,7,1-Apr,3-7;7-7;7-2;9-8;1-0;4-1,2-Jul,5.85,17,7,1623.796852,1
GEMS253,2018_Oct_31_1732,Kramer,AG,1.3,2,GEMS229,10,6,2,SimpleHill,0-0,1,8,2-Jul,3-4;11-2;1-2;1-1;10-6;1-0,6-Oct,3.19,30,13,1631.064935,1
GEMS253,2018_Oct_31_1732,Kramer,AG,1.3,2,GEMS229,10,6,2,SimpleHill,0-0,1,9,6-Oct,5-14;5-11;16-7;7-0;3-8;5-13,16-7,4.58,40,10,1639.71716,1
GEMS253,2018_Oct_31_1732,Kramer,AG,1.3,2,GEMS229,10,6,2,SimpleHill,0-0,1,10,16-7,12-16;19-3;21-10;9-7;13-12;13-10,7-Sep,4.79,30,-10,1648.582325,1
GEMS253,2018_Oct_31_1732,Kramer,AG,1.3,2,GEMS229,10,6,2,SimpleHill,0-0,1,11,7-Sep,3-4;11-16;16-5;9-5;13-2;3-14,14-Mar,6.08,30,0,1658.7231470000004,1
GEMS253,2018_Oct_31_1732,Kramer,AG,1.3,2,GEMS229,10,6,2,SimpleHill,0-0,1,12,14-Mar,1-6;10-21;7-6;7-14;5-11;4-12,6-Jul,2.71,25,-5,1665.4980369999996,1
GEMS253,2018_Oct_31_1732,Kramer,AG,1.3,2,GEMS229,10,6,2,SimpleHill,0-0,1,13,6-Jul,1-14;15-12;2-4;12-5;13-10;7-5,15-12,4.6,47,22,1674.171749,1
GEMS253,2018_Oct_31_1732,Kramer,AG,1.3,2,GEMS229,10,6,2,SimpleHill,0-0,1,14,15-12,10-12;11-18;18-16;20-5;9-6;11-11,18-16,3.98,57,10,1682.221141,1
GEMS253,2018_Oct_31_1732,Kramer,AG,1.3,2,GEMS229,10,6,2,SimpleHill,0-0,1,15,18-16,24-22;17-19;20-11;16-20;10-10;17-11,17-11,4.4,48,-9,1690.697353,1
GEMS253,2018_Oct_31_1732,Kramer,AG,1.3,2,GEMS229,10,6,2,SimpleHill,0-0,1,16,17-11,19-7;22-3;14-15;16-20;11-11;14-9,14-9,5.31,41,-7,1700.073157,1
GEMS253,2018_Oct_31_1732,Kramer,AG,1.3,2,GEMS229,10,6,2,SimpleHill,0-0,1,17,14-9,12-13;7-13;10-17;16-5;18-18;18-17,17-Oct,1.86,47,6,1706.000966,1
GEMS253,2018_Oct_31_1732,Kramer,AG,1.3,2,GEMS229,10,6,2,SimpleHill,0-0,1,18,17-Oct,3-24;6-26;11-21;11-24;14-26;6-15,21-Nov,2.2,53,6,1712.2906100000002,1
GEMS253,2018_Oct_31_1732,Kramer,AG,1.3,2,GEMS229,10,6,2,SimpleHill,0-0,1,19,21-Nov,8-26;13-12;13-26;6-19;18-18;10-16,18-18,1.34,60,7,1717.683983,1
GEMS253,2018_Oct_31_1732,Kramer,AG,1.3,2,GEMS229,10,6,2,SimpleHill,0-0,1,20,18-18,11-13;11-19;17-19;20-26;18-13;14-12,17-19,1.92,60,0,1723.678296,1
GEMS253,2018_Oct_31_1732,Kramer,AG,1.3,2,GEMS229,10,6,2,SimpleHill,0-0,1,21,17-19,17-14;20-25;18-17;25-22;12-11;11-11,20-25,2.66,70,10,1730.398701,1
GEMS253,2018_Oct_31_1732,Kramer,AG,1.3,2,GEMS229,10,6,2,SimpleHill,0-0,1,22,20-25,21-18;12-30;14-25;17-19;29-27;27-19,29-27,3.7,81,11,1738.177412,1
GEMS253,2018_Oct_31_1732,Kramer,AG,1.3,2,GEMS229,10,6,2,SimpleHill,0-0,1,23,29-27,28-35;29-24;21-22;26-25;27-27;29-26,27-27,4.24,79,-2,1746.500452,1
GEMS253,2018_Oct_31_1732,Kramer,AG,1.3,2,GEMS229,10,6,2,SimpleHill,0-0,1,24,27-27,19-33;21-28;22-31;31-24;25-25;28-30,19-33,6.4,76,-3,1756.972798,1
GEMS253,2018_Oct_31_1732,Kramer,AG,1.3,2,GEMS229,10,6,2,SimpleHill,0-0,1,25,19-33,21-24;16-37;23-33;26-38;16-28;16-32,16-28,1.63,68,-8,1762.678501,1
GEMS253,2018_Oct_31_1732,Kramer,AG,1.3,2,GEMS229,10,6,2,SimpleHill,0-0,1,26,16-28,12-33;16-22;19-31;18-23;26-28;10-34,18-23,2.85,65,-3,1769.604152,1
GEMS253,2018_Oct_31_1732,Kramer,AG,1.3,2,GEMS229,10,6,2,SimpleHill,0-0,1,27,18-23,15-28;18-20;11-22;25-25;12-15;19-18,19-18,2.29,61,-4,1775.965987,1
GEMS253,2018_Oct_31_1732,Kramer,AG,1.3,2,GEMS229,10,6,2,SimpleHill,0-0,1,28,19-18,22-23;24-13;21-26;22-22;25-16;20-12,25-16,1.32,65,4,1781.3524670000004,1
GEMS253,2018_Oct_31_1732,Kramer,AG,1.3,2,GEMS229,10,6,2,SimpleHill,0-0,1,29,25-16,22-7;26-14;34-15;17-13;32-15;25-9,34-15,2.01,71,6,1787.433638,1
GEMS253,2018_Oct_31_1732,Kramer,AG,1.3,2,GEMS229,10,6,2,SimpleHill,0-0,1,30,34-15,35-23;31-6;28-15;36-16;28-9;29-12,28-15,3.57,66,-5,1795.077855,1
GEMS253,2018_Oct_31_1732,Kramer,AG,1.3,2,GEMS229,10,6,2,SimpleHill,0-0,1,31,28-15,30-15;37-13;36-21;33-22;26-14;30-17,33-22,3.19,79,13,1802.351578,1
GEMS253,2018_Oct_31_1732,Kramer,AG,1.3,2,GEMS229,10,6,2,SimpleHill,0-0,1,32,33-22,31-27;36-19;33-25;35-19;36-13;35-25,33-25,5.83,82,3,1812.261139,1
GEMS253,2018_Oct_31_1732,Kramer,AG,1.3,2,GEMS229,10,6,2,SimpleHill,0-0,1,33,33-25,34-31;36-32;30-24;33-29;38-26;33-30,36-32,4.15,90,8,1820.47595,1
GEMS253,2018_Oct_31_1732,Kramer,AG,1.3,2,GEMS229,10,6,2,SimpleHill,0-0,1,34,36-32,32-34;31-37;27-30;38-36;38-28;33-31,38-36,1.66,94,4,1826.219632,1
GEMS253,2018_Oct_31_1732,Kramer,AG,1.3,2,GEMS229,10,6,2,SimpleHill,0-0,1,35,38-36,32-44;36-45;44-41;35-31;39-41;37-34,36-45,4.69,96,2,1834.987618,1
GEMS253,2018_Oct_31_1732,Kramer,AG,1.3,2,GEMS229,10,6,2,SimpleHill,0-0,1,36,36-45,37-49;42-45;35-38;43-45;37-48;38-44,42-45,4.06,99,3,1843.120546,1
GEMS253,2018_Oct_31_1732,Kramer,AG,1.3,2,GEMS229,10,6,2,SimpleHill,0-0,1,37,42-45,48-50;37-43;34-50;48-40;46-38;45-44,37-43,4.04,96,-3,1851.20918,1
GEMS253,2018_Oct_31_1732,Kramer,AG,1.3,2,GEMS229,10,6,2,SimpleHill,0-0,1,38,37-43,36-43;36-37;31-43;40-45;31-51;44-38,40-45,3.89,98,2,1859.183385,1
GEMS253,2018_Oct_31_1732,Kramer,AG,1.3,2,GEMS229,10,6,2,SimpleHill,0-0,1,39,40-45,32-44;36-48;38-49;40-40;41-39;41-52,32-44,4.14,93,-5,1867.38955,1
GEMS253,2018_Oct_31_1732,Kramer,AG,1.3,2,GEMS229,10,6,2,SimpleHill,0-0,1,40,32-44,32-54;31-39;32-42;34-35;27-46;35-52,27-46,5.54,90,-3,1877.007083,1
GEMS253,2018_Oct_31_1732,Kramer,AG,1.3,2,GEMS229,10,6,2,SimpleHill,0-0,1,41,27-46,33-46;21-51;24-41;31-40;35-51;33-40,35-51,3.24,96,6,1884.323083,1
GEMS253,2018_Oct_31_1732,Kramer,AG,1.3,2,GEMS229,10,6,2,SimpleHill,0-0,1,42,35-51,41-51;40-47;32-59;34-46;38-51;38-58,38-58,4.22,96,0,1892.584462,1
GEMS253,2018_Oct_31_1732,Kramer,AG,1.3,2,GEMS229,10,6,2,SimpleHill,0-0,1,43,38-58,38-51;43-61;46-58;47-57;30-59;29-62,38-51,4.12,98,2,1900.788305,1
GEMS253,2018_Oct_31_1732,Kramer,AG,1.3,2,GEMS229,10,6,2,SimpleHill,0-0,1,44,38-51,44-57;40-45;32-56;33-53;42-48;40-42,40-45,2.82,98,0,1907.694428,1
GEMS253,2018_Oct_31_1732,Kramer,AG,1.3,2,GEMS229,10,6,2,SimpleHill,0-0,1,45,40-45,38-54;34-53;44-36;38-49;47-47;41-43,34-53,2.58,95,-3,1914.34102,1
GEMS253,2018_Oct_31_1732,Kramer,AG,1.3,2,GEMS229,10,6,2,SimpleHill,0-0,1,46,34-53,26-56;30-44;25-57;29-50;30-53;27-53,27-53,3.35,90,-5,1921.766259,1
GEMS253,2018_Oct_31_1732,Kramer,AG,1.3,2,GEMS229,10,6,2,SimpleHill,0-0,1,47,27-53,23-55;31-47;25-51;22-55;32-51;21-51,25-51,10.73,88,-2,1936.569425,1
GEMS253,2018_Oct_31_1732,Kramer,AG,1.3,2,GEMS229,10,6,2,SimpleHill,0-0,1,48,25-51,30-57;33-52;29-58;33-51;27-48;18-51,18-51,7.56,80,-8,1948.203659,1
GEMS253,2018_Oct_31_1732,Kramer,AG,1.3,2,GEMS229,10,6,2,SimpleHill,0-0,1,49,18-51,19-43;24-49;23-49;25-46;23-54;16-57,25-46,1.19,88,8,1953.453369,1
GEMS253,2018_Oct_31_1732,Kramer,AG,1.3,2,GEMS229,10,6,2,SimpleHill,0-0,1,50,25-46,19-47;24-50;26-46;29-40;19-48;31-48,26-46,2.16,89,1,1959.682759,1
GEMS253,2018_Oct_31_1732,Kramer,AG,1.3,2,GEMS229,10,6,2,SimpleHill,0-0,1,51,26-46,17-50;20-38;17-44;25-37;30-37;17-48,17-44,3.29,78,-11,1967.049121,1
GEMS253,2018_Oct_31_1732,Kramer,AG,1.3,2,GEMS229,10,6,2,SimpleHill,0-0,1,52,17-44,21-44;21-47;24-47;18-43;26-47;10-43,26-47,4.78,89,11,1975.911173,1
GEMS253,2018_Oct_31_1732,Kramer,AG,1.3,2,GEMS229,10,6,2,SimpleHill,0-0,1,53,26-47,18-45;23-54;21-51;23-47;20-52;26-45,26-45,8.45,88,-1,1988.434239,1
GEMS253,2018_Oct_31_1732,Kramer,AG,1.3,2,GEMS229,10,6,2,SimpleHill,0-0,1,54,26-45,29-47;22-39;27-53;28-51;20-40;35-49,29-47,2.49,92,4,1994.9924260000007,1
GEMS253,2018_Oct_31_1732,Kramer,AG,1.3,2,GEMS229,10,6,2,SimpleHill,0-0,1,55,29-47,32-45;28-51;30-50;30-52;36-48;23-53,30-52,2.34,92,0,2001.410101,1
GEMS253,2018_Oct_31_1732,Kramer,AG,1.3,2,GEMS229,10,6,2,SimpleHill,0-0,1,56,30-52,35-48;27-50;33-47;34-46;22-48;23-58,33-47,4.72,95,3,2010.212163,1
GEMS253,2018_Oct_31_1732,Kramer,AG,1.3,2,GEMS229,10,6,2,SimpleHill,0-0,1,57,33-47,29-55;31-53;40-51;35-45;26-40;39-50,31-53,3.49,93,-2,2017.770683,1
GEMS253,2018_Oct_31_1732,Kramer,AG,1.3,2,GEMS229,10,6,2,SimpleHill,0-0,1,58,31-53,38-56;27-53;30-44;23-54;23-52;25-58,30-44,2.13,92,-1,2023.976953,1
GEMS253,2018_Oct_31_1732,Kramer,AG,1.3,2,GEMS229,10,6,2,SimpleHill,0-0,1,59,30-44,34-49;36-49;26-35;38-47;28-39;24-49,28-39,4.33,88,-4,2032.38875,1
GEMS253,2018_Oct_31_1732,Kramer,AG,1.3,2,GEMS229,10,6,2,SimpleHill,0-0,1,60,28-39,24-37;19-39;35-44;31-36;24-32;31-41,31-36,2.99,89,1,2039.419204,1
GEMS253,2018_Oct_31_1732,Kramer,AG,1.3,2,GEMS229,10,6,2,SimpleHill,0-0,1,61,31-36,22-34;40-33;24-38;26-42;38-39;29-44,22-34,1.8,80,-9,2045.301515,1
GEMS253,2018_Oct_31_1732,Kramer,AG,1.3,2,GEMS229,10,6,2,SimpleHill,0-0,1,62,22-34,27-29;14-32;29-27;16-33;25-34;26-33,26-33,2.69,83,3,2052.051278,1
GEMS253,2018_Oct_31_1732,Kramer,AG,1.3,2,GEMS229,10,6,2,SimpleHill,0-0,1,63,26-33,28-24;25-32;20-35;23-27;19-35;32-39,23-27,2.7,75,-8,2058.817019,1
GEMS253,2018_Oct_31_1732,Kramer,AG,1.3,2,GEMS229,10,6,2,SimpleHill,0-0,1,64,23-27,18-34;21-25;20-24;18-20;19-22;22-25,22-25,1.91,72,-3,2064.804497,1
GEMS253,2018_Oct_31_1732,Kramer,AG,1.3,2,GEMS229,10,6,2,SimpleHill,0-0,1,65,22-25,21-16;29-21;16-27;14-29;28-31;15-23,16-27,11.09,67,-5,2079.969091,1
GEMS253,2018_Oct_31_1732,Kramer,AG,1.3,2,GEMS229,10,6,2,SimpleHill,0-0,1,66,16-27,8-21;11-27;9-30;18-19;12-26;18-35,21-Aug,2.29,48,-19,2086.335234,1
GEMS253,2018_Oct_31_1732,Kramer,AG,1.3,2,GEMS229,10,6,2,SimpleHill,0-0,1,67,21-Aug,13-25;3-24;17-24;12-22;1-15;0-25,15-Jan,2.65,28,-20,2093.044265,1
GEMS253,2018_Oct_31_1732,Kramer,AG,1.3,2,GEMS229,10,6,2,SimpleHill,0-0,1,68,15-Jan,7-11;1-10;8-20;8-10;1-14;4-16,20-Aug,3.4,47,19,2100.516435,1
GEMS253,2018_Oct_31_1732,Kramer,AG,1.3,2,GEMS229,10,6,2,SimpleHill,0-0,1,69,20-Aug,14-25;10-17;11-14;10-19;2-12;17-23,14-25,3.31,62,15,2107.90227,1
GEMS253,2018_Oct_31_1732,Kramer,AG,1.3,2,GEMS229,10,6,2,SimpleHill,0-0,1,70,14-25,10-32;18-26;11-34;18-31;13-34;15-32,18-26,1.46,69,7,2113.440811,1
GEMS253,2018_Oct_31_1732,Kramer,AG,1.3,2,GEMS229,10,6,2,SimpleHill,0-0,1,71,18-26,14-29;14-26;11-22;13-21;25-33;12-19,22-Nov,5.88,54,-15,2123.394304,1
GEMS253,2018_Oct_31_1732,Kramer,AG,1.3,2,GEMS229,10,6,2,SimpleHill,0-0,1,72,22-Nov,5-29;2-19;7-29;8-21;2-18;13-13,29-Jul,1.29,55,1,2128.751053,1
GEMS253,2018_Oct_31_1732,Kramer,AG,1.3,2,GEMS229,10,6,2,SimpleHill,0-0,1,73,29-Jul,16-26;7-39;5-27;12-33;8-35;4-24,16-26,2.26,66,11,2135.100953,1
GEMS253,2018_Oct_31_1732,Kramer,AG,1.3,2,GEMS229,10,6,2,SimpleHill,0-0,1,74,16-26,8-32;20-30;21-29;18-18;13-17;12-17,13-17,2.11,51,-15,2141.277681,1
GEMS253,2018_Oct_31_1732,Kramer,AG,1.3,2,GEMS229,10,6,2,SimpleHill,0-0,1,75,13-17,22-13;14-15;15-18;6-23;11-20;7-15,22-13,2.73,57,6,2148.0878390000007,1
GEMS253,2018_Oct_31_1732,Kramer,AG,1.3,2,GEMS229,10,6,2,SimpleHill,0-0,1,76,22-13,26-15;21-4;15-17;22-12;20-4;30-12,26-15,2.87,64,7,2155.1635300000007,1
GEMS253,2018_Oct_31_1732,Kramer,AG,1.3,2,GEMS229,10,6,2,SimpleHill,0-0,1,77,26-15,31-18;29-6;32-8;20-17;33-15;21-15,20-17,1.79,61,-3,2161.015525,1
GEMS253,2018_Oct_31_1732,Kramer,AG,1.3,2,GEMS229,10,6,2,SimpleHill,0-0,1,78,20-17,23-20;13-23;27-11;13-17;16-8;14-9,23-20,4.56,68,7,2169.635893,1
GEMS253,2018_Oct_31_1732,Kramer,AG,1.3,2,GEMS229,10,6,2,SimpleHill,0-0,1,79,23-20,22-15;24-24;23-13;31-14;19-24;17-23,24-24,1.52,73,5,2175.22235,1
