subj_id,date,computer,experimenter,instructions,sight_radius,n_gabors,start_pos_list_ix,start_pos_list,landscape_ix,landscape_name,starting_pos,starting_score,trial,feedback,pos,stims,selected,rt,score,delta,exp_time
GEMS234,2018_Apr_23_1531,George,EG,orientation,8,6,17,3-50;4-39;34-49;9-48,0,OrientationBias,0-0,0,0,training,0-0,0-1;4-3;0-0;1-5;3-2;7-3,0-1,5.46,0,0,234.598436667
GEMS234,2018_Apr_23_1531,George,EG,orientation,8,6,17,3-50;4-39;34-49;9-48,0,OrientationBias,0-0,0,1,training,0-1,5-7;0-0;1-0;4-3;6-4;5-2,1-0,8.4,3,3,257.554555159
GEMS234,2018_Apr_23_1531,George,EG,orientation,8,6,17,3-50;4-39;34-49;9-48,0,OrientationBias,0-0,0,2,training,1-0,8-3;4-1;7-3;6-2;4-5;8-1,6-2,4.63,22,19,266.819146665
GEMS234,2018_Apr_23_1531,George,EG,orientation,8,6,17,3-50;4-39;34-49;9-48,0,OrientationBias,0-0,0,3,training,6-2,12-2;4-9;3-2;0-1;3-8;9-4,12-2,4.19,42,20,274.848118895
GEMS234,2018_Apr_23_1531,George,EG,orientation,8,6,17,3-50;4-39;34-49;9-48,0,OrientationBias,0-0,0,4,training,12-2,4-2;11-2;11-0;9-4;17-5;9-3,11-0,7.02,39,-3,286.109024534
GEMS234,2018_Apr_23_1531,George,EG,orientation,8,6,17,3-50;4-39;34-49;9-48,0,OrientationBias,0-0,0,5,training,11-0,13-1;8-1;15-2;18-3;9-4;19-0,19-0,3.72,61,22,292.843864223
GEMS234,2018_Apr_23_1531,George,EG,orientation,8,6,17,3-50;4-39;34-49;9-48,0,OrientationBias,0-0,0,6,training,19-0,13-1;17-6;16-7;14-6;24-6;13-0,24-6,2.54,72,11,298.67917781
GEMS234,2018_Apr_23_1531,George,EG,orientation,8,6,17,3-50;4-39;34-49;9-48,0,OrientationBias,0-0,0,7,training,24-6,23-9;23-5;28-6;19-1;24-1;31-6,23-5,8.56,70,-2,309.614794364
GEMS234,2018_Apr_23_1531,George,EG,orientation,8,6,17,3-50;4-39;34-49;9-48,0,OrientationBias,0-0,0,8,training,23-5,21-11;18-1;19-8;24-8;23-5;18-10,23-5,4.75,70,0,318.506725948
GEMS234,2018_Apr_23_1531,George,EG,orientation,8,6,17,3-50;4-39;34-49;9-48,0,OrientationBias,0-0,0,9,training,23-5,18-8;28-3;19-9;18-4;21-4;22-10,28-3,3.07,80,10,326.907278428
GEMS234,2018_Apr_23_1531,George,EG,orientation,8,6,17,3-50;4-39;34-49;9-48,0,OrientationBias,0-0,0,10,training,28-3,28-1;28-0;32-1;23-2;28-2;25-5,28-2,4.25,80,0,333.468955329
GEMS234,2018_Apr_23_1531,George,EG,orientation,8,6,17,3-50;4-39;34-49;9-48,0,OrientationBias,0-0,0,11,training,28-2,30-0;28-0;31-7;29-6;27-5;26-1,27-5,3.96,78,-2,340.737659706
GEMS234,2018_Apr_23_1531,George,EG,orientation,8,6,17,3-50;4-39;34-49;9-48,0,OrientationBias,0-0,0,12,training,27-5,33-6;23-0;25-3;25-0;22-1;27-12,33-6,3.19,88,10,347.184193502
GEMS234,2018_Apr_23_1531,George,EG,orientation,8,6,17,3-50;4-39;34-49;9-48,0,OrientationBias,0-0,0,13,training,33-6,27-3;28-11;38-11;36-5;34-1;30-2,36-5,5.08,92,4,354.671695963
GEMS234,2018_Apr_23_1531,George,EG,orientation,8,6,17,3-50;4-39;34-49;9-48,0,OrientationBias,0-0,0,14,training,36-5,37-4;41-6;38-11;31-5;39-6;31-8,31-5,5.39,85,-7,363.600901701
GEMS234,2018_Apr_23_1531,George,EG,orientation,8,6,17,3-50;4-39;34-49;9-48,0,OrientationBias,0-0,0,15,training,31-5,28-0;38-5;37-6;28-2;28-4;32-7,28-4,3.92,80,-5,371.805154773
GEMS234,2018_Apr_23_1531,George,EG,orientation,8,6,17,3-50;4-39;34-49;9-48,0,OrientationBias,0-0,0,16,training,28-4,33-7;27-3;32-8;30-2;23-9;34-7,27-3,1.09,78,-2,376.047845536
GEMS234,2018_Apr_23_1531,George,EG,orientation,8,6,17,3-50;4-39;34-49;9-48,0,OrientationBias,0-0,0,17,training,27-3,27-9;27-7;26-2;28-1;30-5;30-0,28-1,3.78,80,2,383.758497101
GEMS234,2018_Apr_23_1531,George,EG,orientation,8,6,17,3-50;4-39;34-49;9-48,0,OrientationBias,0-0,0,18,training,28-1,31-1;31-5;26-8;21-1;21-3;33-3,33-3,3.93,88,8,393.241855641
GEMS234,2018_Apr_23_1531,George,EG,orientation,8,6,17,3-50;4-39;34-49;9-48,0,OrientationBias,0-0,0,19,training,33-3,33-1;28-1;32-7;36-10;32-2;38-2,33-1,5.27,88,0,401.156610474
GEMS234,2018_Apr_23_1531,George,EG,orientation,8,6,17,3-50;4-39;34-49;9-48,0,OrientationBias,0-0,0,20,training,33-1,28-2;36-3;33-3;33-5;29-5;28-0,33-5,3.32,88,0,407.287544393
GEMS234,2018_Apr_23_1531,George,EG,orientation,8,6,17,3-50;4-39;34-49;9-48,0,OrientationBias,0-0,0,21,training,33-5,28-0;40-5;29-0;28-8;35-6;31-0,40-5,2.09,96,8,412.479984123
GEMS234,2018_Apr_23_1531,George,EG,orientation,8,6,17,3-50;4-39;34-49;9-48,0,OrientationBias,0-0,0,22,training,40-5,37-10;33-8;34-3;46-7;38-0;44-9,34-3,1.95,89,-7,416.873497445
GEMS234,2018_Apr_23_1531,George,EG,orientation,8,6,17,3-50;4-39;34-49;9-48,0,OrientationBias,0-0,0,23,training,34-3,32-9;31-8;32-6;31-6;30-0;39-4,32-6,3.85,87,-2,424.281984063
GEMS234,2018_Apr_23_1531,George,EG,orientation,8,6,17,3-50;4-39;34-49;9-48,0,OrientationBias,0-0,0,24,training,32-6,27-9;33-7;35-0;37-8;33-10;28-10,35-0,5.7,91,4,432.842661315
GEMS234,2018_Apr_23_1531,George,EG,orientation,8,6,17,3-50;4-39;34-49;9-48,0,OrientationBias,0-0,0,25,training,35-0,27-0;36-4;35-1;33-0;41-0;31-3,36-4,2.81,92,1,438.787904657
GEMS234,2018_Apr_23_1531,George,EG,orientation,8,6,17,3-50;4-39;34-49;9-48,0,OrientationBias,0-0,0,26,training,36-4,31-2;42-0;39-4;37-7;40-3;31-8,40-3,3.82,96,4,445.389666127
GEMS234,2018_Apr_23_1531,George,EG,orientation,8,6,17,3-50;4-39;34-49;9-48,0,OrientationBias,0-0,0,27,training,40-3,45-2;47-1;39-4;43-0;42-3;47-0,42-3,1.58,97,1,450.418696615
GEMS234,2018_Apr_23_1531,George,EG,orientation,8,6,17,3-50;4-39;34-49;9-48,0,OrientationBias,0-0,0,28,training,42-3,39-4;35-4;45-4;43-9;40-4;43-0,45-4,2.68,99,2,457.325866211
GEMS234,2018_Apr_23_1531,George,EG,orientation,8,6,17,3-50;4-39;34-49;9-48,0,OrientationBias,0-0,0,29,training,45-4,38-3;50-7;51-0;51-2;44-8;46-0,51-2,2.26,99,0,462.725341579
GEMS234,2018_Apr_23_1531,George,EG,orientation,8,6,17,3-50;4-39;34-49;9-48,1,SimpleHill,3-50,55,0,selected,3-50,4-45;3-42;1-46;2-51;4-46;8-49,4-45,4.92,57,2,494.846076704
GEMS234,2018_Apr_23_1531,George,EG,orientation,8,6,17,3-50;4-39;34-49;9-48,1,SimpleHill,3-50,55,1,selected,4-45,9-46;5-42;6-46;7-44;6-45;8-45,8-45,3.81,64,7,502.2344599
GEMS234,2018_Apr_23_1531,George,EG,orientation,8,6,17,3-50;4-39;34-49;9-48,1,SimpleHill,3-50,55,2,selected,8-45,8-49;14-48;8-39;9-39;9-50;1-45,1-45,6.45,51,-13,512.255709894
GEMS234,2018_Apr_23_1531,George,EG,orientation,8,6,17,3-50;4-39;34-49;9-48,1,SimpleHill,3-50,55,3,selected,1-45,5-45;5-42;0-45;6-41;8-46;3-43,0-45,1.64,49,-2,517.463756704
GEMS234,2018_Apr_23_1531,George,EG,orientation,8,6,17,3-50;4-39;34-49;9-48,1,SimpleHill,3-50,55,4,selected,0-45,1-50;5-46;3-44;8-45;1-45;2-48,8-45,1.16,64,15,522.18532375
GEMS234,2018_Apr_23_1531,George,EG,orientation,8,6,17,3-50;4-39;34-49;9-48,1,SimpleHill,3-50,55,5,selected,8-45,8-37;7-39;10-39;14-48;10-41;7-45,14-48,4.95,74,10,530.693763794
GEMS234,2018_Apr_23_1531,George,EG,orientation,8,6,17,3-50;4-39;34-49;9-48,1,SimpleHill,3-50,55,6,selected,14-48,7-47;19-45;15-52;8-48;8-51;12-52,7-47,3.52,62,-12,537.768589624
GEMS234,2018_Apr_23_1531,George,EG,orientation,8,6,17,3-50;4-39;34-49;9-48,1,SimpleHill,3-50,55,7,selected,7-47,14-46;12-42;4-45;8-46;3-49;1-43,14-46,2.24,73,11,543.578949104
GEMS234,2018_Apr_23_1531,George,EG,orientation,8,6,17,3-50;4-39;34-49;9-48,1,SimpleHill,3-50,55,8,selected,14-46,13-53;19-51;11-49;15-41;11-45;14-49,15-41,6.65,73,0,553.798993949
GEMS234,2018_Apr_23_1531,George,EG,orientation,8,6,17,3-50;4-39;34-49;9-48,1,SimpleHill,3-50,55,9,selected,15-41,15-49;20-41;21-45;15-40;11-39;17-43,21-45,2.74,82,9,560.112873008
GEMS234,2018_Apr_23_1531,George,EG,orientation,8,6,17,3-50;4-39;34-49;9-48,1,SimpleHill,3-50,55,10,selected,21-45,14-48;24-42;13-45;20-51;27-45;28-45,20-51,3.13,81,-1,566.785524128
GEMS234,2018_Apr_23_1531,George,EG,orientation,8,6,17,3-50;4-39;34-49;9-48,1,SimpleHill,3-50,55,11,selected,20-51,26-54;15-51;18-58;20-57;24-47;20-50,24-47,2.27,86,5,572.597316983
GEMS234,2018_Apr_23_1531,George,EG,orientation,8,6,17,3-50;4-39;34-49;9-48,1,SimpleHill,3-50,55,12,selected,24-47,28-51;27-52;19-43;29-49;29-43;22-52,27-52,3.43,89,3,579.590829664
GEMS234,2018_Apr_23_1531,George,EG,orientation,8,6,17,3-50;4-39;34-49;9-48,1,SimpleHill,3-50,55,13,selected,27-52,24-57;20-49;33-57;25-53;32-51;22-50,24-57,1.12,85,-4,584.281358281
GEMS234,2018_Apr_23_1531,George,EG,orientation,8,6,17,3-50;4-39;34-49;9-48,1,SimpleHill,3-50,55,14,selected,24-57,25-62;29-60;22-55;25-63;28-54;20-58,25-63,2.85,84,-1,590.704947833
GEMS234,2018_Apr_23_1531,George,EG,orientation,8,6,17,3-50;4-39;34-49;9-48,1,SimpleHill,3-50,55,15,selected,25-63,27-65;21-66;19-68;25-58;26-57;21-65,27-65,3.54,84,0,597.812442643
GEMS234,2018_Apr_23_1531,George,EG,orientation,8,6,17,3-50;4-39;34-49;9-48,1,SimpleHill,3-50,55,16,selected,27-65,20-67;33-67;24-60;30-69;20-65;27-59,33-67,3.14,88,4,604.512164643
GEMS234,2018_Apr_23_1531,George,EG,orientation,8,6,17,3-50;4-39;34-49;9-48,1,SimpleHill,3-50,55,17,selected,33-67,38-63;39-66;37-62;28-61;30-69;32-61,32-61,3.25,91,3,611.351527402
GEMS234,2018_Apr_23_1531,George,EG,orientation,8,6,17,3-50;4-39;34-49;9-48,1,SimpleHill,3-50,55,18,selected,32-61,34-60;33-54;26-56;36-55;34-57;25-59,33-54,1.19,93,2,616.107316199
GEMS234,2018_Apr_23_1531,George,EG,orientation,8,6,17,3-50;4-39;34-49;9-48,1,SimpleHill,3-50,55,19,selected,33-54,28-54;37-55;29-51;34-58;32-56;37-57,28-54,2.15,90,-3,621.81591693
GEMS234,2018_Apr_23_1531,George,EG,orientation,8,6,17,3-50;4-39;34-49;9-48,1,SimpleHill,3-50,55,20,selected,28-54,29-50;27-53;28-47;22-49;24-54;24-53,28-47,0.93,90,0,626.323621721
GEMS234,2018_Apr_23_1531,George,EG,orientation,8,6,17,3-50;4-39;34-49;9-48,1,SimpleHill,3-50,55,21,selected,28-47,33-50;35-44;22-43;23-44;33-48;25-51,35-44,2.55,94,4,632.438076947
GEMS234,2018_Apr_23_1531,George,EG,orientation,8,6,17,3-50;4-39;34-49;9-48,1,SimpleHill,3-50,55,22,selected,35-44,38-50;28-45;34-45;36-43;37-38;30-43,28-45,1.1,89,-5,637.100715887
GEMS234,2018_Apr_23_1531,George,EG,orientation,8,6,17,3-50;4-39;34-49;9-48,1,SimpleHill,3-50,55,23,selected,28-45,29-50;32-45;31-41;31-50;33-46;30-42,32-45,1.29,93,4,641.954022205
GEMS234,2018_Apr_23_1531,George,EG,orientation,8,6,17,3-50;4-39;34-49;9-48,1,SimpleHill,3-50,55,24,selected,32-45,26-50;25-42;34-49;38-45;32-40;30-42,38-45,1.56,96,3,647.095964431
GEMS234,2018_Apr_23_1531,George,EG,orientation,8,6,17,3-50;4-39;34-49;9-48,1,SimpleHill,3-50,55,25,selected,38-45,43-42;38-46;38-49;36-40;40-52;39-46,39-46,2.73,97,1,653.406966818
GEMS234,2018_Apr_23_1531,George,EG,orientation,8,6,17,3-50;4-39;34-49;9-48,1,SimpleHill,3-50,55,26,selected,39-46,34-47;37-45;36-43;39-48;46-46;38-40,37-45,3.12,96,-1,660.105134127
GEMS234,2018_Apr_23_1531,George,EG,orientation,8,6,17,3-50;4-39;34-49;9-48,1,SimpleHill,3-50,55,27,selected,37-45,44-45;37-51;38-39;42-47;36-51;37-39,42-47,2.28,98,2,665.939756313
GEMS234,2018_Apr_23_1531,George,EG,orientation,8,6,17,3-50;4-39;34-49;9-48,1,SimpleHill,3-50,55,28,selected,42-47,39-40;36-51;45-50;40-44;39-43;42-42,40-44,0.9,97,-1,670.427007501
GEMS234,2018_Apr_23_1531,George,EG,orientation,8,6,17,3-50;4-39;34-49;9-48,1,SimpleHill,3-50,55,29,selected,40-44,43-50;40-41;43-37;41-49;43-41;44-47,43-37,1.83,95,-2,675.837266792
GEMS234,2018_Apr_23_1531,George,EG,orientation,8,6,17,3-50;4-39;34-49;9-48,1,SimpleHill,3-50,55,30,selected,43-37,44-36;47-43;42-39;48-34;44-40;50-39,48-34,2.43,94,-1,681.81764351
GEMS234,2018_Apr_23_1531,George,EG,orientation,8,6,17,3-50;4-39;34-49;9-48,1,SimpleHill,3-50,55,31,selected,48-34,46-35;43-32;50-37;49-36;49-34;55-33,46-35,0.56,95,1,685.934590978
GEMS234,2018_Apr_23_1531,George,EG,orientation,8,6,17,3-50;4-39;34-49;9-48,1,SimpleHill,3-50,55,32,selected,46-35,49-32;43-37;47-42;50-30;44-34;44-28,44-34,1.97,94,-1,691.468212714
GEMS234,2018_Apr_23_1531,George,EG,orientation,8,6,17,3-50;4-39;34-49;9-48,1,SimpleHill,3-50,55,33,selected,44-34,49-39;45-28;45-40;45-32;40-28;45-31,45-31,1.54,92,-2,696.585306785
GEMS234,2018_Apr_23_1531,George,EG,orientation,8,6,17,3-50;4-39;34-49;9-48,1,SimpleHill,3-50,55,34,selected,45-31,44-28;43-35;41-26;43-37;43-30;39-30,43-35,2.22,94,2,702.374898651
GEMS234,2018_Apr_23_1531,George,EG,orientation,8,6,17,3-50;4-39;34-49;9-48,1,SimpleHill,3-50,55,35,selected,43-35,47-31;48-29;37-31;44-37;49-30;49-34,49-34,2.81,94,0,708.748352083
GEMS234,2018_Apr_23_1531,George,EG,orientation,8,6,17,3-50;4-39;34-49;9-48,1,SimpleHill,3-50,55,36,selected,49-34,45-33;46-28;55-39;54-33;48-37;49-37,54-33,3.48,93,-1,715.796974484
GEMS234,2018_Apr_23_1531,George,EG,orientation,8,6,17,3-50;4-39;34-49;9-48,1,SimpleHill,3-50,55,37,selected,54-33,47-35;60-30;51-38;48-31;55-31;52-32,47-35,1.74,95,2,721.124615609
GEMS234,2018_Apr_23_1531,George,EG,orientation,8,6,17,3-50;4-39;34-49;9-48,1,SimpleHill,3-50,55,38,selected,47-35,48-32;49-35;45-34;50-33;47-32;46-37,49-35,2.28,95,0,726.980693609
GEMS234,2018_Apr_23_1531,George,EG,orientation,8,6,17,3-50;4-39;34-49;9-48,1,SimpleHill,3-50,55,39,selected,49-35,49-34;55-38;56-32;52-30;50-28;45-40,49-34,2.22,94,-1,732.776652759
GEMS234,2018_Apr_23_1531,George,EG,orientation,8,6,17,3-50;4-39;34-49;9-48,2,SimpleHill,4-39,55,0,selected,4-39,11-42;0-34;1-39;0-44;8-36;5-42,11-42,5.48,68,13,753.354617897
GEMS234,2018_Apr_23_1531,George,EG,orientation,8,6,17,3-50;4-39;34-49;9-48,2,SimpleHill,4-39,55,1,selected,11-42,14-47;16-47;14-48;10-41;16-43;13-47,14-48,4.94,74,6,761.86260309
GEMS234,2018_Apr_23_1531,George,EG,orientation,8,6,17,3-50;4-39;34-49;9-48,2,SimpleHill,4-39,55,2,selected,14-48,16-41;7-45;21-49;20-52;12-51;20-51,20-51,2.23,81,7,767.682257102
GEMS234,2018_Apr_23_1531,George,EG,orientation,8,6,17,3-50;4-39;34-49;9-48,2,SimpleHill,4-39,55,3,selected,20-51,21-54;20-47;16-53;15-52;23-57;16-56,21-54,3.07,82,1,774.334476384
GEMS234,2018_Apr_23_1531,George,EG,orientation,8,6,17,3-50;4-39;34-49;9-48,2,SimpleHill,4-39,55,4,selected,21-54,21-59;15-55;21-61;18-61;25-59;24-56,21-61,1.69,80,-2,779.603222693
GEMS234,2018_Apr_23_1531,George,EG,orientation,8,6,17,3-50;4-39;34-49;9-48,2,SimpleHill,4-39,55,5,selected,21-61,26-64;15-64;23-68;16-60;13-61;19-61,16-60,2.56,74,-6,785.740456356
GEMS234,2018_Apr_23_1531,George,EG,orientation,8,6,17,3-50;4-39;34-49;9-48,2,SimpleHill,4-39,55,6,selected,16-60,10-56;21-60;22-58;18-54;17-55;9-59,21-60,1.83,81,7,791.1260365
GEMS234,2018_Apr_23_1531,George,EG,orientation,8,6,17,3-50;4-39;34-49;9-48,2,SimpleHill,4-39,55,7,selected,21-60,18-60;15-60;20-66;22-62;22-66;22-54,22-54,1.16,84,3,795.844539939
GEMS234,2018_Apr_23_1531,George,EG,orientation,8,6,17,3-50;4-39;34-49;9-48,2,SimpleHill,4-39,55,8,selected,22-54,18-48;29-52;21-52;17-55;16-50;21-56,21-52,1.32,83,-1,800.735814372
GEMS234,2018_Apr_23_1531,George,EG,orientation,8,6,17,3-50;4-39;34-49;9-48,2,SimpleHill,4-39,55,9,selected,21-52,21-54;14-50;18-45;15-52;21-59;17-51,21-54,0.85,82,-1,805.15428212
GEMS234,2018_Apr_23_1531,George,EG,orientation,8,6,17,3-50;4-39;34-49;9-48,2,SimpleHill,4-39,55,10,selected,21-54,19-51;27-57;26-49;21-50;14-53;20-51,26-49,2.51,88,6,811.227289823
GEMS234,2018_Apr_23_1531,George,EG,orientation,8,6,17,3-50;4-39;34-49;9-48,2,SimpleHill,4-39,55,11,selected,26-49,23-50;33-52;25-49;32-52;24-48;22-50,33-52,3.55,94,6,818.349262746
GEMS234,2018_Apr_23_1531,George,EG,orientation,8,6,17,3-50;4-39;34-49;9-48,2,SimpleHill,4-39,55,12,selected,33-52,31-56;37-49;39-52;34-56;37-53;26-55,37-49,3.92,96,2,825.814521645
GEMS234,2018_Apr_23_1531,George,EG,orientation,8,6,17,3-50;4-39;34-49;9-48,2,SimpleHill,4-39,55,13,selected,37-49,41-44;43-50;41-48;35-54;41-45;34-45,41-44,1.52,97,1,830.906394972
GEMS234,2018_Apr_23_1531,George,EG,orientation,8,6,17,3-50;4-39;34-49;9-48,2,SimpleHill,4-39,55,14,selected,41-44,44-38;41-46;37-43;39-45;36-49;36-47,41-46,5.78,98,1,840.247843936
GEMS234,2018_Apr_23_1531,George,EG,orientation,8,6,17,3-50;4-39;34-49;9-48,2,SimpleHill,4-39,55,15,selected,41-46,44-53;41-46;37-49;47-44;44-40;42-48,44-40,1.92,97,-1,845.744421985
GEMS234,2018_Apr_23_1531,George,EG,orientation,8,6,17,3-50;4-39;34-49;9-48,2,SimpleHill,4-39,55,16,selected,44-40,50-36;37-43;51-40;50-43;40-43;49-45,49-45,1.72,99,2,851.037144517
GEMS234,2018_Apr_23_1531,George,EG,orientation,8,6,17,3-50;4-39;34-49;9-48,2,SimpleHill,4-39,55,17,selected,49-45,47-38;48-44;48-50;52-43;54-40;53-40,48-44,1.09,99,0,855.697642357
GEMS234,2018_Apr_23_1531,George,EG,orientation,8,6,17,3-50;4-39;34-49;9-48,2,SimpleHill,4-39,55,18,selected,48-44,52-40;51-49;54-42;55-44;47-43;47-42,55-44,1.56,98,-1,860.845701875
GEMS234,2018_Apr_23_1531,George,EG,orientation,8,6,17,3-50;4-39;34-49;9-48,2,SimpleHill,4-39,55,19,selected,55-44,50-38;61-39;48-47;50-39;47-44;59-47,50-38,0.63,97,-1,865.03463275
GEMS234,2018_Apr_23_1531,George,EG,orientation,8,6,17,3-50;4-39;34-49;9-48,2,SimpleHill,4-39,55,20,selected,50-38,51-45;57-38;48-36;45-43;49-37;56-35,56-35,1.16,94,-3,869.757786175
GEMS234,2018_Apr_23_1531,George,EG,orientation,8,6,17,3-50;4-39;34-49;9-48,2,SimpleHill,4-39,55,21,selected,56-35,60-31;50-38;55-36;50-33;49-36;55-30,49-36,0.61,96,2,873.925443688
GEMS234,2018_Apr_23_1531,George,EG,orientation,8,6,17,3-50;4-39;34-49;9-48,2,SimpleHill,4-39,55,22,selected,49-36,42-34;43-40;54-31;49-34;53-32;48-31,42-34,1.39,93,-3,878.875055976
GEMS234,2018_Apr_23_1531,George,EG,orientation,8,6,17,3-50;4-39;34-49;9-48,2,SimpleHill,4-39,55,23,selected,42-34,39-40;45-36;42-37;42-32;46-31;36-35,42-32,0.87,92,-1,883.325201698
GEMS234,2018_Apr_23_1531,George,EG,orientation,8,6,17,3-50;4-39;34-49;9-48,2,SimpleHill,4-39,55,24,selected,42-32,42-25;35-31;49-31;45-26;38-30;48-33,42-25,1.8,86,-6,888.715070764
GEMS234,2018_Apr_23_1531,George,EG,orientation,8,6,17,3-50;4-39;34-49;9-48,2,SimpleHill,4-39,55,25,selected,42-25,39-29;37-22;40-30;47-24;44-28;42-20,42-20,0.81,80,-6,893.093624874
GEMS234,2018_Apr_23_1531,George,EG,orientation,8,6,17,3-50;4-39;34-49;9-48,2,SimpleHill,4-39,55,26,selected,42-20,38-15;42-15;41-26;45-18;40-25;47-18,40-25,4.36,85,5,901.007662059
GEMS234,2018_Apr_23_1531,George,EG,orientation,8,6,17,3-50;4-39;34-49;9-48,2,SimpleHill,4-39,55,27,selected,40-25,38-24;39-26;35-27;45-23;45-28;39-32,38-24,1.48,83,-2,906.044048917
GEMS234,2018_Apr_23_1531,George,EG,orientation,8,6,17,3-50;4-39;34-49;9-48,2,SimpleHill,4-39,55,28,selected,38-24,43-22;43-26;31-24;37-22;33-28;38-28,33-28,0.73,84,1,910.340165712
GEMS234,2018_Apr_23_1531,George,EG,orientation,8,6,17,3-50;4-39;34-49;9-48,2,SimpleHill,4-39,55,29,selected,33-28,28-28;30-31;32-23;36-30;36-27;35-23,36-27,0.43,85,1,914.33843369
GEMS234,2018_Apr_23_1531,George,EG,orientation,8,6,17,3-50;4-39;34-49;9-48,2,SimpleHill,4-39,55,30,selected,36-27,33-31;35-30;37-24;28-27;39-23;36-22,39-23,0.46,83,-2,918.372710497
GEMS234,2018_Apr_23_1531,George,EG,orientation,8,6,17,3-50;4-39;34-49;9-48,2,SimpleHill,4-39,55,31,selected,39-23,34-27;40-30;41-18;39-30;43-28;33-25,39-30,2.06,89,6,924.004580527
GEMS234,2018_Apr_23_1531,George,EG,orientation,8,6,17,3-50;4-39;34-49;9-48,2,SimpleHill,4-39,55,32,selected,39-30,35-25;45-33;36-29;37-32;40-35;40-36,35-25,1.04,83,-6,928.619420664
GEMS234,2018_Apr_23_1531,George,EG,orientation,8,6,17,3-50;4-39;34-49;9-48,2,SimpleHill,4-39,55,33,selected,35-25,39-22;37-32;32-24;40-29;34-20;37-26,37-32,0.8,90,7,932.992532557
GEMS234,2018_Apr_23_1531,George,EG,orientation,8,6,17,3-50;4-39;34-49;9-48,2,SimpleHill,4-39,55,34,selected,37-32,36-27;32-30;31-27;39-37;40-31;35-26,39-37,1.75,94,4,938.321448612
GEMS234,2018_Apr_23_1531,George,EG,orientation,8,6,17,3-50;4-39;34-49;9-48,2,SimpleHill,4-39,55,35,selected,39-37,40-37;45-36;36-32;31-37;35-41;42-39,45-36,2.35,95,1,944.251374878
GEMS234,2018_Apr_23_1531,George,EG,orientation,8,6,17,3-50;4-39;34-49;9-48,2,SimpleHill,4-39,55,36,selected,45-36,43-29;44-34;43-37;50-37;51-37;42-42,44-34,2.77,94,-1,950.60251945
GEMS234,2018_Apr_23_1531,George,EG,orientation,8,6,17,3-50;4-39;34-49;9-48,2,SimpleHill,4-39,55,37,selected,44-34,43-34;46-40;48-38;42-41;47-36;48-31,43-34,1.79,93,-1,955.968294818
GEMS234,2018_Apr_23_1531,George,EG,orientation,8,6,17,3-50;4-39;34-49;9-48,2,SimpleHill,4-39,55,38,selected,43-34,37-31;40-30;48-34;38-38;44-33;41-41,38-38,1.5,94,1,961.019014787
GEMS234,2018_Apr_23_1531,George,EG,orientation,8,6,17,3-50;4-39;34-49;9-48,2,SimpleHill,4-39,55,39,selected,38-38,41-38;37-33;42-34;38-39;36-45;42-36,42-34,1.0,93,-1,965.595206932
GEMS234,2018_Apr_23_1531,George,EG,orientation,8,6,17,3-50;4-39;34-49;9-48,3,SimpleHill,34-49,94,0,selected,34-49,29-44;31-44;29-47;35-55;34-42;35-53,31-44,8.4,92,-2,985.901205309
GEMS234,2018_Apr_23_1531,George,EG,orientation,8,6,17,3-50;4-39;34-49;9-48,3,SimpleHill,34-49,94,1,selected,31-44,34-38;30-51;37-43;33-40;32-46;35-40,32-46,3.35,93,1,992.82271986
GEMS234,2018_Apr_23_1531,George,EG,orientation,8,6,17,3-50;4-39;34-49;9-48,3,SimpleHill,34-49,94,2,selected,32-46,28-48;33-51;30-50;28-41;39-44;39-48,39-44,1.61,96,3,997.9873621
GEMS234,2018_Apr_23_1531,George,EG,orientation,8,6,17,3-50;4-39;34-49;9-48,3,SimpleHill,34-49,94,3,selected,39-44,43-48;45-46;39-42;36-39;38-47;31-44,31-44,2.52,92,-4,1004.0888907
GEMS234,2018_Apr_23_1531,George,EG,orientation,8,6,17,3-50;4-39;34-49;9-48,3,SimpleHill,34-49,94,4,selected,31-44,26-49;31-43;32-39;30-40;33-43;38-41,38-41,5.27,95,3,1012.91791351
GEMS234,2018_Apr_23_1531,George,EG,orientation,8,6,17,3-50;4-39;34-49;9-48,3,SimpleHill,34-49,94,5,selected,38-41,43-41;33-38;42-40;42-42;34-46;40-43,33-38,5.21,91,-4,1021.694065
GEMS234,2018_Apr_23_1531,George,EG,orientation,8,6,17,3-50;4-39;34-49;9-48,3,SimpleHill,34-49,94,6,selected,33-38,33-31;28-32;39-36;39-37;35-42;31-43,39-36,0.92,93,2,1026.17104698
GEMS234,2018_Apr_23_1531,George,EG,orientation,8,6,17,3-50;4-39;34-49;9-48,3,SimpleHill,34-49,94,7,selected,39-36,35-31;36-29;37-35;40-41;47-36;44-31,37-35,1.17,92,-1,1030.91629992
GEMS234,2018_Apr_23_1531,George,EG,orientation,8,6,17,3-50;4-39;34-49;9-48,3,SimpleHill,34-49,94,8,selected,37-35,40-28;43-32;44-36;34-40;34-35;35-31,34-35,1.63,90,-2,1036.10632423
GEMS234,2018_Apr_23_1531,George,EG,orientation,8,6,17,3-50;4-39;34-49;9-48,3,SimpleHill,34-49,94,9,selected,34-35,27-37;30-30;33-32;37-33;28-31;35-39,37-33,1.98,90,0,1041.66580338
GEMS234,2018_Apr_23_1531,George,EG,orientation,8,6,17,3-50;4-39;34-49;9-48,3,SimpleHill,34-49,94,10,selected,37-33,34-40;30-35;34-28;32-28;34-37;36-30,34-40,1.29,92,2,1046.51906072
GEMS234,2018_Apr_23_1531,George,EG,orientation,8,6,17,3-50;4-39;34-49;9-48,3,SimpleHill,34-49,94,11,selected,34-40,29-35;32-42;35-42;35-36;40-43;38-34,29-35,1.57,86,-6,1051.66829178
GEMS234,2018_Apr_23_1531,George,EG,orientation,8,6,17,3-50;4-39;34-49;9-48,3,SimpleHill,34-49,94,12,selected,29-35,33-31;32-35;33-38;29-37;31-42;28-35,29-37,1.96,87,1,1057.21859226
GEMS234,2018_Apr_23_1531,George,EG,orientation,8,6,17,3-50;4-39;34-49;9-48,3,SimpleHill,34-49,94,13,selected,29-37,23-42;32-40;25-39;27-35;33-33;25-35,32-40,2.48,91,4,1063.27674318
GEMS234,2018_Apr_23_1531,George,EG,orientation,8,6,17,3-50;4-39;34-49;9-48,3,SimpleHill,34-49,94,14,selected,32-40,27-36;36-44;38-40;35-43;32-42;39-42,39-42,2.47,96,5,1069.32041887
GEMS234,2018_Apr_23_1531,George,EG,orientation,8,6,17,3-50;4-39;34-49;9-48,3,SimpleHill,34-49,94,15,selected,39-42,39-43;45-43;44-40;34-40;32-45;43-38,43-38,2.83,96,0,1075.71108113
GEMS234,2018_Apr_23_1531,George,EG,orientation,8,6,17,3-50;4-39;34-49;9-48,3,SimpleHill,34-49,94,16,selected,43-38,43-46;48-35;43-39;46-38;43-42;44-37,48-35,4.21,95,-1,1083.49648138
GEMS234,2018_Apr_23_1531,George,EG,orientation,8,6,17,3-50;4-39;34-49;9-48,3,SimpleHill,34-49,94,17,selected,48-35,49-42;47-38;49-35;42-32;51-36;54-31,42-32,2.74,92,-3,1089.80017157
GEMS234,2018_Apr_23_1531,George,EG,orientation,8,6,17,3-50;4-39;34-49;9-48,3,SimpleHill,34-49,94,18,selected,42-32,46-30;46-36;47-30;39-25;46-35;44-29,44-29,0.67,90,-2,1094.04625243
GEMS234,2018_Apr_23_1531,George,EG,orientation,8,6,17,3-50;4-39;34-49;9-48,3,SimpleHill,34-49,94,19,selected,44-29,47-31;44-26;38-27;44-25;42-35;42-31,42-35,2.24,94,4,1099.84282584
GEMS234,2018_Apr_23_1531,George,EG,orientation,8,6,17,3-50;4-39;34-49;9-48,3,SimpleHill,34-49,94,20,selected,42-35,44-32;35-34;44-36;43-38;48-34;46-33,48-34,1.84,94,0,1105.25461358
GEMS234,2018_Apr_23_1531,George,EG,orientation,8,6,17,3-50;4-39;34-49;9-48,3,SimpleHill,34-49,94,21,selected,48-34,53-30;43-33;49-33;54-32;47-35;50-31,47-35,1.98,95,1,1110.80514709
GEMS234,2018_Apr_23_1531,George,EG,orientation,8,6,17,3-50;4-39;34-49;9-48,3,SimpleHill,34-49,94,22,selected,47-35,49-35;42-30;43-37;49-40;47-37;40-36,49-35,1.38,95,0,1115.7542213
GEMS234,2018_Apr_23_1531,George,EG,orientation,8,6,17,3-50;4-39;34-49;9-48,3,SimpleHill,34-49,94,23,selected,49-35,49-29;55-32;55-30;47-29;49-39;46-37,46-37,2.1,96,1,1121.41455718
GEMS234,2018_Apr_23_1531,George,EG,orientation,8,6,17,3-50;4-39;34-49;9-48,3,SimpleHill,34-49,94,24,selected,46-37,50-36;39-38;47-38;51-31;41-31;40-39,50-36,2.26,96,0,1127.25040308
GEMS234,2018_Apr_23_1531,George,EG,orientation,8,6,17,3-50;4-39;34-49;9-48,3,SimpleHill,34-49,94,25,selected,50-36,47-43;48-41;46-30;47-37;50-36;53-32,50-36,2.0,96,0,1132.81829842
GEMS234,2018_Apr_23_1531,George,EG,orientation,8,6,17,3-50;4-39;34-49;9-48,3,SimpleHill,34-49,94,26,selected,50-36,53-39;55-41;55-32;47-31;46-42;45-30,45-30,4.12,91,-5,1140.51533164
GEMS234,2018_Apr_23_1531,George,EG,orientation,8,6,17,3-50;4-39;34-49;9-48,3,SimpleHill,34-49,94,27,selected,45-30,48-32;45-33;51-27;51-29;41-34;38-31,41-34,1.35,93,2,1145.43904779
GEMS234,2018_Apr_23_1531,George,EG,orientation,8,6,17,3-50;4-39;34-49;9-48,3,SimpleHill,34-49,94,28,selected,41-34,44-32;40-34;41-40;47-33;36-36;40-28,40-34,1.02,92,-1,1150.03718261
GEMS234,2018_Apr_23_1531,George,EG,orientation,8,6,17,3-50;4-39;34-49;9-48,3,SimpleHill,34-49,94,29,selected,40-34,38-28;38-39;40-38;41-33;42-36;38-36,42-36,1.23,94,2,1154.83426464
GEMS234,2018_Apr_23_1531,George,EG,orientation,8,6,17,3-50;4-39;34-49;9-48,3,SimpleHill,34-49,94,30,selected,42-36,43-38;35-36;43-35;45-42;39-31;47-30,35-36,1.43,91,-3,1159.82895751
GEMS234,2018_Apr_23_1531,George,EG,orientation,8,6,17,3-50;4-39;34-49;9-48,3,SimpleHill,34-49,94,31,selected,35-36,35-35;35-40;37-31;30-39;31-37;30-38,35-35,0.58,91,0,1163.99770974
GEMS234,2018_Apr_23_1531,George,EG,orientation,8,6,17,3-50;4-39;34-49;9-48,3,SimpleHill,34-49,94,32,selected,35-35,41-35;34-28;29-37;27-35;28-38;31-30,41-35,0.8,93,2,1168.3647037
GEMS234,2018_Apr_23_1531,George,EG,orientation,8,6,17,3-50;4-39;34-49;9-48,3,SimpleHill,34-49,94,33,selected,41-35,41-37;39-35;37-33;47-37;37-29;36-34,47-37,1.54,96,3,1173.45070845
GEMS234,2018_Apr_23_1531,George,EG,orientation,8,6,17,3-50;4-39;34-49;9-48,3,SimpleHill,34-49,94,34,selected,47-37,49-34;53-35;41-38;47-45;45-36;45-38,53-35,1.53,95,-1,1178.54913279
GEMS234,2018_Apr_23_1531,George,EG,orientation,8,6,17,3-50;4-39;34-49;9-48,3,SimpleHill,34-49,94,35,selected,53-35,53-41;60-34;55-34;54-42;51-36;54-29,51-36,1.7,96,1,1183.81481037
GEMS234,2018_Apr_23_1531,George,EG,orientation,8,6,17,3-50;4-39;34-49;9-48,3,SimpleHill,34-49,94,36,selected,51-36,47-37;53-41;51-42;50-35;54-39;55-39,47-37,1.02,96,0,1188.40538236
GEMS234,2018_Apr_23_1531,George,EG,orientation,8,6,17,3-50;4-39;34-49;9-48,3,SimpleHill,34-49,94,37,selected,47-37,43-42;53-35;51-35;51-36;45-44;48-33,53-35,1.82,95,-1,1193.7943494
GEMS234,2018_Apr_23_1531,George,EG,orientation,8,6,17,3-50;4-39;34-49;9-48,3,SimpleHill,34-49,94,38,selected,53-35,59-40;55-38;60-33;50-40;56-36;56-32,56-36,1.22,95,0,1198.58231232
GEMS234,2018_Apr_23_1531,George,EG,orientation,8,6,17,3-50;4-39;34-49;9-48,3,SimpleHill,34-49,94,39,selected,56-36,60-41;53-36;59-32;50-38;51-41;61-36,60-41,2.79,96,1,1204.929546
GEMS234,2018_Apr_23_1531,George,EG,orientation,8,6,17,3-50;4-39;34-49;9-48,4,SimpleHill,9-48,66,0,selected,9-48,5-44;6-51;2-48;14-52;12-54;7-51,14-52,2.99,74,8,1225.22713074
GEMS234,2018_Apr_23_1531,George,EG,orientation,8,6,17,3-50;4-39;34-49;9-48,4,SimpleHill,9-48,66,1,selected,14-52,8-50;16-52;11-54;17-51;9-51;14-49,11-54,2.88,69,-5,1231.67578259
GEMS234,2018_Apr_23_1531,George,EG,orientation,8,6,17,3-50;4-39;34-49;9-48,4,SimpleHill,9-48,66,2,selected,11-54,5-54;16-51;9-57;8-48;12-53;14-49,8-48,0.48,64,-5,1235.71919836
GEMS234,2018_Apr_23_1531,George,EG,orientation,8,6,17,3-50;4-39;34-49;9-48,4,SimpleHill,9-48,66,3,selected,8-48,8-45;13-44;8-43;6-44;8-42;10-41,6-44,2.67,60,-4,1241.95326743
GEMS234,2018_Apr_23_1531,George,EG,orientation,8,6,17,3-50;4-39;34-49;9-48,4,SimpleHill,9-48,66,4,selected,6-44,7-48;13-43;3-37;2-42;1-42;9-47,13-43,1.26,71,11,1246.78239874
GEMS234,2018_Apr_23_1531,George,EG,orientation,8,6,17,3-50;4-39;34-49;9-48,4,SimpleHill,9-48,66,5,selected,13-43,9-38;15-39;13-40;18-37;18-40;18-45,18-45,2.1,79,8,1252.46488983
GEMS234,2018_Apr_23_1531,George,EG,orientation,8,6,17,3-50;4-39;34-49;9-48,4,SimpleHill,9-48,66,6,selected,18-45,14-44;17-41;20-52;19-45;22-50;19-43,20-52,3.41,81,2,1259.44999656
GEMS234,2018_Apr_23_1531,George,EG,orientation,8,6,17,3-50;4-39;34-49;9-48,4,SimpleHill,9-48,66,7,selected,20-52,14-54;22-58;24-46;22-51;19-51;24-50,24-46,4.21,86,5,1267.214352
GEMS234,2018_Apr_23_1531,George,EG,orientation,8,6,17,3-50;4-39;34-49;9-48,4,SimpleHill,9-48,66,8,selected,24-46,22-47;29-52;30-42;23-45;24-45;25-53,30-42,6.82,90,4,1277.61018919
GEMS234,2018_Apr_23_1531,George,EG,orientation,8,6,17,3-50;4-39;34-49;9-48,4,SimpleHill,9-48,66,9,selected,30-42,25-40;28-49;25-39;26-44;27-41;25-43,25-39,2.33,85,-5,1283.48255735
GEMS234,2018_Apr_23_1531,George,EG,orientation,8,6,17,3-50;4-39;34-49;9-48,4,SimpleHill,9-48,66,10,selected,25-39,27-39;31-40;30-34;30-45;24-33;23-40,30-45,0.84,91,6,1287.91496577
GEMS234,2018_Apr_23_1531,George,EG,orientation,8,6,17,3-50;4-39;34-49;9-48,4,SimpleHill,9-48,66,11,selected,30-45,23-43;27-43;29-47;31-49;24-47;36-40,23-43,0.97,84,-7,1292.44685581
GEMS234,2018_Apr_23_1531,George,EG,orientation,8,6,17,3-50;4-39;34-49;9-48,4,SimpleHill,9-48,66,12,selected,23-43,29-38;21-41;23-45;28-40;30-44;23-41,23-45,1.06,84,0,1297.07790192
GEMS234,2018_Apr_23_1531,George,EG,orientation,8,6,17,3-50;4-39;34-49;9-48,4,SimpleHill,9-48,66,13,selected,23-45,28-40;17-46;19-41;20-42;17-49;26-41,26-41,1.34,86,2,1302.00151468
GEMS234,2018_Apr_23_1531,George,EG,orientation,8,6,17,3-50;4-39;34-49;9-48,4,SimpleHill,9-48,66,14,selected,26-41,31-46;31-40;30-43;25-43;22-36;20-46,31-46,2.19,92,6,1307.76315381
GEMS234,2018_Apr_23_1531,George,EG,orientation,8,6,17,3-50;4-39;34-49;9-48,4,SimpleHill,9-48,66,15,selected,31-46,26-41;38-45;29-43;29-53;36-52;31-42,29-53,3.44,91,-1,1314.78458306
GEMS234,2018_Apr_23_1531,George,EG,orientation,8,6,17,3-50;4-39;34-49;9-48,4,SimpleHill,9-48,66,16,selected,29-53,30-56;33-51;33-48;23-57;25-52;27-47,30-56,2.14,91,0,1320.49546861
GEMS234,2018_Apr_23_1531,George,EG,orientation,8,6,17,3-50;4-39;34-49;9-48,4,SimpleHill,9-48,66,17,selected,30-56,29-51;32-58;32-54;25-50;35-54;29-59,35-54,2.74,95,4,1326.80843316
GEMS234,2018_Apr_23_1531,George,EG,orientation,8,6,17,3-50;4-39;34-49;9-48,4,SimpleHill,9-48,66,18,selected,35-54,32-57;35-61;34-61;38-53;33-61;41-51,38-53,1.71,96,1,1332.08648745
GEMS234,2018_Apr_23_1531,George,EG,orientation,8,6,17,3-50;4-39;34-49;9-48,4,SimpleHill,9-48,66,19,selected,38-53,41-59;38-59;31-52;35-51;33-57;45-50,31-52,1.5,92,-4,1337.14400842
GEMS234,2018_Apr_23_1531,George,EG,orientation,8,6,17,3-50;4-39;34-49;9-48,4,SimpleHill,9-48,66,20,selected,31-52,30-57;30-48;32-56;28-50;29-58;33-48,33-48,1.77,94,2,1342.4778171
GEMS234,2018_Apr_23_1531,George,EG,orientation,8,6,17,3-50;4-39;34-49;9-48,4,SimpleHill,9-48,66,21,selected,33-48,31-50;36-55;37-51;29-53;40-47;39-44,29-53,1.3,91,-3,1347.35021342
GEMS234,2018_Apr_23_1531,George,EG,orientation,8,6,17,3-50;4-39;34-49;9-48,4,SimpleHill,9-48,66,22,selected,29-53,34-54;26-48;36-54;34-52;30-49;30-51,34-54,0.42,94,3,1351.32269313
GEMS234,2018_Apr_23_1531,George,EG,orientation,8,6,17,3-50;4-39;34-49;9-48,4,SimpleHill,9-48,66,23,selected,34-54,32-48;37-57;37-59;40-53;27-54;29-56,40-53,4.3,97,3,1359.18673568
GEMS234,2018_Apr_23_1531,George,EG,orientation,8,6,17,3-50;4-39;34-49;9-48,4,SimpleHill,9-48,66,24,selected,40-53,44-50;38-54;36-57;42-46;41-51;39-48,42-46,2.23,98,1,1364.98497485
GEMS234,2018_Apr_23_1531,George,EG,orientation,8,6,17,3-50;4-39;34-49;9-48,4,SimpleHill,9-48,66,25,selected,42-46,42-50;45-41;45-48;41-49;47-48;43-44,43-44,1.66,98,0,1370.19497454
GEMS234,2018_Apr_23_1531,George,EG,orientation,8,6,17,3-50;4-39;34-49;9-48,4,SimpleHill,9-48,66,26,selected,43-44,44-38;36-46;39-41;38-50;41-39;39-45,39-45,1.58,97,-1,1375.34939719
GEMS234,2018_Apr_23_1531,George,EG,orientation,8,6,17,3-50;4-39;34-49;9-48,4,SimpleHill,9-48,66,27,selected,39-45,46-48;40-51;37-49;39-41;45-42;36-51,46-48,1.59,99,2,1380.50559922
GEMS234,2018_Apr_23_1531,George,EG,orientation,8,6,17,3-50;4-39;34-49;9-48,4,SimpleHill,9-48,66,28,selected,46-48,45-52;45-43;49-51;49-49;47-47;47-55,47-55,1.38,99,0,1385.45420642
GEMS234,2018_Apr_23_1531,George,EG,orientation,8,6,17,3-50;4-39;34-49;9-48,4,SimpleHill,9-48,66,29,selected,47-55,48-59;47-52;49-62;48-52;47-62;48-51,48-52,1.41,99,0,1390.43119271
GEMS234,2018_Apr_23_1531,George,EG,orientation,8,6,17,3-50;4-39;34-49;9-48,4,SimpleHill,9-48,66,30,selected,48-52,52-48;44-53;50-56;45-54;51-50;45-51,45-54,1.36,99,0,1395.34424433
GEMS234,2018_Apr_23_1531,George,EG,orientation,8,6,17,3-50;4-39;34-49;9-48,4,SimpleHill,9-48,66,31,selected,45-54,47-59;51-56;47-47;39-54;48-47;46-54,39-54,1.16,97,-2,1400.06894285
GEMS234,2018_Apr_23_1531,George,EG,orientation,8,6,17,3-50;4-39;34-49;9-48,4,SimpleHill,9-48,66,32,selected,39-54,38-53;38-52;41-49;35-58;36-51;45-51,38-52,1.09,97,0,1404.72895511
GEMS234,2018_Apr_23_1531,George,EG,orientation,8,6,17,3-50;4-39;34-49;9-48,4,SimpleHill,9-48,66,33,selected,38-52,41-55;36-45;43-53;37-53;36-59;31-51,36-59,0.63,94,-3,1408.95034466
GEMS234,2018_Apr_23_1531,George,EG,orientation,8,6,17,3-50;4-39;34-49;9-48,4,SimpleHill,9-48,66,34,selected,36-59,37-62;29-58;40-55;30-64;39-66;39-55,40-55,1.1,97,3,1413.63210402
GEMS234,2018_Apr_23_1531,George,EG,orientation,8,6,17,3-50;4-39;34-49;9-48,4,SimpleHill,9-48,66,35,selected,40-55,42-48;45-53;40-51;46-56;45-55;40-47,42-48,0.54,98,1,1417.73244668
GEMS234,2018_Apr_23_1531,George,EG,orientation,8,6,17,3-50;4-39;34-49;9-48,4,SimpleHill,9-48,66,36,selected,42-48,48-44;37-52;36-48;43-41;38-45;35-51,37-52,0.89,96,-2,1422.18981721
GEMS234,2018_Apr_23_1531,George,EG,orientation,8,6,17,3-50;4-39;34-49;9-48,4,SimpleHill,9-48,66,37,selected,37-52,38-45;40-50;37-59;32-56;36-57;35-50,38-45,1.32,96,0,1427.0798452
GEMS234,2018_Apr_23_1531,George,EG,orientation,8,6,17,3-50;4-39;34-49;9-48,4,SimpleHill,9-48,66,38,selected,38-45,32-40;39-52;40-39;35-39;36-43;34-45,40-39,1.63,95,-1,1432.27583124
GEMS234,2018_Apr_23_1531,George,EG,orientation,8,6,17,3-50;4-39;34-49;9-48,4,SimpleHill,9-48,66,39,selected,40-39,37-40;36-41;36-35;39-46;43-43;36-43,43-43,0.52,98,3,1436.36344029
