subj_id,date,computer,experimenter,instructions,sight_radius,n_gabors,landscape_ix,landscape_name,starting_pos,starting_score,trial,feedback,pos,stims,selected,rt,score,delta,exp_time
GEMS129,2018_Mar_07_1304,Elaine,sf,orientation,8,6,0,OrientationBias,0-0,0,0,training,0-0,1-3;2-3;6-5;3-7;0-4;0-5,6-5,6.35,22,22,242.101148268
GEMS129,2018_Mar_07_1304,Elaine,sf,orientation,8,6,0,OrientationBias,0-0,0,1,training,6-5,1-11;9-6;10-7;12-3;3-0;5-2,12-3,4.39,42,20,251.33949234
GEMS129,2018_Mar_07_1304,Elaine,sf,orientation,8,6,0,OrientationBias,0-0,0,2,training,12-3,14-0;8-8;11-10;15-0;16-6;18-8,18-8,6.62,59,17,261.770128776
GEMS129,2018_Mar_07_1304,Elaine,sf,orientation,8,6,0,OrientationBias,0-0,0,3,training,18-8,16-2;15-1;19-12;16-5;23-3;16-7,19-12,3.64,61,2,268.67673763
GEMS129,2018_Mar_07_1304,Elaine,sf,orientation,8,6,0,OrientationBias,0-0,0,4,training,19-12,21-9;17-16;21-14;15-7;25-17;22-5,22-5,4.37,68,7,283.742898828
GEMS129,2018_Mar_07_1304,Elaine,sf,orientation,8,6,0,OrientationBias,0-0,0,5,training,22-5,24-0;17-11;17-10;24-12;15-8;22-12,24-0,3.82,72,4,292.516453554
GEMS129,2018_Mar_07_1304,Elaine,sf,orientation,8,6,0,OrientationBias,0-0,0,6,training,24-0,24-3;29-5;23-7;30-1;24-4;28-1,24-4,5.94,72,0,304.233024455
GEMS129,2018_Mar_07_1304,Elaine,sf,orientation,8,6,0,OrientationBias,0-0,0,7,training,24-4,28-10;30-7;24-11;26-3;18-5;18-4,28-10,3.39,80,8,316.363147495
GEMS129,2018_Mar_07_1304,Elaine,sf,orientation,8,6,0,OrientationBias,0-0,0,8,training,28-10,26-13;30-12;26-16;24-4;24-7;34-5,34-5,5.95,89,9,329.161459135
GEMS129,2018_Mar_07_1304,Elaine,sf,orientation,8,6,0,OrientationBias,0-0,0,9,training,34-5,38-1;31-3;28-4;29-6;34-8;28-6,38-1,6.81,94,5,338.717335281
GEMS129,2018_Mar_07_1304,Elaine,sf,orientation,8,6,0,OrientationBias,0-0,0,10,training,38-1,35-2;33-6;33-5;34-5;35-8;36-1,33-5,10.17,88,-6,351.520148382
GEMS129,2018_Mar_07_1304,Elaine,sf,orientation,8,6,0,OrientationBias,0-0,0,11,training,33-5,28-1;33-11;35-8;30-7;32-12;26-5,26-5,4.17,76,-12,362.04485072
GEMS129,2018_Mar_07_1304,Elaine,sf,orientation,8,6,0,OrientationBias,0-0,0,12,training,26-5,23-0;26-10;31-8;20-1;20-10;26-1,26-1,3.4,76,0,369.109334953
GEMS129,2018_Mar_07_1304,Elaine,sf,orientation,8,6,0,OrientationBias,0-0,0,13,training,26-1,30-6;24-8;26-2;26-7;29-2;20-3,29-2,2.56,82,6,375.279295745
GEMS129,2018_Mar_07_1304,Elaine,sf,orientation,8,6,0,OrientationBias,0-0,0,14,training,29-2,27-1;24-5;33-7;34-8;29-0;28-8,27-1,3.59,78,-4,384.198242884
GEMS129,2018_Mar_07_1304,Elaine,sf,orientation,8,6,0,OrientationBias,0-0,0,15,training,27-1,26-2;23-2;32-4;32-3;24-0;26-0,32-3,8.87,87,9,396.613439019
GEMS129,2018_Mar_07_1304,Elaine,sf,orientation,8,6,0,OrientationBias,0-0,0,16,training,32-3,33-9;36-9;30-9;36-3;37-0;30-7,36-3,5.89,92,5,406.790466813
GEMS129,2018_Mar_07_1304,Elaine,sf,orientation,8,6,0,OrientationBias,0-0,0,17,training,36-3,37-0;37-10;42-3;30-7;32-5;32-6,37-0,6.06,93,1,415.752322671
GEMS129,2018_Mar_07_1304,Elaine,sf,orientation,8,6,0,OrientationBias,0-0,0,18,training,37-0,40-0;36-5;32-2;39-3;35-1;42-2,40-0,8.8,96,3,428.981468565
GEMS129,2018_Mar_07_1304,Elaine,sf,orientation,8,6,0,OrientationBias,0-0,0,19,training,40-0,48-0;42-5;42-0;45-0;39-7;40-7,48-0,9.18,99,3,440.637282069
GEMS129,2018_Mar_07_1304,Elaine,sf,orientation,8,6,0,OrientationBias,0-0,0,20,training,48-0,45-1;53-4;50-1;50-5;48-1;47-2,53-4,8.72,99,0,452.525081007
GEMS129,2018_Mar_07_1304,Elaine,sf,orientation,8,6,0,OrientationBias,0-0,0,21,training,53-4,57-2;53-5;59-1;50-7;54-10;53-12,57-2,1.17,98,-1,457.681636326
GEMS129,2018_Mar_07_1304,Elaine,sf,orientation,8,6,0,OrientationBias,0-0,0,22,training,57-2,58-1;62-3;62-8;54-7;56-9;56-0,56-0,6.31,98,0,468.060947531
GEMS129,2018_Mar_07_1304,Elaine,sf,orientation,8,6,0,OrientationBias,0-0,0,23,training,56-0,62-1;56-2;56-1;55-6;52-6;55-0,56-1,3.17,98,0,474.541236716
GEMS129,2018_Mar_07_1304,Elaine,sf,orientation,8,6,0,OrientationBias,0-0,0,24,training,56-1,54-5;50-1;58-0;49-0;57-7;55-2,55-2,7.08,99,1,487.308306048
GEMS129,2018_Mar_07_1304,Elaine,sf,orientation,8,6,0,OrientationBias,0-0,0,25,training,55-2,55-3;58-2;57-5;48-0;51-4;49-6,58-2,4.02,97,-2,494.420509991
GEMS129,2018_Mar_07_1304,Elaine,sf,orientation,8,6,0,OrientationBias,0-0,0,26,training,58-2,52-7;57-5;63-0;63-8;61-0;64-4,57-5,9.31,98,1,509.709569837
GEMS129,2018_Mar_07_1304,Elaine,sf,orientation,8,6,0,OrientationBias,0-0,0,27,training,57-5,65-5;58-3;62-10;55-5;64-3;54-7,54-7,6.52,99,1,519.716330511
GEMS129,2018_Mar_07_1304,Elaine,sf,orientation,8,6,0,OrientationBias,0-0,0,28,training,54-7,52-4;62-7;57-1;55-7;51-6;54-15,52-4,3.23,99,0,526.462030788
GEMS129,2018_Mar_07_1304,Elaine,sf,orientation,8,6,0,OrientationBias,0-0,0,29,training,52-4,48-7;51-11;51-9;46-7;54-10;56-4,56-4,4.2,98,-1,533.558232987
GEMS129,2018_Mar_07_1304,Elaine,sf,orientation,8,6,1,SimpleHill,0-0,0,0,selected,0-0,0-8;6-0;1-6;0-6;6-3;3-0,6-0,11.16,11,11,574.353411882
GEMS129,2018_Mar_07_1304,Elaine,sf,orientation,8,6,1,SimpleHill,0-0,0,1,selected,6-0,3-6;0-1;1-1;6-2;4-1;7-0,7-0,3.0,13,2,580.911807796
GEMS129,2018_Mar_07_1304,Elaine,sf,orientation,8,6,1,SimpleHill,0-0,0,2,selected,7-0,8-6;9-0;1-4;4-7;13-4;7-6,8-6,7.04,26,13,591.524602469
GEMS129,2018_Mar_07_1304,Elaine,sf,orientation,8,6,1,SimpleHill,0-0,0,3,selected,8-6,6-13;5-8;11-13;7-0;9-12;9-7,9-7,13.4,29,3,608.482469975
GEMS129,2018_Mar_07_1304,Elaine,sf,orientation,8,6,1,SimpleHill,0-0,0,4,selected,9-7,13-11;7-4;6-14;7-13;12-9;8-8,13-11,3.2,42,13,615.249370298
GEMS129,2018_Mar_07_1304,Elaine,sf,orientation,8,6,1,SimpleHill,0-0,0,5,selected,13-11,9-13;13-16;16-18;13-17;15-13;17-17,17-17,2.77,56,14,621.589469213
GEMS129,2018_Mar_07_1304,Elaine,sf,orientation,8,6,1,SimpleHill,0-0,0,6,selected,17-17,9-17;16-23;19-12;11-15;21-12;12-20,21-12,2.9,54,-2,628.071207456
GEMS129,2018_Mar_07_1304,Elaine,sf,orientation,8,6,1,SimpleHill,0-0,0,7,selected,21-12,18-11;18-17;20-12;25-15;21-8;14-10,18-11,1.6,49,-5,633.221278661
GEMS129,2018_Mar_07_1304,Elaine,sf,orientation,8,6,1,SimpleHill,0-0,0,8,selected,18-11,16-11;18-19;20-14;13-10;19-7;20-13,19-7,3.21,43,-6,640.004768418
GEMS129,2018_Mar_07_1304,Elaine,sf,orientation,8,6,1,SimpleHill,0-0,0,9,selected,19-7,17-13;21-14;19-9;12-10;21-1;22-10,22-10,7.27,52,9,650.83142873
GEMS129,2018_Mar_07_1304,Elaine,sf,orientation,8,6,1,SimpleHill,0-0,0,10,selected,22-10,17-15;25-9;27-10;21-6;18-12;23-11,21-6,2.83,44,-8,657.233622388
GEMS129,2018_Mar_07_1304,Elaine,sf,orientation,8,6,1,SimpleHill,0-0,0,11,selected,21-6,15-1;28-5;20-10;21-0;27-9;21-6,27-9,5.99,55,11,666.787857739
GEMS129,2018_Mar_07_1304,Elaine,sf,orientation,8,6,1,SimpleHill,0-0,0,12,selected,27-9,21-4;20-11;19-9;21-12;30-6;30-2,30-6,8.86,53,-2,679.202288533
GEMS129,2018_Mar_07_1304,Elaine,sf,orientation,8,6,1,SimpleHill,0-0,0,13,selected,30-6,23-7;35-2;28-10;36-6;36-4;37-8,37-8,5.02,61,8,687.811397661
GEMS129,2018_Mar_07_1304,Elaine,sf,orientation,8,6,1,SimpleHill,0-0,0,14,selected,37-8,31-7;32-8;43-4;38-2;32-9;39-13,31-7,13.93,55,-6,705.32063313
GEMS129,2018_Mar_07_1304,Elaine,sf,orientation,8,6,1,SimpleHill,0-0,0,15,selected,31-7,32-13;28-7;28-10;30-2;30-0;34-2,34-2,3.7,48,-7,712.569630841
GEMS129,2018_Mar_07_1304,Elaine,sf,orientation,8,6,1,SimpleHill,0-0,0,16,selected,34-2,29-6;35-7;32-0;40-7;31-0;36-8,36-8,10.96,60,12,727.111970595
GEMS129,2018_Mar_07_1304,Elaine,sf,orientation,8,6,1,SimpleHill,0-0,0,17,selected,36-8,41-13;39-13;30-12;36-9;41-10;37-1,30-12,4.19,63,3,734.877373846
GEMS129,2018_Mar_07_1304,Elaine,sf,orientation,8,6,1,SimpleHill,0-0,0,18,selected,30-12,27-14;38-12;32-5;29-8;31-18;24-15,38-12,3.29,68,5,741.713539945
GEMS129,2018_Mar_07_1304,Elaine,sf,orientation,8,6,1,SimpleHill,0-0,0,19,selected,38-12,44-9;41-16;36-16;43-6;38-13;38-12,44-9,1.47,65,-3,746.751323022
GEMS129,2018_Mar_07_1304,Elaine,sf,orientation,8,6,1,SimpleHill,0-0,0,20,selected,44-9,44-15;51-10;48-4;46-16;43-10;42-13,51-10,3.38,67,2,753.69068342
GEMS129,2018_Mar_07_1304,Elaine,sf,orientation,8,6,1,SimpleHill,0-0,0,21,selected,51-10,57-14;46-9;54-12;54-17;52-9;55-15,46-9,5.12,66,-1,762.381046107
GEMS129,2018_Mar_07_1304,Elaine,sf,orientation,8,6,1,SimpleHill,0-0,0,22,selected,46-9,51-3;45-5;42-9;42-5;48-16;47-13,51-3,8.57,55,-11,774.533713902
GEMS129,2018_Mar_07_1304,Elaine,sf,orientation,8,6,1,SimpleHill,0-0,0,23,selected,51-3,44-2;50-6;55-0;57-3;47-4;54-10,44-2,3.71,53,-2,781.813408162
GEMS129,2018_Mar_07_1304,Elaine,sf,orientation,8,6,1,SimpleHill,0-0,0,24,selected,44-2,47-0;43-1;50-7;41-3;47-5;44-8,44-8,1.25,64,11,786.625120155
GEMS129,2018_Mar_07_1304,Elaine,sf,orientation,8,6,1,SimpleHill,0-0,0,25,selected,44-8,38-8;40-5;43-8;42-10;41-10;49-10,41-10,2.42,66,2,792.609059834
GEMS129,2018_Mar_07_1304,Elaine,sf,orientation,8,6,1,SimpleHill,0-0,0,26,selected,41-10,45-12;37-5;36-8;45-15;39-9;41-7,37-5,1.53,56,-10,797.727037285
GEMS129,2018_Mar_07_1304,Elaine,sf,orientation,8,6,1,SimpleHill,0-0,0,27,selected,37-5,44-7;37-5;39-2;33-0;34-5;41-4,44-7,14.42,62,6,815.706105156
GEMS129,2018_Mar_07_1304,Elaine,sf,orientation,8,6,1,SimpleHill,0-0,0,28,selected,44-7,41-1;43-4;38-4;46-10;48-13;50-9,41-1,7.74,50,-12,827.017601886
GEMS129,2018_Mar_07_1304,Elaine,sf,orientation,8,6,1,SimpleHill,0-0,0,29,selected,41-1,37-3;35-3;46-6;43-7;39-8;39-7,39-8,4.23,62,12,834.813007407
GEMS129,2018_Mar_07_1304,Elaine,sf,orientation,8,6,1,SimpleHill,0-0,0,30,selected,39-8,44-13;34-11;34-6;34-13;41-3;42-6,42-6,3.93,60,-2,842.302762686
GEMS129,2018_Mar_07_1304,Elaine,sf,orientation,8,6,1,SimpleHill,0-0,0,31,selected,42-6,36-1;41-4;35-5;44-12;43-7;43-2,43-7,5.12,62,2,851.002533532
GEMS129,2018_Mar_07_1304,Elaine,sf,orientation,8,6,1,SimpleHill,0-0,0,32,selected,43-7,37-12;47-12;48-1;36-10;50-4;45-12,47-12,4.27,70,8,858.853733735
GEMS129,2018_Mar_07_1304,Elaine,sf,orientation,8,6,1,SimpleHill,0-0,0,33,selected,47-12,42-10;48-7;53-16;52-12;47-15;45-17,48-7,6.98,62,-8,869.414275229
GEMS129,2018_Mar_07_1304,Elaine,sf,orientation,8,6,1,SimpleHill,0-0,0,34,selected,48-7,44-2;43-6;45-7;46-4;42-12;41-6,42-12,2.2,69,7,875.173927378
GEMS129,2018_Mar_07_1304,Elaine,sf,orientation,8,6,1,SimpleHill,0-0,0,35,selected,42-12,45-17;49-15;46-8;42-10;48-16;48-13,45-17,3.36,77,8,882.073867105
GEMS129,2018_Mar_07_1304,Elaine,sf,orientation,8,6,1,SimpleHill,0-0,0,36,selected,45-17,52-20;43-13;48-20;41-20;45-12;39-17,52-20,2.55,81,4,888.179647111
GEMS129,2018_Mar_07_1304,Elaine,sf,orientation,8,6,1,SimpleHill,0-0,0,37,selected,52-20,45-22;54-14;45-18;48-21;50-14;59-23,50-14,6.72,74,-7,898.468242503
GEMS129,2018_Mar_07_1304,Elaine,sf,orientation,8,6,1,SimpleHill,0-0,0,38,selected,50-14,48-8;53-8;50-20;48-20;50-19;50-8,50-20,3.16,82,8,905.188570329
GEMS129,2018_Mar_07_1304,Elaine,sf,orientation,8,6,1,SimpleHill,0-0,0,39,selected,50-20,52-26;54-21;54-24;53-16;50-18;51-17,52-26,4.32,88,6,913.071994884
GEMS129,2018_Mar_07_1304,Elaine,sf,orientation,8,6,2,SimpleHill,0-0,0,0,selected,0-0,6-5;3-3;0-0;2-4;5-3;5-4,6-5,8.51,20,20,937.166291572
GEMS129,2018_Mar_07_1304,Elaine,sf,orientation,8,6,2,SimpleHill,0-0,0,1,selected,6-5,3-12;1-7;8-9;6-9;7-4;6-12,3-12,5.49,26,6,946.232680035
GEMS129,2018_Mar_07_1304,Elaine,sf,orientation,8,6,2,SimpleHill,0-0,0,2,selected,3-12,6-15;3-8;6-13;2-17;9-12;0-15,6-13,4.26,33,7,954.072393079
GEMS129,2018_Mar_07_1304,Elaine,sf,orientation,8,6,2,SimpleHill,0-0,0,3,selected,6-13,0-18;5-19;12-9;7-12;13-11;3-6,13-11,3.57,42,9,961.209283835
GEMS129,2018_Mar_07_1304,Elaine,sf,orientation,8,6,2,SimpleHill,0-0,0,4,selected,13-11,17-13;16-9;20-14;10-18;8-13;11-17,17-13,3.8,50,8,968.581601019
GEMS129,2018_Mar_07_1304,Elaine,sf,orientation,8,6,2,SimpleHill,0-0,0,5,selected,17-13,23-16;18-14;18-18;22-8;15-14;17-18,18-18,4.83,59,9,976.975609912
GEMS129,2018_Mar_07_1304,Elaine,sf,orientation,8,6,2,SimpleHill,0-0,0,6,selected,18-18,23-16;24-16;15-21;15-16;15-17;17-17,23-16,3.72,62,3,984.268247433
GEMS129,2018_Mar_07_1304,Elaine,sf,orientation,8,6,2,SimpleHill,0-0,0,7,selected,23-16,20-20;18-21;17-19;25-16;21-9;19-17,19-17,8.97,59,-3,996.799375948
GEMS129,2018_Mar_07_1304,Elaine,sf,orientation,8,6,2,SimpleHill,0-0,0,8,selected,19-17,27-17;25-17;15-11;26-15;15-15;13-16,27-17,4.07,67,8,1004.44141171
GEMS129,2018_Mar_07_1304,Elaine,sf,orientation,8,6,2,SimpleHill,0-0,0,9,selected,27-17,28-19;23-14;24-20;29-22;27-13;31-22,31-22,6.83,77,10,1014.84457301
GEMS129,2018_Mar_07_1304,Elaine,sf,orientation,8,6,2,SimpleHill,0-0,0,10,selected,31-22,34-19;25-23;34-16;31-29;31-19;27-25,31-19,7.89,73,-4,1026.3161736
GEMS129,2018_Mar_07_1304,Elaine,sf,orientation,8,6,2,SimpleHill,0-0,0,11,selected,31-19,25-14;34-14;37-23;34-23;28-23;30-21,34-14,11.05,68,-5,1040.94874199
GEMS129,2018_Mar_07_1304,Elaine,sf,orientation,8,6,2,SimpleHill,0-0,0,12,selected,34-14,38-17;33-7;40-19;33-11;32-20;29-11,38-17,4.88,75,7,1049.40315522
GEMS129,2018_Mar_07_1304,Elaine,sf,orientation,8,6,2,SimpleHill,0-0,0,13,selected,38-17,39-22;38-10;43-17;39-19;40-15;44-16,39-22,1.04,81,6,1054.02350151
GEMS129,2018_Mar_07_1304,Elaine,sf,orientation,8,6,2,SimpleHill,0-0,0,14,selected,39-22,42-26;44-19;44-21;40-18;37-17;39-15,42-26,0.42,87,6,1058.01585002
GEMS129,2018_Mar_07_1304,Elaine,sf,orientation,8,6,2,SimpleHill,0-0,0,15,selected,42-26,38-29;37-22;36-26;40-25;37-27;40-29,38-29,0.34,88,1,1061.94790143
GEMS129,2018_Mar_07_1304,Elaine,sf,orientation,8,6,2,SimpleHill,0-0,0,16,selected,38-29,40-32;33-31;37-26;41-28;43-30;33-33,40-32,0.65,91,3,1066.16467318
GEMS129,2018_Mar_07_1304,Elaine,sf,orientation,8,6,2,SimpleHill,0-0,0,17,selected,40-32,40-33;38-31;43-38;47-33;37-29;38-29,40-33,0.48,92,1,1070.21076554
GEMS129,2018_Mar_07_1304,Elaine,sf,orientation,8,6,2,SimpleHill,0-0,0,18,selected,40-33,44-28;34-36;36-39;37-40;42-40;44-29,34-36,1.68,90,-2,1075.4535557
GEMS129,2018_Mar_07_1304,Elaine,sf,orientation,8,6,2,SimpleHill,0-0,0,19,selected,34-36,29-35;38-36;29-33;36-37;31-29;37-42,29-35,0.31,86,-4,1079.33758843
GEMS129,2018_Mar_07_1304,Elaine,sf,orientation,8,6,2,SimpleHill,0-0,0,20,selected,29-35,23-36;23-38;28-34;32-28;30-42;34-33,34-33,4.18,89,3,1087.09180093
GEMS129,2018_Mar_07_1304,Elaine,sf,orientation,8,6,2,SimpleHill,0-0,0,21,selected,34-33,36-26;33-30;30-37;33-33;30-39;28-38,36-26,5.46,84,-5,1096.12139476
GEMS129,2018_Mar_07_1304,Elaine,sf,orientation,8,6,2,SimpleHill,0-0,0,22,selected,36-26,39-29;33-30;36-33;43-24;39-20;31-32,39-29,6.62,88,4,1106.30042729
GEMS129,2018_Mar_07_1304,Elaine,sf,orientation,8,6,2,SimpleHill,0-0,0,23,selected,39-29,46-26;43-28;35-29;40-29;39-28;38-30,39-28,5.09,87,-1,1114.95974613
GEMS129,2018_Mar_07_1304,Elaine,sf,orientation,8,6,2,SimpleHill,0-0,0,24,selected,39-28,36-28;41-34;35-32;36-34;43-23;36-35,41-34,4.1,93,6,1122.61250019
GEMS129,2018_Mar_07_1304,Elaine,sf,orientation,8,6,2,SimpleHill,0-0,0,25,selected,41-34,45-39;38-29;40-29;45-28;40-35;37-30,45-39,5.45,97,4,1131.64094137
GEMS129,2018_Mar_07_1304,Elaine,sf,orientation,8,6,2,SimpleHill,0-0,0,26,selected,45-39,46-33;43-34;50-40;45-45;41-41;45-40,45-40,9.85,97,0,1145.07603893
GEMS129,2018_Mar_07_1304,Elaine,sf,orientation,8,6,2,SimpleHill,0-0,0,27,selected,45-40,52-38;48-35;52-39;48-41;52-40;39-39,52-40,7.27,97,0,1155.91208051
GEMS129,2018_Mar_07_1304,Elaine,sf,orientation,8,6,2,SimpleHill,0-0,0,28,selected,52-40,52-33;48-40;46-38;54-41;49-37;59-41,54-41,7.86,98,1,1167.34767871
GEMS129,2018_Mar_07_1304,Elaine,sf,orientation,8,6,2,SimpleHill,0-0,0,29,selected,54-41,49-40;57-43;59-40;49-46;54-44;61-38,61-38,3.52,94,-4,1174.43942554
GEMS129,2018_Mar_07_1304,Elaine,sf,orientation,8,6,2,SimpleHill,0-0,0,30,selected,61-38,60-44;66-43;68-41;57-42;62-43;60-42,57-42,8.79,97,3,1186.78046424
GEMS129,2018_Mar_07_1304,Elaine,sf,orientation,8,6,2,SimpleHill,0-0,0,31,selected,57-42,51-42;54-40;56-42;63-38;60-36;58-44,63-38,5.46,93,-4,1195.81211915
GEMS129,2018_Mar_07_1304,Elaine,sf,orientation,8,6,2,SimpleHill,0-0,0,32,selected,63-38,61-42;63-31;60-41;64-44;70-39;66-31,60-41,14.08,96,3,1213.46687443
GEMS129,2018_Mar_07_1304,Elaine,sf,orientation,8,6,2,SimpleHill,0-0,0,33,selected,60-41,56-45;58-46;61-47;64-47;62-46;65-40,56-45,2.08,98,2,1219.10678702
GEMS129,2018_Mar_07_1304,Elaine,sf,orientation,8,6,2,SimpleHill,0-0,0,34,selected,56-45,58-50;57-48;63-44;61-44;51-45;62-44,57-48,2.95,98,0,1225.62096727
GEMS129,2018_Mar_07_1304,Elaine,sf,orientation,8,6,2,SimpleHill,0-0,0,35,selected,57-48,50-50;52-53;54-44;52-45;52-49;60-54,50-50,4.44,100,2,1233.616985
GEMS129,2018_Mar_07_1304,Elaine,sf,orientation,8,6,2,SimpleHill,0-0,0,36,selected,50-50,55-46;54-50;46-47;47-47;48-48;56-55,54-50,3.5,99,-1,1240.68492304
GEMS129,2018_Mar_07_1304,Elaine,sf,orientation,8,6,2,SimpleHill,0-0,0,37,selected,54-50,53-57;55-50;50-56;57-45;55-48;59-47,53-57,2.04,98,-1,1246.30011072
GEMS129,2018_Mar_07_1304,Elaine,sf,orientation,8,6,2,SimpleHill,0-0,0,38,selected,53-57,52-63;50-56;47-57;51-53;54-59;52-52,52-52,10.18,99,1,1260.04891525
GEMS129,2018_Mar_07_1304,Elaine,sf,orientation,8,6,2,SimpleHill,0-0,0,39,selected,52-52,51-55;53-49;58-54;48-48;56-57;46-47,51-55,4.09,99,0,1267.68968633
GEMS129,2018_Mar_07_1304,Elaine,sf,orientation,8,6,3,SimpleHill,0-0,0,0,selected,0-0,6-3;7-2;0-3;6-4;7-3;3-6,6-3,5.71,17,17,1284.93281323
GEMS129,2018_Mar_07_1304,Elaine,sf,orientation,8,6,3,SimpleHill,0-0,0,1,selected,6-3,4-5;11-3;12-0;6-7;5-10;1-8,11-3,4.07,25,8,1292.56958411
GEMS129,2018_Mar_07_1304,Elaine,sf,orientation,8,6,3,SimpleHill,0-0,0,2,selected,11-3,12-9;6-5;17-0;7-4;15-7;14-8,14-8,8.39,38,13,1304.54440339
GEMS129,2018_Mar_07_1304,Elaine,sf,orientation,8,6,3,SimpleHill,0-0,0,3,selected,14-8,18-7;9-6;8-8;12-3;12-12;12-7,18-7,2.98,42,4,1311.10185983
GEMS129,2018_Mar_07_1304,Elaine,sf,orientation,8,6,3,SimpleHill,0-0,0,4,selected,18-7,11-5;18-13;15-5;12-8;19-11;22-6,11-5,0.81,29,-13,1315.48457138
GEMS129,2018_Mar_07_1304,Elaine,sf,orientation,8,6,3,SimpleHill,0-0,0,5,selected,11-5,10-10;17-8;16-11;15-8;10-2;10-12,17-8,6.75,42,13,1325.81555534
GEMS129,2018_Mar_07_1304,Elaine,sf,orientation,8,6,3,SimpleHill,0-0,0,6,selected,17-8,20-10;22-6;22-7;15-14;14-7;16-6,14-7,9.62,37,-5,1338.98846195
GEMS129,2018_Mar_07_1304,Elaine,sf,orientation,8,6,3,SimpleHill,0-0,0,7,selected,14-7,10-6;12-2;18-9;11-5;10-10;14-6,18-9,2.25,45,8,1344.80572306
GEMS129,2018_Mar_07_1304,Elaine,sf,orientation,8,6,3,SimpleHill,0-0,0,8,selected,18-9,16-3;13-11;17-3;14-8;21-3;13-9,16-3,4.57,32,-13,1352.94113563
GEMS129,2018_Mar_07_1304,Elaine,sf,orientation,8,6,3,SimpleHill,0-0,0,9,selected,16-3,22-6;10-2;11-0;18-10;16-11;13-8,22-6,1.64,45,13,1358.15013362
GEMS129,2018_Mar_07_1304,Elaine,sf,orientation,8,6,3,SimpleHill,0-0,0,10,selected,22-6,26-3;20-7;21-5;16-5;22-6;18-5,22-6,3.83,45,0,1365.56560632
GEMS129,2018_Mar_07_1304,Elaine,sf,orientation,8,6,3,SimpleHill,0-0,0,11,selected,22-6,19-13;17-0;21-13;17-7;30-6;21-0,30-6,2.76,53,8,1371.89282727
GEMS129,2018_Mar_07_1304,Elaine,sf,orientation,8,6,3,SimpleHill,0-0,0,12,selected,30-6,24-8;32-5;24-6;28-6;33-0;35-8,28-6,3.73,51,-2,1379.18498881
GEMS129,2018_Mar_07_1304,Elaine,sf,orientation,8,6,3,SimpleHill,0-0,0,13,selected,28-6,23-9;29-9;30-12;26-1;26-11;31-0,23-9,2.75,51,0,1385.52281987
GEMS129,2018_Mar_07_1304,Elaine,sf,orientation,8,6,3,SimpleHill,0-0,0,14,selected,23-9,20-6;23-13;24-10;16-6;22-13;20-12,23-13,0.99,58,7,1390.06685068
GEMS129,2018_Mar_07_1304,Elaine,sf,orientation,8,6,3,SimpleHill,0-0,0,15,selected,23-13,21-10;21-7;22-17;18-11;25-16;19-10,22-17,0.63,62,4,1394.27025505
GEMS129,2018_Mar_07_1304,Elaine,sf,orientation,8,6,3,SimpleHill,0-0,0,16,selected,22-17,21-10;20-23;26-22;16-14;24-24;28-16,20-23,3.46,67,5,1401.30605196
GEMS129,2018_Mar_07_1304,Elaine,sf,orientation,8,6,3,SimpleHill,0-0,0,17,selected,20-23,21-16;17-27;19-19;14-24;22-27;24-23,19-19,0.52,61,-6,1405.37630106
GEMS129,2018_Mar_07_1304,Elaine,sf,orientation,8,6,3,SimpleHill,0-0,0,18,selected,19-19,22-25;19-27;22-14;13-23;14-15;12-19,22-14,5.79,58,-3,1414.72721013
GEMS129,2018_Mar_07_1304,Elaine,sf,orientation,8,6,3,SimpleHill,0-0,0,19,selected,22-14,18-19;22-20;18-20;28-16;18-18;15-16,28-16,2.33,67,9,1420.62074769
GEMS129,2018_Mar_07_1304,Elaine,sf,orientation,8,6,3,SimpleHill,0-0,0,20,selected,28-16,29-20;27-18;21-15;21-16;24-20;30-9,29-20,8.11,73,6,1432.29263496
GEMS129,2018_Mar_07_1304,Elaine,sf,orientation,8,6,3,SimpleHill,0-0,0,21,selected,29-20,32-22;28-27;26-16;29-27;27-18;35-16,27-18,3.18,68,-5,1439.05240874
GEMS129,2018_Mar_07_1304,Elaine,sf,orientation,8,6,3,SimpleHill,0-0,0,22,selected,27-18,27-26;27-14;24-11;26-20;27-18;22-20,27-18,6.11,68,0,1448.72649857
GEMS129,2018_Mar_07_1304,Elaine,sf,orientation,8,6,3,SimpleHill,0-0,0,23,selected,27-18,21-16;24-24;23-23;23-17;32-20;28-18,28-18,2.01,69,1,1454.30927337
GEMS129,2018_Mar_07_1304,Elaine,sf,orientation,8,6,3,SimpleHill,0-0,0,24,selected,28-18,27-12;23-12;32-23;28-24;29-20;21-21,27-12,1.43,60,-9,1459.32557056
GEMS129,2018_Mar_07_1304,Elaine,sf,orientation,8,6,3,SimpleHill,0-0,0,25,selected,27-12,29-15;34-12;22-7;26-6;28-15;29-8,29-8,3.56,55,-5,1466.46424263
GEMS129,2018_Mar_07_1304,Elaine,sf,orientation,8,6,3,SimpleHill,0-0,0,26,selected,29-8,25-13;29-14;27-4;27-10;22-5;26-7,26-7,4.32,51,-4,1474.36936849
GEMS129,2018_Mar_07_1304,Elaine,sf,orientation,8,6,3,SimpleHill,0-0,0,27,selected,26-7,28-5;29-2;28-10;24-1;29-8;30-1,29-8,1.06,55,4,1479.01484877
GEMS129,2018_Mar_07_1304,Elaine,sf,orientation,8,6,3,SimpleHill,0-0,0,28,selected,29-8,26-13;28-10;27-1;30-11;30-7;26-4,28-10,2.83,58,3,1485.42201539
GEMS129,2018_Mar_07_1304,Elaine,sf,orientation,8,6,3,SimpleHill,0-0,0,29,selected,28-10,26-5;27-6;31-16;26-3;27-11;28-3,31-16,2.48,69,11,1491.48528263
GEMS129,2018_Mar_07_1304,Elaine,sf,orientation,8,6,3,SimpleHill,0-0,0,30,selected,31-16,26-21;38-18;30-14;27-22;28-18;35-10,26-21,2.64,71,2,1497.70896742
GEMS129,2018_Mar_07_1304,Elaine,sf,orientation,8,6,3,SimpleHill,0-0,0,31,selected,26-21,23-21;33-19;22-17;27-23;24-26;20-21,24-26,6.7,74,3,1507.97405266
GEMS129,2018_Mar_07_1304,Elaine,sf,orientation,8,6,3,SimpleHill,0-0,0,32,selected,24-26,18-23;17-27;21-19;18-29;21-22;20-20,18-23,6.96,64,-10,1518.51293638
GEMS129,2018_Mar_07_1304,Elaine,sf,orientation,8,6,3,SimpleHill,0-0,0,33,selected,18-23,21-27;11-23;14-21;12-25;23-27;12-20,21-27,1.52,72,8,1523.61428566
GEMS129,2018_Mar_07_1304,Elaine,sf,orientation,8,6,3,SimpleHill,0-0,0,34,selected,21-27,16-30;24-29;23-22;15-29;28-29;17-27,28-29,2.69,81,9,1529.86938914
GEMS129,2018_Mar_07_1304,Elaine,sf,orientation,8,6,3,SimpleHill,0-0,0,35,selected,28-29,25-22;29-34;34-32;25-28;27-25;33-30,27-25,0.38,76,-5,1533.81503647
GEMS129,2018_Mar_07_1304,Elaine,sf,orientation,8,6,3,SimpleHill,0-0,0,36,selected,27-25,29-27;25-19;21-27;27-30;29-28;26-26,29-27,0.36,80,4,1537.73232489
GEMS129,2018_Mar_07_1304,Elaine,sf,orientation,8,6,3,SimpleHill,0-0,0,37,selected,29-27,28-34;32-21;36-30;24-31;33-22;32-28,32-28,0.24,83,3,1541.54765169
GEMS129,2018_Mar_07_1304,Elaine,sf,orientation,8,6,3,SimpleHill,0-0,0,38,selected,32-28,34-34;28-25;36-25;37-32;26-29;30-31,36-25,0.32,83,0,1545.43387449
GEMS129,2018_Mar_07_1304,Elaine,sf,orientation,8,6,3,SimpleHill,0-0,0,39,selected,36-25,32-21;36-26;40-30;33-24;43-27;38-29,36-26,0.46,84,1,1549.4561286
GEMS129,2018_Mar_07_1304,Elaine,sf,orientation,8,6,4,SimpleHill,0-0,0,0,selected,0-0,0-0;0-2;7-3;6-2;3-2;4-3,7-3,3.13,18,18,1561.7993465
GEMS129,2018_Mar_07_1304,Elaine,sf,orientation,8,6,4,SimpleHill,0-0,0,1,selected,7-3,7-10;1-8;4-7;10-0;14-5;2-9,7-10,1.37,31,13,1566.7322932
GEMS129,2018_Mar_07_1304,Elaine,sf,orientation,8,6,4,SimpleHill,0-0,0,2,selected,7-10,6-3;3-12;4-13;14-9;11-9;11-10,14-9,2.71,40,9,1573.02783588
GEMS129,2018_Mar_07_1304,Elaine,sf,orientation,8,6,4,SimpleHill,0-0,0,3,selected,14-9,16-6;12-7;19-10;16-16;14-9;16-4,16-16,3.74,53,13,1580.32802439
GEMS129,2018_Mar_07_1304,Elaine,sf,orientation,8,6,4,SimpleHill,0-0,0,4,selected,16-16,19-18;11-22;11-18;13-12;20-19;21-15,19-18,0.86,60,7,1584.7479835
GEMS129,2018_Mar_07_1304,Elaine,sf,orientation,8,6,4,SimpleHill,0-0,0,5,selected,19-18,23-18;14-13;22-11;23-17;16-21;22-21,22-21,2.14,67,7,1590.45405664
GEMS129,2018_Mar_07_1304,Elaine,sf,orientation,8,6,4,SimpleHill,0-0,0,6,selected,22-21,27-26;24-21;16-23;27-21;26-19;24-19,27-26,2.64,77,10,1596.66094267
GEMS129,2018_Mar_07_1304,Elaine,sf,orientation,8,6,4,SimpleHill,0-0,0,7,selected,27-26,28-22;22-27;24-24;28-21;27-24;28-24,28-22,3.46,74,-3,1603.68466856
GEMS129,2018_Mar_07_1304,Elaine,sf,orientation,8,6,4,SimpleHill,0-0,0,8,selected,28-22,34-20;31-15;27-20;26-24;33-19;23-22,33-19,1.42,75,1,1608.65389487
GEMS129,2018_Mar_07_1304,Elaine,sf,orientation,8,6,4,SimpleHill,0-0,0,9,selected,33-19,32-13;35-15;32-12;33-21;41-19;35-26,35-15,2.54,71,-4,1614.7507507
GEMS129,2018_Mar_07_1304,Elaine,sf,orientation,8,6,4,SimpleHill,0-0,0,10,selected,35-15,29-12;39-20;35-21;34-18;34-20;37-17,37-17,3.06,74,3,1621.35414297
GEMS129,2018_Mar_07_1304,Elaine,sf,orientation,8,6,4,SimpleHill,0-0,0,11,selected,37-17,37-17;40-12;39-23;38-15;40-13;44-18,37-17,2.54,74,0,1627.46249364
GEMS129,2018_Mar_07_1304,Elaine,sf,orientation,8,6,4,SimpleHill,0-0,0,12,selected,37-17,42-14;32-23;37-15;30-20;36-13;31-12,36-13,4.69,68,-6,1635.73285721
GEMS129,2018_Mar_07_1304,Elaine,sf,orientation,8,6,4,SimpleHill,0-0,0,13,selected,36-13,40-7;43-10;41-16;43-13;37-13;38-6,40-7,3.68,61,-7,1642.97629107
GEMS129,2018_Mar_07_1304,Elaine,sf,orientation,8,6,4,SimpleHill,0-0,0,14,selected,40-7,46-8;44-3;43-12;42-9;40-12;44-9,44-9,0.56,65,4,1647.11993514
GEMS129,2018_Mar_07_1304,Elaine,sf,orientation,8,6,4,SimpleHill,0-0,0,15,selected,44-9,37-6;37-7;45-9;43-13;48-11;40-13,43-13,1.19,71,6,1651.87636523
GEMS129,2018_Mar_07_1304,Elaine,sf,orientation,8,6,4,SimpleHill,0-0,0,16,selected,43-13,46-14;48-18;36-13;38-9;43-10;49-12,43-10,1.8,67,-4,1657.23897145
GEMS129,2018_Mar_07_1304,Elaine,sf,orientation,8,6,4,SimpleHill,0-0,0,17,selected,43-10,44-8;45-10;47-15;41-5;48-11;37-7,44-8,1.06,64,-3,1661.87061285
GEMS129,2018_Mar_07_1304,Elaine,sf,orientation,8,6,4,SimpleHill,0-0,0,18,selected,44-8,45-3;44-10;38-9;46-14;48-7;46-6,46-14,3.23,73,9,1668.67252649
GEMS129,2018_Mar_07_1304,Elaine,sf,orientation,8,6,4,SimpleHill,0-0,0,19,selected,46-14,41-11;53-17;44-11;54-14;49-18;40-15,53-17,2.44,78,5,1674.68063444
GEMS129,2018_Mar_07_1304,Elaine,sf,orientation,8,6,4,SimpleHill,0-0,0,20,selected,53-17,53-14;59-14;50-18;55-11;56-11;52-23,56-11,5.02,68,-10,1683.26781339
GEMS129,2018_Mar_07_1304,Elaine,sf,orientation,8,6,4,SimpleHill,0-0,0,21,selected,56-11,58-11;52-17;63-13;55-16;56-17;50-13,58-11,2.74,68,0,1689.56737579
GEMS129,2018_Mar_07_1304,Elaine,sf,orientation,8,6,4,SimpleHill,0-0,0,22,selected,58-11,59-7;63-15;56-7;62-7;55-5;53-11,63-15,1.95,72,4,1695.07627036
GEMS129,2018_Mar_07_1304,Elaine,sf,orientation,8,6,4,SimpleHill,0-0,0,23,selected,63-15,66-18;60-14;63-16;65-14;70-15;58-10,60-14,0.82,72,0,1699.45800274
GEMS129,2018_Mar_07_1304,Elaine,sf,orientation,8,6,4,SimpleHill,0-0,0,24,selected,60-14,65-14;62-11;65-18;60-19;65-20;65-17,62-11,4.27,66,-6,1707.26944394
GEMS129,2018_Mar_07_1304,Elaine,sf,orientation,8,6,4,SimpleHill,0-0,0,25,selected,62-11,65-13;67-15;61-13;57-6;65-9;56-13,56-13,1.52,71,5,1712.34954036
GEMS129,2018_Mar_07_1304,Elaine,sf,orientation,8,6,4,SimpleHill,0-0,0,26,selected,56-13,63-15;56-19;59-6;61-12;61-15;62-15,56-19,2.16,80,9,1718.07687021
GEMS129,2018_Mar_07_1304,Elaine,sf,orientation,8,6,4,SimpleHill,0-0,0,27,selected,56-19,56-21;53-13;49-19;56-18;53-19;56-11,56-21,1.8,82,2,1723.45496091
GEMS129,2018_Mar_07_1304,Elaine,sf,orientation,8,6,4,SimpleHill,0-0,0,28,selected,56-21,61-19;57-27;58-21;60-20;56-26;59-26,57-27,2.74,88,6,1729.75460653
GEMS129,2018_Mar_07_1304,Elaine,sf,orientation,8,6,4,SimpleHill,0-0,0,29,selected,57-27,60-26;50-24;59-23;59-28;58-34;53-28,59-23,2.12,83,-5,1735.42732508
GEMS129,2018_Mar_07_1304,Elaine,sf,orientation,8,6,4,SimpleHill,0-0,0,30,selected,59-23,60-24;58-16;62-22;54-18;58-17;55-17,60-24,2.87,84,1,1741.86674421
GEMS129,2018_Mar_07_1304,Elaine,sf,orientation,8,6,4,SimpleHill,0-0,0,31,selected,60-24,59-23;56-29;64-30;55-28;55-27;63-20,55-27,3.39,88,4,1748.83207948
GEMS129,2018_Mar_07_1304,Elaine,sf,orientation,8,6,4,SimpleHill,0-0,0,32,selected,55-27,57-30;50-21;52-21;60-31;53-21;51-24,60-31,6.85,90,2,1759.26010044
GEMS129,2018_Mar_07_1304,Elaine,sf,orientation,8,6,4,SimpleHill,0-0,0,33,selected,60-31,62-36;55-31;66-34;52-31;54-34;67-31,62-36,2.68,93,3,1765.50394818
GEMS129,2018_Mar_07_1304,Elaine,sf,orientation,8,6,4,SimpleHill,0-0,0,34,selected,62-36,58-34;56-35;67-37;63-37;57-35;64-34,63-37,2.44,93,0,1771.49647338
GEMS129,2018_Mar_07_1304,Elaine,sf,orientation,8,6,4,SimpleHill,0-0,0,35,selected,63-37,64-40;60-31;56-40;70-39;66-37;64-32,56-40,3.24,97,4,1778.31672096
GEMS129,2018_Mar_07_1304,Elaine,sf,orientation,8,6,4,SimpleHill,0-0,0,36,selected,56-40,56-37;58-47;53-42;51-38;57-35;58-38,56-37,1.06,95,-2,1782.94861875
GEMS129,2018_Mar_07_1304,Elaine,sf,orientation,8,6,4,SimpleHill,0-0,0,37,selected,56-37,60-32;63-35;55-31;51-41;60-34;56-31,63-35,9.95,92,-3,1796.47702392
GEMS129,2018_Mar_07_1304,Elaine,sf,orientation,8,6,4,SimpleHill,0-0,0,38,selected,63-35,64-33;67-41;69-34;60-29;68-40;68-39,64-33,0.66,90,-2,1800.71320993
GEMS129,2018_Mar_07_1304,Elaine,sf,orientation,8,6,4,SimpleHill,0-0,0,39,selected,64-33,66-27;66-34;61-40;61-39;64-25;67-28,61-39,0.89,95,5,1805.1563559
