subj_id,date,computer,experimenter,version,generation,inherit_from,sight_radius,n_gabors,block_ix,landscape_ix,landscape_name,starting_pos,starting_score,trial,pos,stims,selected,rt,score,delta,exp_time
GEMS293,2018_Nov_26_1126,Jerry,SF,1.5,2,GEMS000,10,6,1,1,SimpleHill,0-0,1,0,0-0,3-7;5-8;0-0;6-4;4-1;4-4,5-8,9.47,25,24,197.392053253
GEMS293,2018_Nov_26_1126,Jerry,SF,1.5,2,GEMS000,10,6,1,1,SimpleHill,0-0,1,1,5-8,7-17;0-5;13-3;7-2;6-11;6-1,13-3,9.5,29,4,211.01145163299998
GEMS293,2018_Nov_26_1126,Jerry,SF,1.5,2,GEMS000,10,6,1,1,SimpleHill,0-0,1,2,13-3,11-6;19-11;7-11;7-4;9-7;12-4,19-11,12.33,51,22,227.389841413
GEMS293,2018_Nov_26_1126,Jerry,SF,1.5,2,GEMS000,10,6,1,1,SimpleHill,0-0,1,3,19-11,18-14;16-16;18-19;11-17;20-13;15-20,20-13,4.18,55,4,235.64321935
GEMS293,2018_Nov_26_1126,Jerry,SF,1.5,2,GEMS000,10,6,1,1,SimpleHill,0-0,1,4,20-13,20-8;28-14;17-5;22-5;26-8;27-11,20-8,11.59,47,-8,251.31897867400002
GEMS293,2018_Nov_26_1126,Jerry,SF,1.5,2,GEMS000,10,6,1,1,SimpleHill,0-0,1,5,20-8,26-5;14-9;21-0;30-8;28-14;13-3,30-8,4.72,57,10,260.102307676
GEMS293,2018_Nov_26_1126,Jerry,SF,1.5,2,GEMS000,10,6,1,1,SimpleHill,0-0,1,6,30-8,38-7;24-4;37-12;33-6;26-5;22-13,33-6,3.28,56,-1,267.448189172
GEMS293,2018_Nov_26_1126,Jerry,SF,1.5,2,GEMS000,10,6,1,1,SimpleHill,0-0,1,7,33-6,39-9;28-6;24-7;32-7;36-3;32-1,28-6,5.73,52,-4,277.248671296
GEMS293,2018_Nov_26_1126,Jerry,SF,1.5,2,GEMS000,10,6,1,1,SimpleHill,0-0,1,8,28-6,36-0;31-0;33-0;25-6;23-13;29-0,25-6,9.11,49,-3,290.417265987
GEMS293,2018_Nov_26_1126,Jerry,SF,1.5,2,GEMS000,10,6,1,1,SimpleHill,0-0,1,9,25-6,23-2;29-2;30-8;27-8;22-4;21-12,21-12,5.12,55,6,299.619115418
GEMS293,2018_Nov_26_1126,Jerry,SF,1.5,2,GEMS000,10,6,1,1,SimpleHill,0-0,1,10,21-12,16-6;21-4;22-15;19-21;15-4;25-10,25-10,8.93,56,1,312.624530744
GEMS293,2018_Nov_26_1126,Jerry,SF,1.5,2,GEMS000,10,6,1,1,SimpleHill,0-0,1,11,25-10,26-15;24-3;31-4;22-4;24-9;19-3,24-9,12.97,53,-3,329.663724802
GEMS293,2018_Nov_26_1126,Jerry,SF,1.5,2,GEMS000,10,6,1,1,SimpleHill,0-0,1,12,24-9,20-6;19-10;18-12;27-14;32-15;29-4,29-4,4.45,49,-4,338.187858184
GEMS293,2018_Nov_26_1126,Jerry,SF,1.5,2,GEMS000,10,6,1,1,SimpleHill,0-0,1,13,29-4,23-1;28-8;27-11;21-5;21-10;33-4,28-8,3.31,56,7,345.5788989840001
GEMS293,2018_Nov_26_1126,Jerry,SF,1.5,2,GEMS000,10,6,1,1,SimpleHill,0-0,1,14,28-8,31-17;26-14;29-9;29-4;24-17;36-8,24-17,2.78,65,9,352.415425774
GEMS293,2018_Nov_26_1126,Jerry,SF,1.5,2,GEMS000,10,6,1,1,SimpleHill,0-0,1,15,24-17,21-26;21-16;20-17;18-19;20-20;26-15,21-26,4.97,72,7,361.440135642
GEMS293,2018_Nov_26_1126,Jerry,SF,1.5,2,GEMS000,10,6,1,1,SimpleHill,0-0,1,16,21-26,30-26;24-32;22-35;12-24;14-28;27-23,14-28,6.14,65,-7,371.66190955699994
GEMS293,2018_Nov_26_1126,Jerry,SF,1.5,2,GEMS000,10,6,1,1,SimpleHill,0-0,1,17,14-28,17-31;7-25;5-29;6-29;18-26;9-27,18-26,3.79,69,4,379.521289038
GEMS293,2018_Nov_26_1126,Jerry,SF,1.5,2,GEMS000,10,6,1,1,SimpleHill,0-0,1,18,18-26,26-20;15-34;24-20;19-29;23-27;23-26,15-34,8.39,71,2,391.97036422699995
GEMS293,2018_Nov_26_1126,Jerry,SF,1.5,2,GEMS000,10,6,1,1,SimpleHill,0-0,1,19,15-34,10-28;12-40;22-27;15-31;14-40;18-27,14-40,5.65,73,2,401.70147780300005
GEMS293,2018_Nov_26_1126,Jerry,SF,1.5,2,GEMS000,10,6,1,1,SimpleHill,0-0,1,20,14-40,12-36;14-45;7-47;13-38;9-38;10-41,13-38,3.3,70,-3,409.07139217199995
GEMS293,2018_Nov_26_1126,Jerry,SF,1.5,2,GEMS000,10,6,1,1,SimpleHill,0-0,1,21,13-38,20-35;22-34;5-32;14-47;8-46;9-43,8-46,2.81,65,-5,415.95483109300005
GEMS293,2018_Nov_26_1126,Jerry,SF,1.5,2,GEMS000,10,6,1,1,SimpleHill,0-0,1,22,8-46,7-37;12-55;10-47;0-49;5-47;5-51,5-51,7.18,60,-5,427.22711626
GEMS293,2018_Nov_26_1126,Jerry,SF,1.5,2,GEMS000,10,6,1,1,SimpleHill,0-0,1,23,5-51,10-47;14-52;4-49;3-43;4-44;9-46,3-43,3.56,55,-5,434.843176394
GEMS293,2018_Nov_26_1126,Jerry,SF,1.5,2,GEMS000,10,6,1,1,SimpleHill,0-0,1,24,3-43,2-34;0-44;9-45;8-41;1-40;8-45,8-45,3.32,65,10,442.243376644
GEMS293,2018_Nov_26_1126,Jerry,SF,1.5,2,GEMS000,10,6,1,1,SimpleHill,0-0,1,25,8-45,15-41;15-47;1-48;0-41;9-37;13-39,9-37,3.41,64,-1,449.703591055
GEMS293,2018_Nov_26_1126,Jerry,SF,1.5,2,GEMS000,10,6,1,1,SimpleHill,0-0,1,26,9-37,15-43;1-39;6-44;4-37;15-36;5-46,6-44,2.56,61,-3,456.34067327
GEMS293,2018_Nov_26_1126,Jerry,SF,1.5,2,GEMS000,10,6,1,1,SimpleHill,0-0,1,27,6-44,6-48;8-51;15-46;6-34;5-51;1-39,15-46,3.74,76,15,464.15473372099996
GEMS293,2018_Nov_26_1126,Jerry,SF,1.5,2,GEMS000,10,6,1,1,SimpleHill,0-0,1,28,15-46,6-42;17-52;11-49;17-44;20-38;23-41,17-44,10.06,78,2,478.28260527199996
GEMS293,2018_Nov_26_1126,Jerry,SF,1.5,2,GEMS000,10,6,1,1,SimpleHill,0-0,1,29,17-44,11-45;17-47;26-48;24-50;17-50;24-43,17-50,3.13,79,1,485.480523646
GEMS293,2018_Nov_26_1126,Jerry,SF,1.5,2,GEMS000,10,6,1,1,SimpleHill,0-0,1,30,17-50,10-48;18-55;10-46;22-45;20-51;22-52,20-51,3.48,82,3,493.035345585
GEMS293,2018_Nov_26_1126,Jerry,SF,1.5,2,GEMS000,10,6,1,1,SimpleHill,0-0,1,31,20-51,23-44;19-46;27-50;12-52;17-47;17-44,12-52,4.2,72,-10,501.32082080699996
GEMS293,2018_Nov_26_1126,Jerry,SF,1.5,2,GEMS000,10,6,1,1,SimpleHill,0-0,1,32,12-52,17-45;9-57;7-45;18-47;15-59;13-57,15-59,5.05,74,2,510.43682044300004
GEMS293,2018_Nov_26_1126,Jerry,SF,1.5,2,GEMS000,10,6,1,1,SimpleHill,0-0,1,33,15-59,16-53;20-54;9-57;20-51;19-52;21-62,21-62,5.68,81,7,520.194594532
GEMS293,2018_Nov_26_1126,Jerry,SF,1.5,2,GEMS000,10,6,1,1,SimpleHill,0-0,1,34,21-62,19-59;13-58;24-57;25-64;29-63;28-57,25-64,5.71,84,3,529.9646861040001
GEMS293,2018_Nov_26_1126,Jerry,SF,1.5,2,GEMS000,10,6,1,1,SimpleHill,0-0,1,35,25-64,21-66;22-67;28-59;26-57;28-68;19-57,22-67,5.09,79,-5,539.1089159869999
GEMS293,2018_Nov_26_1126,Jerry,SF,1.5,2,GEMS000,10,6,1,1,SimpleHill,0-0,1,36,22-67,25-60;18-58;18-62;14-65;26-58;29-60,14-65,2.98,70,-9,546.154290713
GEMS293,2018_Nov_26_1126,Jerry,SF,1.5,2,GEMS000,10,6,1,1,SimpleHill,0-0,1,37,14-65,15-61;8-57;22-66;7-67;7-68;10-56,7-68,3.76,57,-13,553.978459689
GEMS293,2018_Nov_26_1126,Jerry,SF,1.5,2,GEMS000,10,6,1,1,SimpleHill,0-0,1,38,7-68,16-65;15-65;3-63;7-61;7-64;2-70,7-64,1.98,60,3,560.0225473219999
GEMS293,2018_Nov_26_1126,Jerry,SF,1.5,2,GEMS000,10,6,1,1,SimpleHill,0-0,1,39,7-64,11-55;12-56;5-66;14-58;2-69;6-63,2-69,2.36,47,-13,566.459516929
GEMS293,2018_Nov_26_1126,Jerry,SF,1.5,2,GEMS000,10,6,1,1,SimpleHill,0-0,1,40,2-69,6-61;6-65;9-68;1-66;10-68;1-60,9-68,1.54,60,13,572.063782611
GEMS293,2018_Nov_26_1126,Jerry,SF,1.5,2,GEMS000,10,6,1,1,SimpleHill,0-0,1,41,9-68,10-62;16-70;11-67;13-63;3-64;8-69,8-69,3.85,58,-2,579.997420694
GEMS293,2018_Nov_26_1126,Jerry,SF,1.5,2,GEMS000,10,6,1,1,SimpleHill,0-0,1,42,8-69,1-65;13-66;4-64;1-67;11-66;0-64,1-67,3.15,47,-11,587.216563127
GEMS293,2018_Nov_26_1126,Jerry,SF,1.5,2,GEMS000,10,6,1,1,SimpleHill,0-0,1,43,1-67,1-62;0-63;7-64;1-58;6-59;2-61,0-63,3.61,47,0,594.888326735
GEMS293,2018_Nov_26_1126,Jerry,SF,1.5,2,GEMS000,10,6,1,1,SimpleHill,0-0,1,44,0-63,3-54;1-66;4-65;7-57;1-61;1-68,7-57,6.31,63,16,605.277783397
GEMS293,2018_Nov_26_1126,Jerry,SF,1.5,2,GEMS000,10,6,1,1,SimpleHill,0-0,1,45,7-57,1-49;6-60;7-67;6-66;1-60;13-58,13-58,5.32,72,9,614.674852501
GEMS293,2018_Nov_26_1126,Jerry,SF,1.5,2,GEMS000,10,6,1,1,SimpleHill,0-0,1,46,13-58,11-57;16-53;15-59;20-60;10-59;15-61,11-57,5.98,69,-3,624.722026788
GEMS293,2018_Nov_26_1126,Jerry,SF,1.5,2,GEMS000,10,6,1,1,SimpleHill,0-0,1,47,11-57,20-53;7-52;6-61;20-55;9-59;12-48,9-59,4.15,65,-4,632.943045604
GEMS293,2018_Nov_26_1126,Jerry,SF,1.5,2,GEMS000,10,6,1,1,SimpleHill,0-0,1,48,9-59,13-56;12-62;8-51;14-55;1-60;17-57,14-55,5.5,74,9,642.523419895
GEMS293,2018_Nov_26_1126,Jerry,SF,1.5,2,GEMS000,10,6,1,1,SimpleHill,0-0,1,49,14-55,18-56;19-56;16-49;17-46;23-51;9-63,19-56,3.46,81,7,650.04995301
GEMS293,2018_Nov_26_1126,Jerry,SF,1.5,2,GEMS000,10,6,1,1,SimpleHill,0-0,1,50,19-56,19-51;17-65;17-48;20-53;21-65;23-63,20-53,4.51,82,1,658.62766349
GEMS293,2018_Nov_26_1126,Jerry,SF,1.5,2,GEMS000,10,6,1,1,SimpleHill,0-0,1,51,20-53,27-59;11-53;20-49;18-55;13-54;15-47,11-53,6.7,70,-12,669.414291046
GEMS293,2018_Nov_26_1126,Jerry,SF,1.5,2,GEMS000,10,6,1,1,SimpleHill,0-0,1,52,11-53,5-49;16-57;14-50;11-51;12-52;6-48,11-51,4.55,70,0,678.046171116
GEMS293,2018_Nov_26_1126,Jerry,SF,1.5,2,GEMS000,10,6,1,1,SimpleHill,0-0,1,53,11-51,6-43;20-54;10-51;6-44;16-58;18-44,10-51,3.63,68,-2,685.795006299
GEMS293,2018_Nov_26_1126,Jerry,SF,1.5,2,GEMS000,10,6,1,1,SimpleHill,0-0,1,54,10-51,8-60;9-45;12-50;5-43;12-52;15-43,12-52,4.17,72,4,694.0268179980002
GEMS293,2018_Nov_26_1126,Jerry,SF,1.5,2,GEMS000,10,6,1,1,SimpleHill,0-0,1,55,12-52,4-56;20-57;19-57;11-60;20-56;7-44,20-57,6.94,82,10,705.050475722
GEMS293,2018_Nov_26_1126,Jerry,SF,1.5,2,GEMS000,10,6,1,1,SimpleHill,0-0,1,56,20-57,19-54;27-58;14-50;18-65;18-53;12-56,19-54,3.69,81,-1,712.801724723
GEMS293,2018_Nov_26_1126,Jerry,SF,1.5,2,GEMS000,10,6,1,1,SimpleHill,0-0,1,57,19-54,16-56;19-56;15-59;12-51;27-51;14-48,15-59,5.77,74,-7,722.6398065230002
GEMS293,2018_Nov_26_1126,Jerry,SF,1.5,2,GEMS000,10,6,1,1,SimpleHill,0-0,1,58,15-59,13-67;15-58;10-63;17-51;18-63;20-52,18-63,3.89,77,3,730.606965983
GEMS293,2018_Nov_26_1126,Jerry,SF,1.5,2,GEMS000,10,6,1,1,SimpleHill,0-0,1,59,18-63,13-60;19-59;12-67;9-65;21-61;9-59,21-61,4.2,81,4,738.887665744
GEMS293,2018_Nov_26_1126,Jerry,SF,1.5,2,GEMS000,10,6,1,1,SimpleHill,0-0,1,60,21-61,13-56;17-58;15-66;19-66;14-56;23-70,17-58,14.48,77,-4,757.437105006
GEMS293,2018_Nov_26_1126,Jerry,SF,1.5,2,GEMS000,10,6,1,1,SimpleHill,0-0,1,61,17-58,24-59;9-57;12-52;9-61;11-62;18-52,24-59,3.98,85,8,765.4986674539999
GEMS293,2018_Nov_26_1126,Jerry,SF,1.5,2,GEMS000,10,6,1,1,SimpleHill,0-0,1,62,24-59,24-64;18-51;17-54;22-55;29-61;23-61,24-64,11.94,83,-2,781.498363366
GEMS293,2018_Nov_26_1126,Jerry,SF,1.5,2,GEMS000,10,6,1,1,SimpleHill,0-0,1,63,24-64,21-58;20-55;28-66;22-64;22-57;26-60,22-64,3.56,81,-2,789.14104176
GEMS293,2018_Nov_26_1126,Jerry,SF,1.5,2,GEMS000,10,6,1,1,SimpleHill,0-0,1,64,22-64,24-66;27-64;20-60;19-70;28-64;19-69,28-64,5.73,87,6,798.927118117
GEMS293,2018_Nov_26_1126,Jerry,SF,1.5,2,GEMS000,10,6,1,1,SimpleHill,0-0,1,65,28-64,30-63;20-62;29-66;31-60;35-59;27-69,29-66,8.97,87,0,811.9735750760001
GEMS293,2018_Nov_26_1126,Jerry,SF,1.5,2,GEMS000,10,6,1,1,SimpleHill,0-0,1,66,29-66,23-60;35-70;28-63;22-64;34-60;28-58,23-60,3.47,84,-3,819.522328379
GEMS293,2018_Nov_26_1126,Jerry,SF,1.5,2,GEMS000,10,6,1,1,SimpleHill,0-0,1,67,23-60,14-58;17-54;32-58;18-68;23-52;20-51,23-52,5.09,86,2,828.6983181689999
GEMS293,2018_Nov_26_1126,Jerry,SF,1.5,2,GEMS000,10,6,1,1,SimpleHill,0-0,1,68,23-52,15-51;28-59;25-58;29-51;26-48;19-49,29-51,7.78,92,6,840.561198183
GEMS293,2018_Nov_26_1126,Jerry,SF,1.5,2,GEMS000,10,6,1,1,SimpleHill,0-0,1,69,29-51,22-46;27-44;24-48;26-48;21-54;28-55,26-48,2.48,89,-3,847.1194297489999
GEMS293,2018_Nov_26_1126,Jerry,SF,1.5,2,GEMS000,10,6,1,1,SimpleHill,0-0,1,70,26-48,27-48;32-52;33-53;22-40;21-41;31-42,27-48,4.26,90,1,855.4497870739999
GEMS293,2018_Nov_26_1126,Jerry,SF,1.5,2,GEMS000,10,6,1,1,SimpleHill,0-0,1,71,27-48,25-47;29-41;29-44;34-46;34-44;20-49,20-49,7.32,82,-8,866.8194841
GEMS293,2018_Nov_26_1126,Jerry,SF,1.5,2,GEMS000,10,6,1,1,SimpleHill,0-0,1,72,20-49,18-45;16-52;23-53;21-57;27-47;21-47,16-52,4.2,77,-5,875.098355172
GEMS293,2018_Nov_26_1126,Jerry,SF,1.5,2,GEMS000,10,6,1,1,SimpleHill,0-0,1,73,16-52,18-52;14-60;17-49;25-49;18-56;23-48,18-52,3.23,80,3,882.3952823469998
GEMS293,2018_Nov_26_1126,Jerry,SF,1.5,2,GEMS000,10,6,1,1,SimpleHill,0-0,1,74,18-52,10-58;25-48;25-46;26-52;18-57;18-62,18-57,4.41,79,-1,890.88212046
GEMS293,2018_Nov_26_1126,Jerry,SF,1.5,2,GEMS000,10,6,1,1,SimpleHill,0-0,1,75,18-57,11-62;21-51;12-61;22-54;27-53;13-60,22-54,5.3,85,6,900.2371617260001
GEMS293,2018_Nov_26_1126,Jerry,SF,1.5,2,GEMS000,10,6,1,1,SimpleHill,0-0,1,76,22-54,14-55;17-47;21-62;25-56;26-54;18-60,25-56,6.27,87,2,910.586842082
GEMS293,2018_Nov_26_1126,Jerry,SF,1.5,2,GEMS000,10,6,1,1,SimpleHill,0-0,1,77,25-56,19-52;21-63;23-65;30-60;16-52;29-55,29-55,9.0,91,4,923.6620497580001
GEMS293,2018_Nov_26_1126,Jerry,SF,1.5,2,GEMS000,10,6,1,1,SimpleHill,0-0,1,78,29-55,23-49;25-61;39-55;20-55;33-52;27-63,20-55,10.13,82,-9,937.8648911560001
GEMS293,2018_Nov_26_1126,Jerry,SF,1.5,2,GEMS000,10,6,1,1,SimpleHill,0-0,1,79,20-55,19-58;15-62;28-54;15-51;20-60;25-63,19-58,3.86,80,-2,945.78716083
GEMS293,2018_Nov_26_1126,Jerry,SF,1.5,2,GEMS000,10,6,2,1,SimpleHill,0-0,1,0,0-0,6-4;8-2;8-1;2-3;4-4;5-7,2-3,3.04,10,9,1086.98200183
GEMS293,2018_Nov_26_1126,Jerry,SF,1.5,2,GEMS000,10,6,2,1,SimpleHill,0-0,1,1,2-3,0-6;9-7;3-5;6-0;10-2;8-7,0-6,4.59,12,2,1095.61819067
GEMS293,2018_Nov_26_1126,Jerry,SF,1.5,2,GEMS000,10,6,2,1,SimpleHill,0-0,1,2,0-6,4-2;8-5;1-11;10-6;8-8;2-11,1-11,2.37,22,10,1102.06561482
GEMS293,2018_Nov_26_1126,Jerry,SF,1.5,2,GEMS000,10,6,2,1,SimpleHill,0-0,1,3,1-11,7-12;8-9;0-7;8-4;6-17;7-11,6-17,8.91,40,18,1115.0557198
GEMS293,2018_Nov_26_1126,Jerry,SF,1.5,2,GEMS000,10,6,2,1,SimpleHill,0-0,1,4,6-17,8-14;12-16;1-16;9-22;4-13;12-19,9-22,4.48,51,11,1123.59737985
GEMS293,2018_Nov_26_1126,Jerry,SF,1.5,2,GEMS000,10,6,2,1,SimpleHill,0-0,1,5,9-22,8-23;5-24;3-17;15-25;7-31;12-16,7-31,5.51,56,5,1133.18715078
GEMS293,2018_Nov_26_1126,Jerry,SF,1.5,2,GEMS000,10,6,2,1,SimpleHill,0-0,1,6,7-31,14-37;8-25;15-34;12-30;12-29;6-38,6-38,5.26,59,3,1142.50305496
GEMS293,2018_Nov_26_1126,Jerry,SF,1.5,2,GEMS000,10,6,2,1,SimpleHill,0-0,1,7,6-38,2-46;13-31;10-42;2-38;2-45;7-46,2-38,3.54,52,-7,1150.10661484
GEMS293,2018_Nov_26_1126,Jerry,SF,1.5,2,GEMS000,10,6,2,1,SimpleHill,0-0,1,8,2-38,9-34;1-29;7-42;9-33;7-44;5-46,1-29,2.19,44,-8,1156.36090568
GEMS293,2018_Nov_26_1126,Jerry,SF,1.5,2,GEMS000,10,6,2,1,SimpleHill,0-0,1,9,1-29,1-36;8-28;5-36;3-24;2-22;3-34,5-36,1.45,56,12,1161.88484925
GEMS293,2018_Nov_26_1126,Jerry,SF,1.5,2,GEMS000,10,6,2,1,SimpleHill,0-0,1,10,5-36,3-40;8-32;7-45;7-37;11-38;9-30,7-45,3.31,63,7,1169.26148172
GEMS293,2018_Nov_26_1126,Jerry,SF,1.5,2,GEMS000,10,6,2,1,SimpleHill,0-0,1,11,7-45,8-38;10-43;3-47;8-47;6-50;4-51,4-51,6.5,58,-5,1179.83542119
GEMS293,2018_Nov_26_1126,Jerry,SF,1.5,2,GEMS000,10,6,2,1,SimpleHill,0-0,1,12,4-51,4-48;0-44;11-52;7-44;12-45;9-50,4-48,3.54,58,0,1187.43757682
GEMS293,2018_Nov_26_1126,Jerry,SF,1.5,2,GEMS000,10,6,2,1,SimpleHill,0-0,1,13,4-48,5-53;11-44;7-39;13-52;11-54;12-47,5-53,2.61,60,2,1194.11005136
GEMS293,2018_Nov_26_1126,Jerry,SF,1.5,2,GEMS000,10,6,2,1,SimpleHill,0-0,1,14,5-53,4-59;7-54;4-62;13-50;2-46;6-56,4-62,3.59,55,-5,1201.76918219
GEMS293,2018_Nov_26_1126,Jerry,SF,1.5,2,GEMS000,10,6,2,1,SimpleHill,0-0,1,15,4-62,1-65;8-59;5-69;4-66;3-63;7-66,1-65,3.99,48,-7,1209.81784907
GEMS293,2018_Nov_26_1126,Jerry,SF,1.5,2,GEMS000,10,6,2,1,SimpleHill,0-0,1,16,1-65,5-62;8-67;4-65;5-69;4-58;10-69,4-65,4.32,54,6,1218.2241951
GEMS293,2018_Nov_26_1126,Jerry,SF,1.5,2,GEMS000,10,6,2,1,SimpleHill,0-0,1,17,4-65,6-62;10-65;7-62;12-70;6-59;5-60,7-62,5.0,61,7,1227.29794123
GEMS293,2018_Nov_26_1126,Jerry,SF,1.5,2,GEMS000,10,6,2,1,SimpleHill,0-0,1,18,7-62,1-56;13-63;2-67;7-67;7-53;6-57,2-67,2.59,49,-12,1233.94722185
GEMS293,2018_Nov_26_1126,Jerry,SF,1.5,2,GEMS000,10,6,2,1,SimpleHill,0-0,1,19,2-67,4-59;1-59;6-69;4-67;2-58;3-61,1-59,3.85,51,2,1241.86898834
GEMS293,2018_Nov_26_1126,Jerry,SF,1.5,2,GEMS000,10,6,2,1,SimpleHill,0-0,1,20,1-59,6-58;6-54;7-67;8-60;4-59;3-65,6-58,5.04,61,10,1250.97627826
GEMS293,2018_Nov_26_1126,Jerry,SF,1.5,2,GEMS000,10,6,2,1,SimpleHill,0-0,1,21,6-58,8-56;1-62;9-60;4-63;10-57;13-64,1-62,2.32,50,-11,1257.37573173
GEMS293,2018_Nov_26_1126,Jerry,SF,1.5,2,GEMS000,10,6,2,1,SimpleHill,0-0,1,22,1-62,10-62;4-55;3-60;1-62;6-66;9-68,1-62,3.76,50,0,1265.21885851
GEMS293,2018_Nov_26_1126,Jerry,SF,1.5,2,GEMS000,10,6,2,1,SimpleHill,0-0,1,23,1-62,0-68;9-61;3-57;8-63;2-55;10-63,0-68,4.48,44,-6,1273.77033324
GEMS293,2018_Nov_26_1126,Jerry,SF,1.5,2,GEMS000,10,6,2,1,SimpleHill,0-0,1,24,0-68,2-59;9-69;3-67;6-68;5-62;2-68,3-67,4.08,51,7,1281.91224757
GEMS293,2018_Nov_26_1126,Jerry,SF,1.5,2,GEMS000,10,6,2,1,SimpleHill,0-0,1,25,3-67,8-70;3-69;1-58;12-68;9-66;6-63,9-66,4.32,62,11,1290.31122091
GEMS293,2018_Nov_26_1126,Jerry,SF,1.5,2,GEMS000,10,6,2,1,SimpleHill,0-0,1,26,9-66,7-57;2-61;6-59;11-64;7-64;1-64,6-59,4.23,60,-2,1298.62697817
GEMS293,2018_Nov_26_1126,Jerry,SF,1.5,2,GEMS000,10,6,2,1,SimpleHill,0-0,1,27,6-59,10-60;14-54;1-62;14-64;9-63;2-50,1-62,2.21,50,-10,1304.92160996
GEMS293,2018_Nov_26_1126,Jerry,SF,1.5,2,GEMS000,10,6,2,1,SimpleHill,0-0,1,28,1-62,2-63;7-57;2-62;7-59;8-55;2-65,2-62,3.41,52,2,1312.41369663
GEMS293,2018_Nov_26_1126,Jerry,SF,1.5,2,GEMS000,10,6,2,1,SimpleHill,0-0,1,29,2-62,2-52;8-54;5-58;4-59;11-65;8-66,5-58,4.39,59,7,1320.87386879
GEMS293,2018_Nov_26_1126,Jerry,SF,1.5,2,GEMS000,10,6,2,1,SimpleHill,0-0,1,30,5-58,5-58;10-58;1-51;2-62;3-65;0-57,5-58,1.89,59,0,1326.82880168
GEMS293,2018_Nov_26_1126,Jerry,SF,1.5,2,GEMS000,10,6,2,1,SimpleHill,0-0,1,31,5-58,13-55;1-56;7-59;8-63;6-53;10-58,7-59,2.65,62,3,1333.56033905
GEMS293,2018_Nov_26_1126,Jerry,SF,1.5,2,GEMS000,10,6,2,1,SimpleHill,0-0,1,32,7-59,5-66;1-60;0-61;12-52;5-56;16-63,0-61,3.1,48,-14,1340.71832428
GEMS293,2018_Nov_26_1126,Jerry,SF,1.5,2,GEMS000,10,6,2,1,SimpleHill,0-0,1,33,0-61,5-59;7-60;6-60;1-52;5-55;4-59,7-60,2.18,62,14,1346.97092759
GEMS293,2018_Nov_26_1126,Jerry,SF,1.5,2,GEMS000,10,6,2,1,SimpleHill,0-0,1,34,7-60,16-58;1-54;0-57;6-66;11-58;10-67,6-66,3.3,57,-5,1354.3449097
GEMS293,2018_Nov_26_1126,Jerry,SF,1.5,2,GEMS000,10,6,2,1,SimpleHill,0-0,1,35,6-66,8-59;15-66;4-59;2-59;7-68;2-67,15-66,2.73,71,14,1361.145468
GEMS293,2018_Nov_26_1126,Jerry,SF,1.5,2,GEMS000,10,6,2,1,SimpleHill,0-0,1,36,15-66,21-63;7-66;16-58;7-68;17-61;9-63,9-63,6.65,64,-7,1371.8740346
GEMS293,2018_Nov_26_1126,Jerry,SF,1.5,2,GEMS000,10,6,2,1,SimpleHill,0-0,1,37,9-63,18-67;12-66;4-56;15-69;15-64;0-66,12-66,1.62,67,3,1377.57160215
GEMS293,2018_Nov_26_1126,Jerry,SF,1.5,2,GEMS000,10,6,2,1,SimpleHill,0-0,1,38,12-66,7-60;11-61;9-62;19-64;20-63;3-70,7-60,1.92,62,-5,1383.57022095
GEMS293,2018_Nov_26_1126,Jerry,SF,1.5,2,GEMS000,10,6,2,1,SimpleHill,0-0,1,39,7-60,12-53;10-55;9-64;13-52;7-59;1-68,9-64,2.13,63,1,1389.76977276
GEMS293,2018_Nov_26_1126,Jerry,SF,1.5,2,GEMS000,10,6,2,1,SimpleHill,0-0,1,40,9-64,0-65;12-64;3-69;11-61;14-66;16-70,14-66,5.69,69,6,1399.52765344
GEMS293,2018_Nov_26_1126,Jerry,SF,1.5,2,GEMS000,10,6,2,1,SimpleHill,0-0,1,41,14-66,16-64;21-61;9-68;19-65;13-60;14-66,9-68,4.29,60,-9,1407.88871693
GEMS293,2018_Nov_26_1126,Jerry,SF,1.5,2,GEMS000,10,6,2,1,SimpleHill,0-0,1,42,9-68,13-70;5-62;8-63;9-67;12-62;8-61,13-70,3.05,65,5,1415.01931311
GEMS293,2018_Nov_26_1126,Jerry,SF,1.5,2,GEMS000,10,6,2,1,SimpleHill,0-0,1,43,13-70,21-65;11-62;18-65;14-67;12-66;15-65,14-67,4.06,69,4,1423.15835877
GEMS293,2018_Nov_26_1126,Jerry,SF,1.5,2,GEMS000,10,6,2,1,SimpleHill,0-0,1,44,14-67,18-58;12-70;15-60;21-67;10-66;20-60,12-70,1.63,64,-5,1428.8696662999996
GEMS293,2018_Nov_26_1126,Jerry,SF,1.5,2,GEMS000,10,6,2,1,SimpleHill,0-0,1,45,12-70,21-67;4-65;4-70;12-70;15-68;14-68,12-70,2.16,64,0,1435.1050912
GEMS293,2018_Nov_26_1126,Jerry,SF,1.5,2,GEMS000,10,6,2,1,SimpleHill,0-0,1,46,12-70,4-65;4-67;6-66;14-65;8-66;6-69,6-66,1.45,57,-7,1440.61147193
GEMS293,2018_Nov_26_1126,Jerry,SF,1.5,2,GEMS000,10,6,2,1,SimpleHill,0-0,1,47,6-66,0-58;13-67;14-69;3-70;6-57;14-63,3-70,1.18,48,-9,1445.8571766
GEMS293,2018_Nov_26_1126,Jerry,SF,1.5,2,GEMS000,10,6,2,1,SimpleHill,0-0,1,48,3-70,8-62;7-65;4-68;11-69;5-63;5-61,4-68,3.66,52,4,1453.58779212
GEMS293,2018_Nov_26_1126,Jerry,SF,1.5,2,GEMS000,10,6,2,1,SimpleHill,0-0,1,49,4-68,1-70;5-60;11-70;4-62;2-59;4-66,5-60,4.37,58,6,1462.03528509
GEMS293,2018_Nov_26_1126,Jerry,SF,1.5,2,GEMS000,10,6,2,1,SimpleHill,0-0,1,50,5-60,12-66;11-68;0-56;14-59;13-54;3-59,0-56,5.28,50,-8,1471.38911096
GEMS293,2018_Nov_26_1126,Jerry,SF,1.5,2,GEMS000,10,6,2,1,SimpleHill,0-0,1,51,0-56,3-61;8-52;2-48;6-54;0-49;8-61,3-61,6.23,54,4,1481.7026423
GEMS293,2018_Nov_26_1126,Jerry,SF,1.5,2,GEMS000,10,6,2,1,SimpleHill,0-0,1,52,3-61,8-60;3-69;2-68;2-67;3-59;4-61,2-67,7.96,49,-5,1493.74277903
GEMS293,2018_Nov_26_1126,Jerry,SF,1.5,2,GEMS000,10,6,2,1,SimpleHill,0-0,1,53,2-67,10-64;7-69;9-67;4-66;0-59;6-70,4-66,3.61,53,4,1501.42666839
GEMS293,2018_Nov_26_1126,Jerry,SF,1.5,2,GEMS000,10,6,2,1,SimpleHill,0-0,1,54,4-66,6-67;13-69;0-63;6-62;4-58;4-68,6-67,10.34,56,3,1515.84463025
GEMS293,2018_Nov_26_1126,Jerry,SF,1.5,2,GEMS000,10,6,2,1,SimpleHill,0-0,1,55,6-67,1-60;8-60;5-66;11-62;15-67;13-67,1-60,3.82,50,-6,1523.73548348
GEMS293,2018_Nov_26_1126,Jerry,SF,1.5,2,GEMS000,10,6,2,1,SimpleHill,0-0,1,56,1-60,2-56;10-63;4-64;1-61;9-55;4-51,1-61,5.21,50,0,1533.01496945
GEMS293,2018_Nov_26_1126,Jerry,SF,1.5,2,GEMS000,10,6,2,1,SimpleHill,0-0,1,57,1-61,6-53;3-61;1-55;3-67;2-58;3-68,1-55,4.53,52,2,1541.62121394
GEMS293,2018_Nov_26_1126,Jerry,SF,1.5,2,GEMS000,10,6,2,1,SimpleHill,0-0,1,58,1-55,6-49;1-55;3-56;9-52;1-52;5-54,1-55,9.72,52,0,1555.41285223
GEMS293,2018_Nov_26_1126,Jerry,SF,1.5,2,GEMS000,10,6,2,1,SimpleHill,0-0,1,59,1-55,3-53;7-62;1-55;3-47;1-52;10-56,1-55,7.21,52,0,1566.68303599
GEMS293,2018_Nov_26_1126,Jerry,SF,1.5,2,GEMS000,10,6,2,1,SimpleHill,0-0,1,60,1-55,0-51;2-57;3-61;9-54;1-49;9-58,2-57,3.33,53,1,1574.07973539
GEMS293,2018_Nov_26_1126,Jerry,SF,1.5,2,GEMS000,10,6,2,1,SimpleHill,0-0,1,61,2-57,2-55;7-54;8-65;5-57;11-61;4-50,5-57,4.41,59,6,1582.55868994
GEMS293,2018_Nov_26_1126,Jerry,SF,1.5,2,GEMS000,10,6,2,1,SimpleHill,0-0,1,62,5-57,11-56;13-51;6-62;8-60;1-53;10-55,6-62,6.7,59,0,1593.31604791
GEMS293,2018_Nov_26_1126,Jerry,SF,1.5,2,GEMS000,10,6,2,1,SimpleHill,0-0,1,63,6-62,2-61;5-65;13-66;4-61;8-59;9-70,8-59,6.85,64,5,1604.24328478
GEMS293,2018_Nov_26_1126,Jerry,SF,1.5,2,GEMS000,10,6,2,1,SimpleHill,0-0,1,64,8-59,6-56;1-62;6-57;5-62;18-59;14-59,6-56,6.47,61,-3,1614.79436771
GEMS293,2018_Nov_26_1126,Jerry,SF,1.5,2,GEMS000,10,6,2,1,SimpleHill,0-0,1,65,6-56,8-55;8-62;5-62;0-53;4-53;1-52,8-62,1.52,62,1,1620.39147229
GEMS293,2018_Nov_26_1126,Jerry,SF,1.5,2,GEMS000,10,6,2,1,SimpleHill,0-0,1,66,8-62,13-61;15-56;2-63;13-58;14-58;7-67,2-63,2.06,51,-11,1626.51854456
GEMS293,2018_Nov_26_1126,Jerry,SF,1.5,2,GEMS000,10,6,2,1,SimpleHill,0-0,1,67,2-63,5-55;8-65;8-66;2-60;10-59;1-68,2-60,2.24,52,1,1632.84055388
GEMS293,2018_Nov_26_1126,Jerry,SF,1.5,2,GEMS000,10,6,2,1,SimpleHill,0-0,1,68,2-60,9-57;6-55;0-59;2-51;1-59;7-63,0-59,2.4,49,-3,1639.32889706
GEMS293,2018_Nov_26_1126,Jerry,SF,1.5,2,GEMS000,10,6,2,1,SimpleHill,0-0,1,69,0-59,6-59;7-52;2-63;0-60;3-50;4-50,0-60,1.09,49,0,1644.49840146
GEMS293,2018_Nov_26_1126,Jerry,SF,1.5,2,GEMS000,10,6,2,1,SimpleHill,0-0,1,70,0-60,3-58;1-57;10-60;2-55;4-60;9-58,4-60,2.41,56,7,1650.98871482
GEMS293,2018_Nov_26_1126,Jerry,SF,1.5,2,GEMS000,10,6,2,1,SimpleHill,0-0,1,71,4-60,7-62;2-60;2-62;1-64;5-56;12-54,2-62,5.36,52,-4,1660.43512811
GEMS293,2018_Nov_26_1126,Jerry,SF,1.5,2,GEMS000,10,6,2,1,SimpleHill,0-0,1,72,2-62,3-57;6-54;0-62;6-69;8-58;5-58,5-58,4.06,59,7,1668.54698383
GEMS293,2018_Nov_26_1126,Jerry,SF,1.5,2,GEMS000,10,6,2,1,SimpleHill,0-0,1,73,5-58,13-55;10-51;11-66;7-57;6-57;1-67,6-57,3.81,61,2,1676.40988561
GEMS293,2018_Nov_26_1126,Jerry,SF,1.5,2,GEMS000,10,6,2,1,SimpleHill,0-0,1,74,6-57,6-64;7-65;5-61;12-59;7-49;1-54,7-65,3.85,59,-2,1684.33544232
GEMS293,2018_Nov_26_1126,Jerry,SF,1.5,2,GEMS000,10,6,2,1,SimpleHill,0-0,1,75,7-65,13-60;0-67;4-66;16-64;12-66;6-65,4-66,3.21,53,-6,1691.61468438
GEMS293,2018_Nov_26_1126,Jerry,SF,1.5,2,GEMS000,10,6,2,1,SimpleHill,0-0,1,76,4-66,2-65;10-68;10-67;5-63;11-61;13-65,5-63,3.36,57,4,1699.04694734
GEMS293,2018_Nov_26_1126,Jerry,SF,1.5,2,GEMS000,10,6,2,1,SimpleHill,0-0,1,77,5-63,13-64;7-68;3-58;2-68;8-55;3-59,7-68,5.57,57,0,1708.69132351
GEMS293,2018_Nov_26_1126,Jerry,SF,1.5,2,GEMS000,10,6,2,1,SimpleHill,0-0,1,78,7-68,7-68;4-68;14-63;2-69;9-59;8-68,2-69,2.18,47,-10,1714.95441721
GEMS293,2018_Nov_26_1126,Jerry,SF,1.5,2,GEMS000,10,6,2,1,SimpleHill,0-0,1,79,2-69,10-68;1-70;11-65;2-69;2-70;5-60,2-69,1.57,47,0,1720.59547722
