subj_id,date,computer,experimenter,instructions,sight_radius,n_gabors,start_pos_list_ix,start_pos_list,landscape_ix,landscape_name,starting_pos,starting_score,trial,feedback,pos,stims,selected,rt,score,delta,exp_time
GEMS211,2018_Mar_21_1331,Elaine,SF,orientation,8,6,6,13-43;12-34;2-35;10-36,0,OrientationBias,0-0,0,0,training,0-0,7-2;1-6;5-0;0-1;1-0;0-7,7-2,2.81,26,26,125.598021573
GEMS211,2018_Mar_21_1331,Elaine,SF,orientation,8,6,6,13-43;12-34;2-35;10-36,0,OrientationBias,0-0,0,1,training,7-2,7-5;8-4;2-7;10-2;12-5;2-6,7-5,4.17,26,0,135.618852866
GEMS211,2018_Mar_21_1331,Elaine,SF,orientation,8,6,6,13-43;12-34;2-35;10-36,0,OrientationBias,0-0,0,2,training,7-5,12-7;7-11;8-0;13-4;11-7;6-10,13-4,6.11,45,19,154.920354291
GEMS211,2018_Mar_21_1331,Elaine,SF,orientation,8,6,6,13-43;12-34;2-35;10-36,0,OrientationBias,0-0,0,3,training,13-4,14-7;12-2;8-0;15-6;19-6;19-9,19-6,10.97,61,16,174.510916431
GEMS211,2018_Mar_21_1331,Elaine,SF,orientation,8,6,6,13-43;12-34;2-35;10-36,0,OrientationBias,0-0,0,4,training,19-6,24-11;22-0;22-1;18-12;17-0;24-4,24-4,7.17,72,11,188.035065801
GEMS211,2018_Mar_21_1331,Elaine,SF,orientation,8,6,6,13-43;12-34;2-35;10-36,0,OrientationBias,0-0,0,5,training,24-4,19-8;30-1;19-7;31-5;27-8;29-6,19-8,7.91,61,-11,201.681373952
GEMS211,2018_Mar_21_1331,Elaine,SF,orientation,8,6,6,13-43;12-34;2-35;10-36,0,OrientationBias,0-0,0,6,training,19-8,22-1;17-9;24-9;14-3;20-4;22-2,14-3,5.33,48,-13,213.485008473
GEMS211,2018_Mar_21_1331,Elaine,SF,orientation,8,6,6,13-43;12-34;2-35;10-36,0,OrientationBias,0-0,0,7,training,14-3,12-1;16-9;18-3;14-8;21-5;20-3,12-1,11.43,42,-6,236.134143039
GEMS211,2018_Mar_21_1331,Elaine,SF,orientation,8,6,6,13-43;12-34;2-35;10-36,0,OrientationBias,0-0,0,8,training,12-1,16-1;6-5;16-7;11-2;18-5;19-1,11-2,8.78,39,-3,250.155133418
GEMS211,2018_Mar_21_1331,Elaine,SF,orientation,8,6,6,13-43;12-34;2-35;10-36,0,OrientationBias,0-0,0,9,training,11-2,4-0;10-3;14-2;7-8;15-7;13-3,15-7,6.78,51,12,262.61717142
GEMS211,2018_Mar_21_1331,Elaine,SF,orientation,8,6,6,13-43;12-34;2-35;10-36,0,OrientationBias,0-0,0,10,training,15-7,14-12;17-7;11-7;16-11;11-5;11-3,16-11,3.76,53,2,271.018340974
GEMS211,2018_Mar_21_1331,Elaine,SF,orientation,8,6,6,13-43;12-34;2-35;10-36,0,OrientationBias,0-0,0,11,training,16-11,14-6;19-10;16-9;11-5;20-5;15-5,16-9,3.43,53,0,280.969676047
GEMS211,2018_Mar_21_1331,Elaine,SF,orientation,8,6,6,13-43;12-34;2-35;10-36,0,OrientationBias,0-0,0,12,training,16-9,10-8;17-8;10-9;15-12;21-10;16-15,10-8,10.87,36,-17,296.480398822
GEMS211,2018_Mar_21_1331,Elaine,SF,orientation,8,6,6,13-43;12-34;2-35;10-36,0,OrientationBias,0-0,0,13,training,10-8,14-12;14-9;15-13;13-3;10-11;17-6,13-3,10.03,45,9,313.454992449
GEMS211,2018_Mar_21_1331,Elaine,SF,orientation,8,6,6,13-43;12-34;2-35;10-36,0,OrientationBias,0-0,0,14,training,13-3,9-3;17-0;10-5;10-6;16-9;14-4,14-4,7.35,48,3,325.386275655
GEMS211,2018_Mar_21_1331,Elaine,SF,orientation,8,6,6,13-43;12-34;2-35;10-36,0,OrientationBias,0-0,0,15,training,14-4,14-11;13-5;14-3;19-2;17-9;13-7,14-3,4.78,48,0,336.219356115
GEMS211,2018_Mar_21_1331,Elaine,SF,orientation,8,6,6,13-43;12-34;2-35;10-36,0,OrientationBias,0-0,0,16,training,14-3,13-6;18-9;20-1;12-5;8-4;20-0,8-4,4.26,29,-19,353.719782158
GEMS211,2018_Mar_21_1331,Elaine,SF,orientation,8,6,6,13-43;12-34;2-35;10-36,0,OrientationBias,0-0,0,17,training,8-4,7-7;6-9;11-8;10-3;3-6;8-10,10-3,4.42,36,7,368.244269546
GEMS211,2018_Mar_21_1331,Elaine,SF,orientation,8,6,6,13-43;12-34;2-35;10-36,0,OrientationBias,0-0,0,18,training,10-3,11-10;10-5;16-5;15-2;3-0;12-8,10-5,3.39,36,0,378.668746627
GEMS211,2018_Mar_21_1331,Elaine,SF,orientation,8,6,6,13-43;12-34;2-35;10-36,0,OrientationBias,0-0,0,19,training,10-5,13-6;10-6;15-11;11-9;16-0;10-8,15-11,3.96,51,15,388.355135786
GEMS211,2018_Mar_21_1331,Elaine,SF,orientation,8,6,6,13-43;12-34;2-35;10-36,0,OrientationBias,0-0,0,20,training,15-11,20-11;21-11;21-12;17-18;7-11;8-9,7-11,3.01,26,-25,395.907528189
GEMS211,2018_Mar_21_1331,Elaine,SF,orientation,8,6,6,13-43;12-34;2-35;10-36,0,OrientationBias,0-0,0,21,training,7-11,2-15;5-14;14-10;1-15;11-6;8-9,11-6,7.51,39,13,410.875602174
GEMS211,2018_Mar_21_1331,Elaine,SF,orientation,8,6,6,13-43;12-34;2-35;10-36,0,OrientationBias,0-0,0,22,training,11-6,10-7;7-3;10-2;6-0;12-0;16-1,10-7,4.47,36,-3,421.610308639
GEMS211,2018_Mar_21_1331,Elaine,SF,orientation,8,6,6,13-43;12-34;2-35;10-36,0,OrientationBias,0-0,0,23,training,10-7,7-11;13-1;8-2;6-4;8-9;10-1,6-4,7.83,22,-14,434.773839041
GEMS211,2018_Mar_21_1331,Elaine,SF,orientation,8,6,6,13-43;12-34;2-35;10-36,0,OrientationBias,0-0,0,24,training,6-4,4-7;9-10;2-1;2-3;6-0;8-1,6-0,6.38,22,0,445.670908531
GEMS211,2018_Mar_21_1331,Elaine,SF,orientation,8,6,6,13-43;12-34;2-35;10-36,0,OrientationBias,0-0,0,25,training,6-0,10-5;3-3;9-7;9-1;4-5;6-3,3-3,5.38,11,-11,456.17786958
GEMS211,2018_Mar_21_1331,Elaine,SF,orientation,8,6,6,13-43;12-34;2-35;10-36,0,OrientationBias,0-0,0,26,training,3-3,4-7;5-1;3-7;1-7;4-10;2-4,2-4,5.13,7,-4,469.24085224
GEMS211,2018_Mar_21_1331,Elaine,SF,orientation,8,6,6,13-43;12-34;2-35;10-36,0,OrientationBias,0-0,0,27,training,2-4,7-6;7-9;6-7;1-7;9-5;3-10,9-5,2.22,32,25,477.601712558
GEMS211,2018_Mar_21_1331,Elaine,SF,orientation,8,6,6,13-43;12-34;2-35;10-36,0,OrientationBias,0-0,0,28,training,9-5,14-10;3-0;3-2;7-9;12-10;14-11,14-10,7.35,48,16,489.887591554
GEMS211,2018_Mar_21_1331,Elaine,SF,orientation,8,6,6,13-43;12-34;2-35;10-36,0,OrientationBias,0-0,0,29,training,14-10,13-14;13-13;12-10;20-14;9-12;15-5,9-12,5.66,32,-16,500.538448858
GEMS211,2018_Mar_21_1331,Elaine,SF,orientation,8,6,6,13-43;12-34;2-35;10-36,1,SimpleHill,13-43,71,0,selected,13-43,6-42;14-37;12-47;13-49;15-41;12-39,13-49,6.58,72,1,529.027229299
GEMS211,2018_Mar_21_1331,Elaine,SF,orientation,8,6,6,13-43;12-34;2-35;10-36,1,SimpleHill,13-43,71,1,selected,13-49,10-51;14-54;19-49;13-48;20-51;13-57,14-54,5.02,73,1,537.610918415
GEMS211,2018_Mar_21_1331,Elaine,SF,orientation,8,6,6,13-43;12-34;2-35;10-36,1,SimpleHill,13-43,71,2,selected,14-54,18-53;11-49;19-60;13-51;11-48;14-47,19-60,3.83,78,5,545.008323042
GEMS211,2018_Mar_21_1331,Elaine,SF,orientation,8,6,6,13-43;12-34;2-35;10-36,1,SimpleHill,13-43,71,3,selected,19-60,20-62;19-63;25-63;15-66;24-61;19-52,15-66,4.65,70,-8,553.222703001
GEMS211,2018_Mar_21_1331,Elaine,SF,orientation,8,6,6,13-43;12-34;2-35;10-36,1,SimpleHill,13-43,71,4,selected,15-66,11-68;16-64;13-61;17-66;10-66;10-64,13-61,6.54,70,0,563.326887313
GEMS211,2018_Mar_21_1331,Elaine,SF,orientation,8,6,6,13-43;12-34;2-35;10-36,1,SimpleHill,13-43,71,5,selected,13-61,8-64;16-63;15-56;9-62;19-61;14-55,14-55,3.1,73,3,570.001532602
GEMS211,2018_Mar_21_1331,Elaine,SF,orientation,8,6,6,13-43;12-34;2-35;10-36,1,SimpleHill,13-43,71,6,selected,14-55,18-55;18-52;17-51;16-61;21-57;15-52,18-55,2.0,79,6,575.561553127
GEMS211,2018_Mar_21_1331,Elaine,SF,orientation,8,6,6,13-43;12-34;2-35;10-36,1,SimpleHill,13-43,71,7,selected,18-55,10-55;17-58;17-59;25-54;21-54;13-58,17-58,1.82,76,-3,580.969077795
GEMS211,2018_Mar_21_1331,Elaine,SF,orientation,8,6,6,13-43;12-34;2-35;10-36,1,SimpleHill,13-43,71,8,selected,17-58,23-63;18-59;12-62;22-54;15-54;20-55,12-62,3.72,68,-8,588.262444072
GEMS211,2018_Mar_21_1331,Elaine,SF,orientation,8,6,6,13-43;12-34;2-35;10-36,1,SimpleHill,13-43,71,9,selected,12-62,10-59;11-57;11-65;15-57;11-64;17-66,11-64,3.19,65,-3,595.022738083
GEMS211,2018_Mar_21_1331,Elaine,SF,orientation,8,6,6,13-43;12-34;2-35;10-36,1,SimpleHill,13-43,71,10,selected,11-64,11-63;6-60;13-59;8-62;4-61;17-68,11-63,1.46,66,1,600.059664902
GEMS211,2018_Mar_21_1331,Elaine,SF,orientation,8,6,6,13-43;12-34;2-35;10-36,1,SimpleHill,13-43,71,11,selected,11-63,11-64;9-67;15-64;11-59;8-67;17-65,9-67,1.84,60,-6,605.471217292
GEMS211,2018_Mar_21_1331,Elaine,SF,orientation,8,6,6,13-43;12-34;2-35;10-36,1,SimpleHill,13-43,71,12,selected,9-67,14-67;6-68;14-65;11-62;5-61;8-67,8-67,3.96,58,-2,613.004932624
GEMS211,2018_Mar_21_1331,Elaine,SF,orientation,8,6,6,13-43;12-34;2-35;10-36,1,SimpleHill,13-43,71,13,selected,8-67,13-70;9-62;11-61;12-68;7-62;5-69,12-68,1.38,64,6,617.96552893
GEMS211,2018_Mar_21_1331,Elaine,SF,orientation,8,6,6,13-43;12-34;2-35;10-36,1,SimpleHill,13-43,71,14,selected,12-68,9-62;9-63;9-64;15-67;7-70;16-64,9-63,2.06,63,-1,623.601755131
GEMS211,2018_Mar_21_1331,Elaine,SF,orientation,8,6,6,13-43;12-34;2-35;10-36,1,SimpleHill,13-43,71,15,selected,9-63,13-69;5-59;3-66;9-57;12-68;2-64,12-68,8.14,64,1,635.307715699
GEMS211,2018_Mar_21_1331,Elaine,SF,orientation,8,6,6,13-43;12-34;2-35;10-36,1,SimpleHill,13-43,71,16,selected,12-68,16-65;7-64;10-70;9-66;18-65;19-69,7-64,3.08,59,-5,641.95693573
GEMS211,2018_Mar_21_1331,Elaine,SF,orientation,8,6,6,13-43;12-34;2-35;10-36,1,SimpleHill,13-43,71,17,selected,7-64,7-66;14-66;12-69;5-69;11-65;12-60,12-60,2.82,69,10,648.338650068
GEMS211,2018_Mar_21_1331,Elaine,SF,orientation,8,6,6,13-43;12-34;2-35;10-36,1,SimpleHill,13-43,71,18,selected,12-60,15-54;19-58;9-56;17-64;13-64;19-62,15-54,4.19,75,6,656.096123425
GEMS211,2018_Mar_21_1331,Elaine,SF,orientation,8,6,6,13-43;12-34;2-35;10-36,1,SimpleHill,13-43,71,19,selected,15-54,20-55;9-57;12-56;13-51;13-54;17-50,13-54,4.45,72,-3,664.114757924
GEMS211,2018_Mar_21_1331,Elaine,SF,orientation,8,6,6,13-43;12-34;2-35;10-36,1,SimpleHill,13-43,71,20,selected,13-54,15-57;9-52;19-53;10-60;15-49;13-51,19-53,3.62,80,8,671.313508411
GEMS211,2018_Mar_21_1331,Elaine,SF,orientation,8,6,6,13-43;12-34;2-35;10-36,1,SimpleHill,13-43,71,21,selected,19-53,17-53;20-46;13-54;19-47;26-52;17-52,20-46,3.97,81,1,678.848889183
GEMS211,2018_Mar_21_1331,Elaine,SF,orientation,8,6,6,13-43;12-34;2-35;10-36,1,SimpleHill,13-43,71,22,selected,20-46,14-49;26-43;21-52;17-42;16-47;25-48,26-43,5.49,87,6,687.906468363
GEMS211,2018_Mar_21_1331,Elaine,SF,orientation,8,6,6,13-43;12-34;2-35;10-36,1,SimpleHill,13-43,71,23,selected,26-43,26-44;32-42;29-36;25-45;31-43;25-43,32-42,3.88,92,5,695.355780452
GEMS211,2018_Mar_21_1331,Elaine,SF,orientation,8,6,6,13-43;12-34;2-35;10-36,1,SimpleHill,13-43,71,24,selected,32-42,31-48;36-39;34-36;37-41;35-40;34-45,34-45,5.07,94,2,703.972072579
GEMS211,2018_Mar_21_1331,Elaine,SF,orientation,8,6,6,13-43;12-34;2-35;10-36,1,SimpleHill,13-43,71,25,selected,34-45,31-38;27-43;38-39;35-52;39-46;39-47,35-52,3.53,95,1,711.069696917
GEMS211,2018_Mar_21_1331,Elaine,SF,orientation,8,6,6,13-43;12-34;2-35;10-36,1,SimpleHill,13-43,71,26,selected,35-52,39-55;34-50;33-54;41-49;33-52;40-46,33-52,3.04,94,-1,717.686839209
GEMS211,2018_Mar_21_1331,Elaine,SF,orientation,8,6,6,13-43;12-34;2-35;10-36,1,SimpleHill,13-43,71,27,selected,33-52,37-48;32-52;28-52;39-56;27-52;35-57,35-57,2.2,94,0,723.465706581
GEMS211,2018_Mar_21_1331,Elaine,SF,orientation,8,6,6,13-43;12-34;2-35;10-36,1,SimpleHill,13-43,71,28,selected,35-57,37-53;39-60;33-50;41-53;36-62;30-59,36-62,2.6,93,-1,729.646957298
GEMS211,2018_Mar_21_1331,Elaine,SF,orientation,8,6,6,13-43;12-34;2-35;10-36,1,SimpleHill,13-43,71,29,selected,36-62,36-67;38-67;43-65;42-63;34-62;34-64,43-65,1.39,94,1,734.614718232
GEMS211,2018_Mar_21_1331,Elaine,SF,orientation,8,6,6,13-43;12-34;2-35;10-36,1,SimpleHill,13-43,71,30,selected,43-65,44-70;40-58;45-67;39-69;43-58;39-70,40-58,0.99,96,2,739.184825828
GEMS211,2018_Mar_21_1331,Elaine,SF,orientation,8,6,6,13-43;12-34;2-35;10-36,1,SimpleHill,13-43,71,31,selected,40-58,44-55;45-55;43-64;43-59;42-55;44-62,43-59,3.52,97,1,746.27692089
GEMS211,2018_Mar_21_1331,Elaine,SF,orientation,8,6,6,13-43;12-34;2-35;10-36,1,SimpleHill,13-43,71,32,selected,43-59,42-64;39-62;41-60;45-63;44-56;41-61,41-61,1.81,95,-2,751.665521376
GEMS211,2018_Mar_21_1331,Elaine,SF,orientation,8,6,6,13-43;12-34;2-35;10-36,1,SimpleHill,13-43,71,33,selected,41-61,43-58;47-65;42-58;46-58;43-66;44-64,47-65,0.76,95,0,755.990098262
GEMS211,2018_Mar_21_1331,Elaine,SF,orientation,8,6,6,13-43;12-34;2-35;10-36,1,SimpleHill,13-43,71,34,selected,47-65,46-59;47-64;47-67;45-61;44-66;42-70,44-66,1.2,94,-1,760.766947452
GEMS211,2018_Mar_21_1331,Elaine,SF,orientation,8,6,6,13-43;12-34;2-35;10-36,1,SimpleHill,13-43,71,35,selected,44-66,41-62;40-64;50-69;48-67;45-66;48-63,41-62,0.81,95,1,765.154242601
GEMS211,2018_Mar_21_1331,Elaine,SF,orientation,8,6,6,13-43;12-34;2-35;10-36,1,SimpleHill,13-43,71,36,selected,41-62,44-55;37-57;36-58;34-62;39-66;46-57,36-58,1.64,94,-1,770.352435167
GEMS211,2018_Mar_21_1331,Elaine,SF,orientation,8,6,6,13-43;12-34;2-35;10-36,1,SimpleHill,13-43,71,37,selected,36-58,33-56;35-62;38-65;31-55;36-66;43-59,36-66,3.0,90,-4,776.938026272
GEMS211,2018_Mar_21_1331,Elaine,SF,orientation,8,6,6,13-43;12-34;2-35;10-36,1,SimpleHill,13-43,71,38,selected,36-66,34-67;33-60;42-61;37-64;42-67;38-60,38-60,0.5,95,5,781.003897765
GEMS211,2018_Mar_21_1331,Elaine,SF,orientation,8,6,6,13-43;12-34;2-35;10-36,1,SimpleHill,13-43,71,39,selected,38-60,37-66;34-55;36-59;36-60;37-58;38-64,37-66,1.03,91,-4,785.601612049
GEMS211,2018_Mar_21_1331,Elaine,SF,orientation,8,6,6,13-43;12-34;2-35;10-36,2,SimpleHill,12-34,66,0,selected,12-34,10-33;8-35;15-31;12-39;6-34;6-31,10-33,4.1,62,-4,805.776631527
GEMS211,2018_Mar_21_1331,Elaine,SF,orientation,8,6,6,13-43;12-34;2-35;10-36,2,SimpleHill,12-34,66,1,selected,10-33,16-37;7-33;17-30;11-40;15-39;7-40,16-37,2.54,73,11,811.89519887
GEMS211,2018_Mar_21_1331,Elaine,SF,orientation,8,6,6,13-43;12-34;2-35;10-36,2,SimpleHill,12-34,66,2,selected,16-37,21-37;17-41;18-39;18-44;16-33;10-38,21-37,3.03,79,6,818.484220405
GEMS211,2018_Mar_21_1331,Elaine,SF,orientation,8,6,6,13-43;12-34;2-35;10-36,2,SimpleHill,12-34,66,3,selected,21-37,22-33;19-35;25-31;19-36;22-43;28-34,22-43,3.02,83,4,825.084059143
GEMS211,2018_Mar_21_1331,Elaine,SF,orientation,8,6,6,13-43;12-34;2-35;10-36,2,SimpleHill,12-34,66,4,selected,22-43,20-47;21-41;24-40;27-41;19-45;22-42,21-41,2.51,81,-2,831.138509739
GEMS211,2018_Mar_21_1331,Elaine,SF,orientation,8,6,6,13-43;12-34;2-35;10-36,2,SimpleHill,12-34,66,5,selected,21-41,24-41;25-39;26-43;15-39;26-39;17-41,24-41,3.1,84,3,837.794524692
GEMS211,2018_Mar_21_1331,Elaine,SF,orientation,8,6,6,13-43;12-34;2-35;10-36,2,SimpleHill,12-34,66,6,selected,24-41,26-36;23-47;25-38;21-46;29-36;20-39,23-47,4.89,85,1,846.258718837
GEMS211,2018_Mar_21_1331,Elaine,SF,orientation,8,6,6,13-43;12-34;2-35;10-36,2,SimpleHill,12-34,66,7,selected,23-47,21-40;23-49;28-43;25-43;23-45;25-53,25-53,2.01,87,2,851.827627366
GEMS211,2018_Mar_21_1331,Elaine,SF,orientation,8,6,6,13-43;12-34;2-35;10-36,2,SimpleHill,12-34,66,8,selected,25-53,24-60;19-49;27-60;21-54;30-53;24-56,24-60,4.47,84,-3,859.850355847
GEMS211,2018_Mar_21_1331,Elaine,SF,orientation,8,6,6,13-43;12-34;2-35;10-36,2,SimpleHill,12-34,66,9,selected,24-60,23-61;24-63;23-60;20-61;22-62;20-54,22-62,3.23,81,-3,866.654640796
GEMS211,2018_Mar_21_1331,Elaine,SF,orientation,8,6,6,13-43;12-34;2-35;10-36,2,SimpleHill,12-34,66,10,selected,22-62,22-61;17-61;28-58;29-65;25-69;24-64,17-61,1.13,75,-6,871.369916373
GEMS211,2018_Mar_21_1331,Elaine,SF,orientation,8,6,6,13-43;12-34;2-35;10-36,2,SimpleHill,12-34,66,11,selected,17-61,14-65;13-56;14-61;23-66;11-60;14-60,14-65,3.45,69,-6,878.386481474
GEMS211,2018_Mar_21_1331,Elaine,SF,orientation,8,6,6,13-43;12-34;2-35;10-36,2,SimpleHill,12-34,66,12,selected,14-65,16-62;17-69;9-64;14-58;10-65;11-58,16-62,3.12,74,5,885.05855002
GEMS211,2018_Mar_21_1331,Elaine,SF,orientation,8,6,6,13-43;12-34;2-35;10-36,2,SimpleHill,12-34,66,13,selected,16-62,21-65;14-55;18-69;14-68;15-62;16-63,21-65,2.94,78,4,891.562024943
GEMS211,2018_Mar_21_1331,Elaine,SF,orientation,8,6,6,13-43;12-34;2-35;10-36,2,SimpleHill,12-34,66,14,selected,21-65,22-65;16-66;22-69;24-61;23-58;26-64,24-61,2.76,84,6,897.899590858
GEMS211,2018_Mar_21_1331,Elaine,SF,orientation,8,6,6,13-43;12-34;2-35;10-36,2,SimpleHill,12-34,66,15,selected,24-61,27-64;21-56;21-54;24-61;18-62;17-63,21-56,5.29,82,-2,906.771582069
GEMS211,2018_Mar_21_1331,Elaine,SF,orientation,8,6,6,13-43;12-34;2-35;10-36,2,SimpleHill,12-34,66,16,selected,21-56,16-57;23-55;20-57;17-51;24-53;20-51,16-57,1.19,75,-7,911.507735993
GEMS211,2018_Mar_21_1331,Elaine,SF,orientation,8,6,6,13-43;12-34;2-35;10-36,2,SimpleHill,12-34,66,17,selected,16-57,13-63;15-51;16-54;14-50;17-61;11-56,15-51,1.72,75,0,916.802398324
GEMS211,2018_Mar_21_1331,Elaine,SF,orientation,8,6,6,13-43;12-34;2-35;10-36,2,SimpleHill,12-34,66,18,selected,15-51,14-56;11-56;18-49;17-57;13-48;16-57,17-57,1.49,77,2,921.854467113
GEMS211,2018_Mar_21_1331,Elaine,SF,orientation,8,6,6,13-43;12-34;2-35;10-36,2,SimpleHill,12-34,66,19,selected,17-57,14-60;20-58;17-59;24-54;13-58;18-57,20-58,2.63,80,3,928.054928495
GEMS211,2018_Mar_21_1331,Elaine,SF,orientation,8,6,6,13-43;12-34;2-35;10-36,2,SimpleHill,12-34,66,20,selected,20-58,16-63;27-59;18-53;21-62;27-60;22-53,27-59,1.75,87,7,933.381127929
GEMS211,2018_Mar_21_1331,Elaine,SF,orientation,8,6,6,13-43;12-34;2-35;10-36,2,SimpleHill,12-34,66,21,selected,27-59,34-57;22-55;29-58;26-55;26-59;26-61,22-55,3.38,83,-4,940.336998711
GEMS211,2018_Mar_21_1331,Elaine,SF,orientation,8,6,6,13-43;12-34;2-35;10-36,2,SimpleHill,12-34,66,22,selected,22-55,22-57;20-60;28-57;20-59;21-55;27-58,27-58,3.32,88,5,947.230211408
GEMS211,2018_Mar_21_1331,Elaine,SF,orientation,8,6,6,13-43;12-34;2-35;10-36,2,SimpleHill,12-34,66,23,selected,27-58,25-65;20-55;33-57;32-54;25-53;26-60,32-54,6.07,93,5,956.863641922
GEMS211,2018_Mar_21_1331,Elaine,SF,orientation,8,6,6,13-43;12-34;2-35;10-36,2,SimpleHill,12-34,66,24,selected,32-54,25-55;37-60;26-49;39-56;37-53;28-56,37-60,1.3,94,1,961.730330803
GEMS211,2018_Mar_21_1331,Elaine,SF,orientation,8,6,6,13-43;12-34;2-35;10-36,2,SimpleHill,12-34,66,25,selected,37-60,36-66;33-64;39-56;44-59;35-66;42-54,35-66,7.49,90,-4,972.797870617
GEMS211,2018_Mar_21_1331,Elaine,SF,orientation,8,6,6,13-43;12-34;2-35;10-36,2,SimpleHill,12-34,66,26,selected,35-66,39-70;33-63;39-61;41-70;37-60;41-68,39-70,4.67,89,-1,981.043634355
GEMS211,2018_Mar_21_1331,Elaine,SF,orientation,8,6,6,13-43;12-34;2-35;10-36,2,SimpleHill,12-34,66,27,selected,39-70,34-69;43-64;46-67;38-66;39-62;36-67,43-64,1.91,95,6,986.526175235
GEMS211,2018_Mar_21_1331,Elaine,SF,orientation,8,6,6,13-43;12-34;2-35;10-36,2,SimpleHill,12-34,66,28,selected,43-64,36-65;38-69;45-57;40-69;39-68;43-60,40-69,2.68,90,-5,992.776833185
GEMS211,2018_Mar_21_1331,Elaine,SF,orientation,8,6,6,13-43;12-34;2-35;10-36,2,SimpleHill,12-34,66,29,selected,40-69,37-66;43-67;43-63;35-65;37-64;34-70,43-67,2.48,93,3,998.833997845
GEMS211,2018_Mar_21_1331,Elaine,SF,orientation,8,6,6,13-43;12-34;2-35;10-36,2,SimpleHill,12-34,66,30,selected,43-67,41-66;42-65;40-65;47-64;47-69;42-62,41-66,3.45,93,0,1005.85863728
GEMS211,2018_Mar_21_1331,Elaine,SF,orientation,8,6,6,13-43;12-34;2-35;10-36,2,SimpleHill,12-34,66,31,selected,41-66,42-61;38-64;37-66;43-59;46-68;34-69,34-69,2.8,87,-6,1012.24788435
GEMS211,2018_Mar_21_1331,Elaine,SF,orientation,8,6,6,13-43;12-34;2-35;10-36,2,SimpleHill,12-34,66,32,selected,34-69,30-68;29-64;39-63;38-65;36-70;33-68,36-70,1.55,88,1,1017.37479778
GEMS211,2018_Mar_21_1331,Elaine,SF,orientation,8,6,6,13-43;12-34;2-35;10-36,2,SimpleHill,12-34,66,33,selected,36-70,37-70;33-66;35-63;31-66;36-65;36-66,31-66,3.21,87,-1,1024.13398139
GEMS211,2018_Mar_21_1331,Elaine,SF,orientation,8,6,6,13-43;12-34;2-35;10-36,2,SimpleHill,12-34,66,34,selected,31-66,33-68;30-70;27-67;35-68;28-70;29-60,28-70,4.47,82,-5,1032.16957695
GEMS211,2018_Mar_21_1331,Elaine,SF,orientation,8,6,6,13-43;12-34;2-35;10-36,2,SimpleHill,12-34,66,35,selected,28-70,24-70;31-67;32-69;28-63;33-65;30-65,24-70,3.34,78,-4,1039.07462666
GEMS211,2018_Mar_21_1331,Elaine,SF,orientation,8,6,6,13-43;12-34;2-35;10-36,2,SimpleHill,12-34,66,36,selected,24-70,24-66;20-68;24-69;19-65;20-69;28-68,20-68,0.9,75,-3,1043.54716433
GEMS211,2018_Mar_21_1331,Elaine,SF,orientation,8,6,6,13-43;12-34;2-35;10-36,2,SimpleHill,12-34,66,37,selected,20-68,22-66;18-65;14-70;21-65;23-70;25-63,23-70,3.12,77,2,1050.23640744
GEMS211,2018_Mar_21_1331,Elaine,SF,orientation,8,6,6,13-43;12-34;2-35;10-36,2,SimpleHill,12-34,66,38,selected,23-70,18-67;26-63;18-69;19-65;21-69;25-64,26-63,3.29,85,8,1057.11176378
GEMS211,2018_Mar_21_1331,Elaine,SF,orientation,8,6,6,13-43;12-34;2-35;10-36,2,SimpleHill,12-34,66,39,selected,26-63,27-59;20-60;32-64;30-59;22-58;24-61,27-59,1.41,87,2,1062.090646
GEMS211,2018_Mar_21_1331,Elaine,SF,orientation,8,6,6,13-43;12-34;2-35;10-36,3,SimpleHill,2-35,49,0,selected,2-35,5-33;2-38;6-32;2-27;1-28;7-39,7-39,3.19,60,11,1083.1240358
GEMS211,2018_Mar_21_1331,Elaine,SF,orientation,8,6,6,13-43;12-34;2-35;10-36,3,SimpleHill,2-35,49,1,selected,7-39,7-35;13-43;3-36;1-37;8-41;13-37,13-37,2.76,69,9,1089.45003742
GEMS211,2018_Mar_21_1331,Elaine,SF,orientation,8,6,6,13-43;12-34;2-35;10-36,3,SimpleHill,2-35,49,2,selected,13-37,10-43;12-37;12-35;7-39;13-36;14-37,14-37,2.39,70,1,1095.40604264
GEMS211,2018_Mar_21_1331,Elaine,SF,orientation,8,6,6,13-43;12-34;2-35;10-36,3,SimpleHill,2-35,49,3,selected,14-37,14-40;7-40;16-38;8-39;14-32;14-43,16-38,2.84,74,4,1101.81357915
GEMS211,2018_Mar_21_1331,Elaine,SF,orientation,8,6,6,13-43;12-34;2-35;10-36,3,SimpleHill,2-35,49,4,selected,16-38,14-36;18-44;20-39;14-33;20-44;16-36,18-44,2.62,78,4,1108.00988125
GEMS211,2018_Mar_21_1331,Elaine,SF,orientation,8,6,6,13-43;12-34;2-35;10-36,3,SimpleHill,2-35,49,5,selected,18-44,16-37;11-41;15-43;21-49;18-46;18-40,16-37,3.03,73,-5,1114.60636126
GEMS211,2018_Mar_21_1331,Elaine,SF,orientation,8,6,6,13-43;12-34;2-35;10-36,3,SimpleHill,2-35,49,6,selected,16-37,18-31;22-36;20-38;13-31;14-33;21-38,13-31,2.71,65,-8,1120.87920737
GEMS211,2018_Mar_21_1331,Elaine,SF,orientation,8,6,6,13-43;12-34;2-35;10-36,3,SimpleHill,2-35,49,7,selected,13-31,10-33;18-36;12-31;17-30;15-30;18-31,18-36,2.4,75,10,1126.84764626
GEMS211,2018_Mar_21_1331,Elaine,SF,orientation,8,6,6,13-43;12-34;2-35;10-36,3,SimpleHill,2-35,49,8,selected,18-36,20-43;16-29;18-35;14-30;12-39;24-31,12-39,2.78,68,-7,1133.21578708
GEMS211,2018_Mar_21_1331,Elaine,SF,orientation,8,6,6,13-43;12-34;2-35;10-36,3,SimpleHill,2-35,49,9,selected,12-39,9-41;12-41;10-32;8-38;11-38;8-43,12-41,2.65,69,1,1139.4207192
GEMS211,2018_Mar_21_1331,Elaine,SF,orientation,8,6,6,13-43;12-34;2-35;10-36,3,SimpleHill,2-35,49,10,selected,12-41,15-44;14-47;13-35;7-40;15-47;17-45,15-44,1.18,74,5,1144.16938521
GEMS211,2018_Mar_21_1331,Elaine,SF,orientation,8,6,6,13-43;12-34;2-35;10-36,3,SimpleHill,2-35,49,11,selected,15-44,18-40;11-45;9-49;16-49;12-41;13-40,13-40,2.42,70,-4,1150.15840924
GEMS211,2018_Mar_21_1331,Elaine,SF,orientation,8,6,6,13-43;12-34;2-35;10-36,3,SimpleHill,2-35,49,12,selected,13-40,19-43;13-33;17-34;9-37;14-43;17-45,19-43,1.74,79,9,1155.46530294
GEMS211,2018_Mar_21_1331,Elaine,SF,orientation,8,6,6,13-43;12-34;2-35;10-36,3,SimpleHill,2-35,49,13,selected,19-43,12-45;16-39;23-49;16-36;19-50;26-42,26-42,2.21,87,8,1161.2486004
GEMS211,2018_Mar_21_1331,Elaine,SF,orientation,8,6,6,13-43;12-34;2-35;10-36,3,SimpleHill,2-35,49,14,selected,26-42,23-43;28-44;20-37;28-46;23-45;25-35,25-35,4.76,83,-4,1169.58556934
GEMS211,2018_Mar_21_1331,Elaine,SF,orientation,8,6,6,13-43;12-34;2-35;10-36,3,SimpleHill,2-35,49,15,selected,25-35,27-39;17-35;33-35;20-34;20-36;26-34,33-35,6.76,89,6,1179.92230109
GEMS211,2018_Mar_21_1331,Elaine,SF,orientation,8,6,6,13-43;12-34;2-35;10-36,3,SimpleHill,2-35,49,16,selected,33-35,35-35;37-34;36-33;29-30;33-29;33-43,37-34,1.15,91,2,1184.65573071
GEMS211,2018_Mar_21_1331,Elaine,SF,orientation,8,6,6,13-43;12-34;2-35;10-36,3,SimpleHill,2-35,49,17,selected,37-34,34-30;40-36;42-39;40-27;38-29;41-30,40-27,3.3,87,-4,1191.51735285
GEMS211,2018_Mar_21_1331,Elaine,SF,orientation,8,6,6,13-43;12-34;2-35;10-36,3,SimpleHill,2-35,49,18,selected,40-27,41-25;41-22;45-24;42-33;41-31;39-28,45-24,2.32,85,-2,1197.39620076
GEMS211,2018_Mar_21_1331,Elaine,SF,orientation,8,6,6,13-43;12-34;2-35;10-36,3,SimpleHill,2-35,49,19,selected,45-24,43-26;50-30;42-18;41-28;42-28;41-20,42-18,1.61,78,-7,1202.56219715
GEMS211,2018_Mar_21_1331,Elaine,SF,orientation,8,6,6,13-43;12-34;2-35;10-36,3,SimpleHill,2-35,49,20,selected,42-18,43-22;41-11;39-22;46-21;46-18;46-15,41-11,1.06,67,-11,1207.19096968
GEMS211,2018_Mar_21_1331,Elaine,SF,orientation,8,6,6,13-43;12-34;2-35;10-36,3,SimpleHill,2-35,49,21,selected,41-11,36-16;46-16;38-10;44-9;45-14;36-9,46-16,1.22,76,9,1211.97173616
GEMS211,2018_Mar_21_1331,Elaine,SF,orientation,8,6,6,13-43;12-34;2-35;10-36,3,SimpleHill,2-35,49,22,selected,46-16,52-17;50-13;44-10;50-21;44-12;46-8,50-13,0.77,72,-4,1216.30865869
GEMS211,2018_Mar_21_1331,Elaine,SF,orientation,8,6,6,13-43;12-34;2-35;10-36,3,SimpleHill,2-35,49,23,selected,50-13,56-18;49-12;56-14;45-12;54-9;46-11,56-14,3.54,73,1,1223.40314708
GEMS211,2018_Mar_21_1331,Elaine,SF,orientation,8,6,6,13-43;12-34;2-35;10-36,3,SimpleHill,2-35,49,24,selected,56-14,54-11;51-13;61-15;56-11;57-14;59-18,54-11,0.82,69,-4,1227.8012127
GEMS211,2018_Mar_21_1331,Elaine,SF,orientation,8,6,6,13-43;12-34;2-35;10-36,3,SimpleHill,2-35,49,25,selected,54-11,56-13;48-9;59-11;60-14;51-12;47-14,51-12,0.57,71,2,1231.91652599
GEMS211,2018_Mar_21_1331,Elaine,SF,orientation,8,6,6,13-43;12-34;2-35;10-36,3,SimpleHill,2-35,49,26,selected,51-12,55-15;48-7;51-20;55-11;58-10;52-8,48-7,2.56,62,-9,1238.02922636
GEMS211,2018_Mar_21_1331,Elaine,SF,orientation,8,6,6,13-43;12-34;2-35;10-36,3,SimpleHill,2-35,49,27,selected,48-7,51-6;45-5;49-2;46-2;43-5;55-6,49-2,0.89,53,-9,1242.48832367
GEMS211,2018_Mar_21_1331,Elaine,SF,orientation,8,6,6,13-43;12-34;2-35;10-36,3,SimpleHill,2-35,49,28,selected,49-2,52-1;55-7;47-3;56-2;47-6;44-1,56-2,1.97,53,0,1248.03040846
GEMS211,2018_Mar_21_1331,Elaine,SF,orientation,8,6,6,13-43;12-34;2-35;10-36,3,SimpleHill,2-35,49,29,selected,56-2,59-0;58-6;51-8;63-4;56-1;57-0,59-0,1.17,48,-5,1252.77064228
GEMS211,2018_Mar_21_1331,Elaine,SF,orientation,8,6,6,13-43;12-34;2-35;10-36,3,SimpleHill,2-35,49,30,selected,59-0,59-8;62-3;62-7;56-0;62-0;54-2,62-3,0.7,52,4,1257.04662722
GEMS211,2018_Mar_21_1331,Elaine,SF,orientation,8,6,6,13-43;12-34;2-35;10-36,3,SimpleHill,2-35,49,31,selected,62-3,61-8;58-7;60-10;65-4;59-8;60-6,60-6,0.29,59,7,1260.90912097
GEMS211,2018_Mar_21_1331,Elaine,SF,orientation,8,6,6,13-43;12-34;2-35;10-36,3,SimpleHill,2-35,49,32,selected,60-6,58-9;63-4;54-5;55-4;61-2;62-1,61-2,0.88,51,-8,1265.33880179
GEMS211,2018_Mar_21_1331,Elaine,SF,orientation,8,6,6,13-43;12-34;2-35;10-36,3,SimpleHill,2-35,49,33,selected,61-2,61-1;64-7;62-4;59-3;64-5;60-8,64-7,1.75,59,8,1270.65536933
GEMS211,2018_Mar_21_1331,Elaine,SF,orientation,8,6,6,13-43;12-34;2-35;10-36,3,SimpleHill,2-35,49,34,selected,64-7,66-3;61-4;66-7;65-4;69-1;61-3,61-4,0.6,55,-4,1274.8168028
GEMS211,2018_Mar_21_1331,Elaine,SF,orientation,8,6,6,13-43;12-34;2-35;10-36,3,SimpleHill,2-35,49,35,selected,61-4,61-2;63-1;54-6;57-2;66-2;55-6,61-2,1.7,51,-4,1280.08564648
GEMS211,2018_Mar_21_1331,Elaine,SF,orientation,8,6,6,13-43;12-34;2-35;10-36,3,SimpleHill,2-35,49,36,selected,61-2,67-3;57-7;66-1;62-1;56-7;65-5,62-1,5.37,49,-2,1289.02797159
GEMS211,2018_Mar_21_1331,Elaine,SF,orientation,8,6,6,13-43;12-34;2-35;10-36,3,SimpleHill,2-35,49,37,selected,62-1,61-0;64-7;61-8;66-5;61-2;58-7,64-7,1.6,59,10,1294.21571442
GEMS211,2018_Mar_21_1331,Elaine,SF,orientation,8,6,6,13-43;12-34;2-35;10-36,3,SimpleHill,2-35,49,38,selected,64-7,66-9;69-1;62-9;70-11;67-2;61-12,62-9,1.85,63,4,1299.63399132
GEMS211,2018_Mar_21_1331,Elaine,SF,orientation,8,6,6,13-43;12-34;2-35;10-36,3,SimpleHill,2-35,49,39,selected,62-9,64-8;65-8;65-6;69-7;59-11;68-12,59-11,2.08,67,4,1305.29754668
GEMS211,2018_Mar_21_1331,Elaine,SF,orientation,8,6,6,13-43;12-34;2-35;10-36,4,SimpleHill,10-36,64,0,selected,10-36,3-39;7-30;7-43;4-34;12-41;14-38,14-38,3.39,71,7,1319.62838938
GEMS211,2018_Mar_21_1331,Elaine,SF,orientation,8,6,6,13-43;12-34;2-35;10-36,4,SimpleHill,10-36,64,1,selected,14-38,11-35;19-42;17-42;12-39;10-37;11-40,19-42,1.05,79,8,1324.24289187
GEMS211,2018_Mar_21_1331,Elaine,SF,orientation,8,6,6,13-43;12-34;2-35;10-36,4,SimpleHill,10-36,64,2,selected,19-42,13-41;21-35;21-41;23-38;19-49;25-41,21-41,2.74,81,2,1330.55404152
GEMS211,2018_Mar_21_1331,Elaine,SF,orientation,8,6,6,13-43;12-34;2-35;10-36,4,SimpleHill,10-36,64,3,selected,21-41,19-45;28-40;18-35;22-44;20-48;21-45,19-45,1.15,80,-1,1335.26554705
GEMS211,2018_Mar_21_1331,Elaine,SF,orientation,8,6,6,13-43;12-34;2-35;10-36,4,SimpleHill,10-36,64,4,selected,19-45,25-46;25-47;14-48;21-48;14-42;14-46,14-42,0.44,72,-8,1339.28060611
GEMS211,2018_Mar_21_1331,Elaine,SF,orientation,8,6,6,13-43;12-34;2-35;10-36,4,SimpleHill,10-36,64,5,selected,14-42,13-41;16-49;11-47;9-37;21-45;19-46,9-37,0.6,63,-9,1343.46350819
GEMS211,2018_Mar_21_1331,Elaine,SF,orientation,8,6,6,13-43;12-34;2-35;10-36,4,SimpleHill,10-36,64,6,selected,9-37,7-33;14-35;12-33;13-38;3-35;5-42,12-33,1.73,65,2,1348.77170466
GEMS211,2018_Mar_21_1331,Elaine,SF,orientation,8,6,6,13-43;12-34;2-35;10-36,4,SimpleHill,10-36,64,7,selected,12-33,15-27;12-41;13-32;17-39;18-34;10-37,10-37,1.0,64,-1,1353.33595617
GEMS211,2018_Mar_21_1331,Elaine,SF,orientation,8,6,6,13-43;12-34;2-35;10-36,4,SimpleHill,10-36,64,8,selected,10-37,6-39;5-39;3-40;14-42;10-44;13-42,5-39,1.11,57,-7,1358.02355176
GEMS211,2018_Mar_21_1331,Elaine,SF,orientation,8,6,6,13-43;12-34;2-35;10-36,4,SimpleHill,10-36,64,9,selected,5-39,11-43;1-37;4-43;4-46;12-37;7-40,11-43,0.83,68,11,1362.41874519
GEMS211,2018_Mar_21_1331,Elaine,SF,orientation,8,6,6,13-43;12-34;2-35;10-36,4,SimpleHill,10-36,64,10,selected,11-43,9-44;9-50;10-42;6-40;11-35;18-42,11-35,4.54,65,-3,1370.53035084
GEMS211,2018_Mar_21_1331,Elaine,SF,orientation,8,6,6,13-43;12-34;2-35;10-36,4,SimpleHill,10-36,64,11,selected,11-35,9-35;12-35;17-35;15-32;12-30;12-38,12-30,7.59,63,-2,1381.73717822
GEMS211,2018_Mar_21_1331,Elaine,SF,orientation,8,6,6,13-43;12-34;2-35;10-36,4,SimpleHill,10-36,64,12,selected,12-30,12-36;9-34;14-25;7-24;11-37;13-31,11-37,8.51,66,3,1393.81140572
GEMS211,2018_Mar_21_1331,Elaine,SF,orientation,8,6,6,13-43;12-34;2-35;10-36,4,SimpleHill,10-36,64,13,selected,11-37,15-35;4-36;14-39;16-31;13-30;10-41,4-36,3.74,53,-13,1401.12611928
GEMS211,2018_Mar_21_1331,Elaine,SF,orientation,8,6,6,13-43;12-34;2-35;10-36,4,SimpleHill,10-36,64,14,selected,4-36,3-43;0-40;3-30;11-34;6-43;1-43,3-30,0.87,47,-6,1405.5630009
GEMS211,2018_Mar_21_1331,Elaine,SF,orientation,8,6,6,13-43;12-34;2-35;10-36,4,SimpleHill,10-36,64,15,selected,3-30,9-25;3-36;3-35;7-28;4-28;4-33,9-25,0.6,53,6,1409.7307895
GEMS211,2018_Mar_21_1331,Elaine,SF,orientation,8,6,6,13-43;12-34;2-35;10-36,4,SimpleHill,10-36,64,16,selected,9-25,2-25;8-26;2-24;12-25;14-20;14-25,12-25,1.62,58,5,1414.90588099
GEMS211,2018_Mar_21_1331,Elaine,SF,orientation,8,6,6,13-43;12-34;2-35;10-36,4,SimpleHill,10-36,64,17,selected,12-25,7-29;10-21;17-28;10-22;12-17;6-29,12-17,1.01,49,-9,1419.46633076
GEMS211,2018_Mar_21_1331,Elaine,SF,orientation,8,6,6,13-43;12-34;2-35;10-36,4,SimpleHill,10-36,64,18,selected,12-17,16-21;13-10;13-19;15-24;13-20;14-16,13-19,0.58,53,4,1423.63012748
GEMS211,2018_Mar_21_1331,Elaine,SF,orientation,8,6,6,13-43;12-34;2-35;10-36,4,SimpleHill,10-36,64,19,selected,13-19,9-25;14-23;8-16;19-20;14-18;12-15,14-23,0.49,59,6,1427.69551627
GEMS211,2018_Mar_21_1331,Elaine,SF,orientation,8,6,6,13-43;12-34;2-35;10-36,4,SimpleHill,10-36,64,20,selected,14-23,17-18;14-26;21-26;8-18;12-19;13-19,13-19,1.04,53,-6,1432.29472507
GEMS211,2018_Mar_21_1331,Elaine,SF,orientation,8,6,6,13-43;12-34;2-35;10-36,4,SimpleHill,10-36,64,21,selected,13-19,20-22;17-22;9-25;8-22;20-19;12-18,9-25,1.34,53,0,1437.20448206
GEMS211,2018_Mar_21_1331,Elaine,SF,orientation,8,6,6,13-43;12-34;2-35;10-36,4,SimpleHill,10-36,64,22,selected,9-25,6-22;13-27;6-25;5-24;7-18;5-22,6-22,1.17,45,-8,1441.93715242
GEMS211,2018_Mar_21_1331,Elaine,SF,orientation,8,6,6,13-43;12-34;2-35;10-36,4,SimpleHill,10-36,64,23,selected,6-22,1-23;8-29;3-15;3-16;2-23;4-28,3-16,0.85,32,-13,1446.36230906
GEMS211,2018_Mar_21_1331,Elaine,SF,orientation,8,6,6,13-43;12-34;2-35;10-36,4,SimpleHill,10-36,64,24,selected,3-16,8-16;7-17;2-11;1-16;6-14;0-19,7-17,0.48,41,9,1450.3992474
GEMS211,2018_Mar_21_1331,Elaine,SF,orientation,8,6,6,13-43;12-34;2-35;10-36,4,SimpleHill,10-36,64,25,selected,7-17,6-11;8-24;13-17;14-16;7-19;7-21,7-19,1.13,43,2,1455.08776357
GEMS211,2018_Mar_21_1331,Elaine,SF,orientation,8,6,6,13-43;12-34;2-35;10-36,4,SimpleHill,10-36,64,26,selected,7-19,7-23;10-25;7-25;11-16;5-14;14-21,7-25,0.71,50,7,1459.36103701
GEMS211,2018_Mar_21_1331,Elaine,SF,orientation,8,6,6,13-43;12-34;2-35;10-36,4,SimpleHill,10-36,64,27,selected,7-25,7-31;12-22;10-29;7-24;12-23;5-27,7-31,1.04,55,5,1463.96168014
GEMS211,2018_Mar_21_1331,Elaine,SF,orientation,8,6,6,13-43;12-34;2-35;10-36,4,SimpleHill,10-36,64,28,selected,7-31,13-28;11-27;8-35;7-30;2-36;8-27,11-27,1.13,59,4,1468.66627839
GEMS211,2018_Mar_21_1331,Elaine,SF,orientation,8,6,6,13-43;12-34;2-35;10-36,4,SimpleHill,10-36,64,29,selected,11-27,18-27;8-27;16-32;9-27;16-33;12-26,16-32,0.69,70,11,1472.92769209
GEMS211,2018_Mar_21_1331,Elaine,SF,orientation,8,6,6,13-43;12-34;2-35;10-36,4,SimpleHill,10-36,64,30,selected,16-32,21-26;18-35;19-39;13-28;13-39;20-26,19-39,0.96,78,8,1477.45500589
GEMS211,2018_Mar_21_1331,Elaine,SF,orientation,8,6,6,13-43;12-34;2-35;10-36,4,SimpleHill,10-36,64,31,selected,19-39,23-42;17-42;17-38;16-37;18-43;20-36,17-42,0.86,76,-2,1481.88679228
GEMS211,2018_Mar_21_1331,Elaine,SF,orientation,8,6,6,13-43;12-34;2-35;10-36,4,SimpleHill,10-36,64,32,selected,17-42,11-44;24-44;20-40;23-45;18-47;15-44,11-44,0.6,68,-8,1486.06259055
GEMS211,2018_Mar_21_1331,Elaine,SF,orientation,8,6,6,13-43;12-34;2-35;10-36,4,SimpleHill,10-36,64,33,selected,11-44,11-52;9-48;16-44;13-48;13-47;11-39,13-48,1.37,72,4,1490.98845043
GEMS211,2018_Mar_21_1331,Elaine,SF,orientation,8,6,6,13-43;12-34;2-35;10-36,4,SimpleHill,10-36,64,34,selected,13-48,9-46;15-41;17-52;16-55;13-54;8-50,13-54,0.62,72,0,1495.1940829
GEMS211,2018_Mar_21_1331,Elaine,SF,orientation,8,6,6,13-43;12-34;2-35;10-36,4,SimpleHill,10-36,64,35,selected,13-54,14-49;18-56;14-54;15-55;15-60;18-60,14-54,0.7,73,1,1499.45909891
GEMS211,2018_Mar_21_1331,Elaine,SF,orientation,8,6,6,13-43;12-34;2-35;10-36,4,SimpleHill,10-36,64,36,selected,14-54,8-55;8-59;10-52;17-50;14-54;14-53,14-53,0.51,73,0,1503.54392692
GEMS211,2018_Mar_21_1331,Elaine,SF,orientation,8,6,6,13-43;12-34;2-35;10-36,4,SimpleHill,10-36,64,37,selected,14-53,11-53;9-50;12-53;19-52;9-57;16-55,9-50,0.62,66,-7,1507.73203337
GEMS211,2018_Mar_21_1331,Elaine,SF,orientation,8,6,6,13-43;12-34;2-35;10-36,4,SimpleHill,10-36,64,38,selected,9-50,16-49;10-53;4-47;9-44;12-46;7-43,4-47,0.51,57,-9,1511.82666453
GEMS211,2018_Mar_21_1331,Elaine,SF,orientation,8,6,6,13-43;12-34;2-35;10-36,4,SimpleHill,10-36,64,39,selected,4-47,1-52;10-49;1-53;1-46;12-47;4-48,10-49,1.4,67,10,1516.79812509
