subj_id,date,computer,experimenter,instructions,sight_radius,n_gabors,start_pos_list_ix,start_pos_list,landscape_ix,landscape_name,starting_pos,starting_score,trial,feedback,pos,stims,selected,rt,score,delta,exp_time
GEMS243,2018_Apr_26_1103,Elaine,MP,spatial_frequency,8,6,0,0-0;0-0;0-0;0-0,0,SpatialFrequencyBias,0-0,0,0,training,0-0,5-0;2-5;2-2;0-7;0-0;4-5,2-5,6.75,19,19,175.653138243
GEMS243,2018_Apr_26_1103,Elaine,MP,spatial_frequency,8,6,0,0-0;0-0;0-0;0-0,0,SpatialFrequencyBias,0-0,0,1,training,2-5,2-12;9-5;5-8;4-3;6-8;5-12,4-3,1.62,11,-8,183.827875262
GEMS243,2018_Apr_26_1103,Elaine,MP,spatial_frequency,8,6,0,0-0;0-0;0-0;0-0,0,SpatialFrequencyBias,0-0,0,2,training,4-3,1-4;2-10;9-0;12-3;8-6;1-0,2-10,5.52,36,25,198.844396879
GEMS243,2018_Apr_26_1103,Elaine,MP,spatial_frequency,8,6,0,0-0;0-0;0-0;0-0,0,SpatialFrequencyBias,0-0,0,3,training,2-10,1-7;2-14;5-13;2-17;5-7;7-9,2-17,5.06,56,20,210.322272189
GEMS243,2018_Apr_26_1103,Elaine,MP,spatial_frequency,8,6,0,0-0;0-0;0-0;0-0,0,SpatialFrequencyBias,0-0,0,4,training,2-17,8-20;1-19;7-22;5-23;1-14;2-20,5-23,9.09,70,14,222.168070756
GEMS243,2018_Apr_26_1103,Elaine,MP,spatial_frequency,8,6,0,0-0;0-0;0-0;0-0,0,SpatialFrequencyBias,0-0,0,5,training,5-23,7-18;9-26;5-24;11-26;12-22;0-27,9-26,5.26,76,6,230.693899566
GEMS243,2018_Apr_26_1103,Elaine,MP,spatial_frequency,8,6,0,0-0;0-0;0-0;0-0,0,SpatialFrequencyBias,0-0,0,6,training,9-26,10-19;6-33;14-21;6-25;9-21;10-27,6-33,5.73,88,12,242.970999866
GEMS243,2018_Apr_26_1103,Elaine,MP,spatial_frequency,8,6,0,0-0;0-0;0-0;0-0,0,SpatialFrequencyBias,0-0,0,7,training,6-33,3-31;5-37;9-31;8-39;7-34;12-29,3-31,13.06,85,-3,259.127856153
GEMS243,2018_Apr_26_1103,Elaine,MP,spatial_frequency,8,6,0,0-0;0-0;0-0;0-0,0,SpatialFrequencyBias,0-0,0,8,training,3-31,4-25;10-29;7-31;0-35;2-36;1-35,2-36,6.58,92,7,271.462838607
GEMS243,2018_Apr_26_1103,Elaine,MP,spatial_frequency,8,6,0,0-0;0-0;0-0;0-0,0,SpatialFrequencyBias,0-0,0,9,training,2-36,2-44;7-36;4-29;9-35;2-42;1-34,2-42,5.54,97,5,279.677889779
GEMS243,2018_Apr_26_1103,Elaine,MP,spatial_frequency,8,6,0,0-0;0-0;0-0;0-0,0,SpatialFrequencyBias,0-0,0,10,training,2-42,2-45;1-42;2-44;9-40;4-48;2-49,9-40,3.92,96,-1,287.126360997
GEMS243,2018_Apr_26_1103,Elaine,MP,spatial_frequency,8,6,0,0-0;0-0;0-0;0-0,0,SpatialFrequencyBias,0-0,0,11,training,9-40,14-39;11-40;3-38;10-45;4-35;16-43,11-40,6.2,96,0,298.233072745
GEMS243,2018_Apr_26_1103,Elaine,MP,spatial_frequency,8,6,0,0-0;0-0;0-0;0-0,0,SpatialFrequencyBias,0-0,0,12,training,11-40,12-34;4-42;7-44;11-39;10-44;8-33,11-39,6.64,95,-1,308.564299865
GEMS243,2018_Apr_26_1103,Elaine,MP,spatial_frequency,8,6,0,0-0;0-0;0-0;0-0,0,SpatialFrequencyBias,0-0,0,13,training,11-39,5-37;18-39;8-41;16-39;9-45;12-46,8-41,3.65,96,1,316.587695485
GEMS243,2018_Apr_26_1103,Elaine,MP,spatial_frequency,8,6,0,0-0;0-0;0-0;0-0,0,SpatialFrequencyBias,0-0,0,14,training,8-41,9-40;11-39;10-37;10-34;5-45;6-40,5-45,3.54,99,3,326.587409322
GEMS243,2018_Apr_26_1103,Elaine,MP,spatial_frequency,8,6,0,0-0;0-0;0-0;0-0,0,SpatialFrequencyBias,0-0,0,15,training,5-45,6-40;4-47;1-46;5-48;8-44;5-49,5-48,9.27,99,0,338.325318837
GEMS243,2018_Apr_26_1103,Elaine,MP,spatial_frequency,8,6,0,0-0;0-0;0-0;0-0,0,SpatialFrequencyBias,0-0,0,16,training,5-48,3-48;4-54;2-42;6-47;1-52;7-42,1-52,7.85,99,0,349.450833187
GEMS243,2018_Apr_26_1103,Elaine,MP,spatial_frequency,8,6,0,0-0;0-0;0-0;0-0,0,SpatialFrequencyBias,0-0,0,17,training,1-52,0-45;4-50;5-55;6-54;1-60;0-51,4-50,5.3,100,1,357.456914
GEMS243,2018_Apr_26_1103,Elaine,MP,spatial_frequency,8,6,0,0-0;0-0;0-0;0-0,0,SpatialFrequencyBias,0-0,0,18,training,4-50,4-56;11-51;11-50;10-54;3-52;5-45,11-50,8.63,100,0,368.699921161
GEMS243,2018_Apr_26_1103,Elaine,MP,spatial_frequency,8,6,0,0-0;0-0;0-0;0-0,0,SpatialFrequencyBias,0-0,0,19,training,11-50,6-56;16-49;4-52;15-49;11-54;10-44,16-49,4.33,99,-1,376.479700802
GEMS243,2018_Apr_26_1103,Elaine,MP,spatial_frequency,8,6,0,0-0;0-0;0-0;0-0,0,SpatialFrequencyBias,0-0,0,20,training,16-49,20-55;12-47;18-49;19-50;22-46;21-53,19-50,10.43,100,1,390.982969435
GEMS243,2018_Apr_26_1103,Elaine,MP,spatial_frequency,8,6,0,0-0;0-0;0-0;0-0,0,SpatialFrequencyBias,0-0,0,21,training,19-50,21-49;14-51;26-47;24-45;13-46;21-56,14-51,8.37,99,-1,402.757327336
GEMS243,2018_Apr_26_1103,Elaine,MP,spatial_frequency,8,6,0,0-0;0-0;0-0;0-0,0,SpatialFrequencyBias,0-0,0,22,training,14-51,15-53;8-56;18-54;16-44;20-47;13-56,13-56,3.34,98,-1,408.986560242
GEMS243,2018_Apr_26_1103,Elaine,MP,spatial_frequency,8,6,0,0-0;0-0;0-0;0-0,0,SpatialFrequencyBias,0-0,0,23,training,13-56,17-56;16-58;14-62;13-61;17-59;16-52,16-58,4.46,97,-1,416.532248601
GEMS243,2018_Apr_26_1103,Elaine,MP,spatial_frequency,8,6,0,0-0;0-0;0-0;0-0,0,SpatialFrequencyBias,0-0,0,24,training,16-58,21-62;16-57;17-58;20-53;10-63;15-52,17-58,2.96,97,0,423.020263507
GEMS243,2018_Apr_26_1103,Elaine,MP,spatial_frequency,8,6,0,0-0;0-0;0-0;0-0,0,SpatialFrequencyBias,0-0,0,25,training,17-58,24-60;17-59;12-53;16-60;18-58;17-62,18-58,11.14,97,0,437.396763985
GEMS243,2018_Apr_26_1103,Elaine,MP,spatial_frequency,8,6,0,0-0;0-0;0-0;0-0,0,SpatialFrequencyBias,0-0,0,26,training,18-58,11-58;22-52;17-62;24-59;18-53;19-57,11-58,3.19,97,0,443.73387634
GEMS243,2018_Apr_26_1103,Elaine,MP,spatial_frequency,8,6,0,0-0;0-0;0-0;0-0,0,SpatialFrequencyBias,0-0,0,27,training,11-58,10-59;11-56;8-56;10-63;17-53;4-61,10-63,3.33,93,-4,450.213572021
GEMS243,2018_Apr_26_1103,Elaine,MP,spatial_frequency,8,6,0,0-0;0-0;0-0;0-0,0,SpatialFrequencyBias,0-0,0,28,training,10-63,8-56;10-59;5-58;8-70;11-64;16-60,5-58,1.22,97,4,454.864597648
GEMS243,2018_Apr_26_1103,Elaine,MP,spatial_frequency,8,6,0,0-0;0-0;0-0;0-0,0,SpatialFrequencyBias,0-0,0,29,training,5-58,7-62;4-64;2-59;4-63;1-59;5-58,4-63,4.05,93,-4,462.472409717
GEMS243,2018_Apr_26_1103,Elaine,MP,spatial_frequency,8,6,0,0-0;0-0;0-0;0-0,1,SimpleHill,0-0,0,0,selected,0-0,3-4;2-7;6-1;4-1;2-4;6-3,2-7,6.36,16,16,496.133533008
GEMS243,2018_Apr_26_1103,Elaine,MP,spatial_frequency,8,6,0,0-0;0-0;0-0;0-0,1,SimpleHill,0-0,0,1,selected,2-7,1-3;10-7;0-14;1-7;0-11;4-13,0-14,3.51,24,8,503.213632518
GEMS243,2018_Apr_26_1103,Elaine,MP,spatial_frequency,8,6,0,0-0;0-0;0-0;0-0,1,SimpleHill,0-0,0,2,selected,0-14,4-11;6-13;2-20;3-18;1-16;5-20,2-20,8.93,35,11,515.721276186
GEMS243,2018_Apr_26_1103,Elaine,MP,spatial_frequency,8,6,0,0-0;0-0;0-0;0-0,1,SimpleHill,0-0,0,3,selected,2-20,3-19;2-19;5-16;7-21;7-17;7-15,7-21,3.73,46,11,523.024544115
GEMS243,2018_Apr_26_1103,Elaine,MP,spatial_frequency,8,6,0,0-0;0-0;0-0;0-0,1,SimpleHill,0-0,0,4,selected,7-21,8-28;10-28;8-16;1-22;2-19;3-19,10-28,4.82,58,12,531.433145471
GEMS243,2018_Apr_26_1103,Elaine,MP,spatial_frequency,8,6,0,0-0;0-0;0-0;0-0,1,SimpleHill,0-0,0,5,selected,10-28,15-34;12-34;8-31;15-31;9-33;6-30,12-34,3.19,66,8,538.187147037
GEMS243,2018_Apr_26_1103,Elaine,MP,spatial_frequency,8,6,0,0-0;0-0;0-0;0-0,1,SimpleHill,0-0,0,6,selected,12-34,9-28;18-35;8-37;9-31;7-34;18-36,8-37,2.45,61,-5,544.196857708
GEMS243,2018_Apr_26_1103,Elaine,MP,spatial_frequency,8,6,0,0-0;0-0;0-0;0-0,1,SimpleHill,0-0,0,7,selected,8-37,12-35;3-35;13-36;10-35;5-30;15-39,15-39,4.14,73,12,551.91643708
GEMS243,2018_Apr_26_1103,Elaine,MP,spatial_frequency,8,6,0,0-0;0-0;0-0;0-0,1,SimpleHill,0-0,0,8,selected,15-39,15-37;15-36;10-33;16-35;18-43;17-44,17-44,3.75,77,4,559.229746336
GEMS243,2018_Apr_26_1103,Elaine,MP,spatial_frequency,8,6,0,0-0;0-0;0-0;0-0,1,SimpleHill,0-0,0,9,selected,17-44,12-50;21-47;15-45;10-46;22-47;17-36,21-47,4.65,83,6,567.436290388
GEMS243,2018_Apr_26_1103,Elaine,MP,spatial_frequency,8,6,0,0-0;0-0;0-0;0-0,1,SimpleHill,0-0,0,10,selected,21-47,21-47;18-41;22-47;22-53;28-47;15-45,22-47,3.37,84,1,574.378952392
GEMS243,2018_Apr_26_1103,Elaine,MP,spatial_frequency,8,6,0,0-0;0-0;0-0;0-0,1,SimpleHill,0-0,0,11,selected,22-47,27-42;22-54;24-51;28-47;18-49;24-53,24-51,5.31,86,2,583.278141564
GEMS243,2018_Apr_26_1103,Elaine,MP,spatial_frequency,8,6,0,0-0;0-0;0-0;0-0,1,SimpleHill,0-0,0,12,selected,24-51,25-54;21-57;27-45;17-51;22-45;30-53,21-57,4.06,82,-4,590.914400966
GEMS243,2018_Apr_26_1103,Elaine,MP,spatial_frequency,8,6,0,0-0;0-0;0-0;0-0,1,SimpleHill,0-0,0,13,selected,21-57,25-55;25-61;20-63;16-58;24-64;21-65,16-58,5.84,75,-7,600.329729403
GEMS243,2018_Apr_26_1103,Elaine,MP,spatial_frequency,8,6,0,0-0;0-0;0-0;0-0,1,SimpleHill,0-0,0,14,selected,16-58,11-59;16-52;23-57;20-52;16-62;22-56,23-57,4.13,84,9,608.026919848
GEMS243,2018_Apr_26_1103,Elaine,MP,spatial_frequency,8,6,0,0-0;0-0;0-0;0-0,1,SimpleHill,0-0,0,15,selected,23-57,20-64;19-60;17-53;15-57;22-61;27-62,20-64,3.82,78,-6,615.407789919
GEMS243,2018_Apr_26_1103,Elaine,MP,spatial_frequency,8,6,0,0-0;0-0;0-0;0-0,1,SimpleHill,0-0,0,16,selected,20-64,17-69;17-67;22-65;24-66;23-64;15-60,17-67,6.39,72,-6,625.372077108
GEMS243,2018_Apr_26_1103,Elaine,MP,spatial_frequency,8,6,0,0-0;0-0;0-0;0-0,1,SimpleHill,0-0,0,17,selected,17-67,20-60;23-66;14-68;19-61;22-61;23-65,14-68,3.5,67,-5,632.448705527
GEMS243,2018_Apr_26_1103,Elaine,MP,spatial_frequency,8,6,0,0-0;0-0;0-0;0-0,1,SimpleHill,0-0,0,18,selected,14-68,8-69;12-62;11-65;19-62;18-63;7-65,11-65,5.12,65,-2,641.145036841
GEMS243,2018_Apr_26_1103,Elaine,MP,spatial_frequency,8,6,0,0-0;0-0;0-0;0-0,1,SimpleHill,0-0,0,19,selected,11-65,7-59;17-64;6-70;18-62;11-64;6-59,7-59,3.82,61,-4,648.544367014
GEMS243,2018_Apr_26_1103,Elaine,MP,spatial_frequency,8,6,0,0-0;0-0;0-0;0-0,1,SimpleHill,0-0,0,20,selected,7-59,8-61;9-60;12-54;7-52;3-64;2-58,3-64,4.11,51,-10,656.20472048
GEMS243,2018_Apr_26_1103,Elaine,MP,spatial_frequency,8,6,0,0-0;0-0;0-0;0-0,1,SimpleHill,0-0,0,21,selected,3-64,1-57;3-61;8-64;5-63;9-68;1-67,5-63,6.32,56,5,666.080727854
GEMS243,2018_Apr_26_1103,Elaine,MP,spatial_frequency,8,6,0,0-0;0-0;0-0;0-0,1,SimpleHill,0-0,0,22,selected,5-63,2-61;7-62;6-60;9-66;11-68;4-58,4-58,5.74,56,0,675.386360312
GEMS243,2018_Apr_26_1103,Elaine,MP,spatial_frequency,8,6,0,0-0;0-0;0-0;0-0,1,SimpleHill,0-0,0,23,selected,4-58,10-62;2-65;6-64;5-51;4-52;10-54,10-62,8.53,65,9,687.481239811
GEMS243,2018_Apr_26_1103,Elaine,MP,spatial_frequency,8,6,0,0-0;0-0;0-0;0-0,1,SimpleHill,0-0,0,24,selected,10-62,8-63;13-64;9-57;17-65;7-59;11-61,8-63,15.0,61,-4,706.064925167
GEMS243,2018_Apr_26_1103,Elaine,MP,spatial_frequency,8,6,0,0-0;0-0;0-0;0-0,1,SimpleHill,0-0,0,25,selected,8-63,7-68;6-57;10-67;16-63;3-68;7-65,3-68,2.59,49,-12,712.214887604
GEMS243,2018_Apr_26_1103,Elaine,MP,spatial_frequency,8,6,0,0-0;0-0;0-0;0-0,1,SimpleHill,0-0,0,26,selected,3-68,1-63;6-66;7-69;1-68;2-63;5-66,2-63,3.36,50,1,719.159553073
GEMS243,2018_Apr_26_1103,Elaine,MP,spatial_frequency,8,6,0,0-0;0-0;0-0;0-0,1,SimpleHill,0-0,0,27,selected,2-63,1-58;7-59;1-63;5-58;5-62;0-62,5-62,3.88,56,6,726.60929058
GEMS243,2018_Apr_26_1103,Elaine,MP,spatial_frequency,8,6,0,0-0;0-0;0-0;0-0,1,SimpleHill,0-0,0,28,selected,5-62,0-58;6-61;1-61;13-62;9-60;3-63,3-63,5.65,52,-4,735.816369828
GEMS243,2018_Apr_26_1103,Elaine,MP,spatial_frequency,8,6,0,0-0;0-0;0-0;0-0,1,SimpleHill,0-0,0,29,selected,3-63,3-66;9-61;7-59;5-65;7-61;8-69,8-69,4.14,57,5,743.54047724
GEMS243,2018_Apr_26_1103,Elaine,MP,spatial_frequency,8,6,0,0-0;0-0;0-0;0-0,1,SimpleHill,0-0,0,30,selected,8-69,2-70;1-69;10-67;11-64;13-67;3-68,11-64,5.02,65,8,752.132567286
GEMS243,2018_Apr_26_1103,Elaine,MP,spatial_frequency,8,6,0,0-0;0-0;0-0;0-0,1,SimpleHill,0-0,0,31,selected,11-64,10-70;17-63;7-67;3-64;6-64;10-58,10-70,2.93,60,-5,758.639250354
GEMS243,2018_Apr_26_1103,Elaine,MP,spatial_frequency,8,6,0,0-0;0-0;0-0;0-0,1,SimpleHill,0-0,0,32,selected,10-70,17-67;5-67;16-67;7-64;16-70;12-70,17-67,2.14,72,12,764.350701597
GEMS243,2018_Apr_26_1103,Elaine,MP,spatial_frequency,8,6,0,0-0;0-0;0-0;0-0,1,SimpleHill,0-0,0,33,selected,17-67,16-70;15-63;10-69;12-66;16-69;22-64,16-70,1.87,68,-4,769.783716469
GEMS243,2018_Apr_26_1103,Elaine,MP,spatial_frequency,8,6,0,0-0;0-0;0-0;0-0,1,SimpleHill,0-0,0,34,selected,16-70,16-66;15-68;21-64;11-68;19-66;20-65,21-64,3.38,79,11,776.73274513
GEMS243,2018_Apr_26_1103,Elaine,MP,spatial_frequency,8,6,0,0-0;0-0;0-0;0-0,1,SimpleHill,0-0,0,35,selected,21-64,21-67;22-59;22-58;24-61;27-69;25-62,25-62,6.34,84,5,786.646749821
GEMS243,2018_Apr_26_1103,Elaine,MP,spatial_frequency,8,6,0,0-0;0-0;0-0;0-0,1,SimpleHill,0-0,0,36,selected,25-62,21-60;31-60;25-66;30-56;23-64;31-63,31-63,3.24,89,5,793.450215407
GEMS243,2018_Apr_26_1103,Elaine,MP,spatial_frequency,8,6,0,0-0;0-0;0-0;0-0,1,SimpleHill,0-0,0,37,selected,31-63,25-66;34-62;34-56;28-64;31-69;33-69,33-69,2.56,87,-2,799.588781882
GEMS243,2018_Apr_26_1103,Elaine,MP,spatial_frequency,8,6,0,0-0;0-0;0-0;0-0,1,SimpleHill,0-0,0,38,selected,33-69,31-67;40-67;35-67;26-69;36-66;31-64,31-64,4.77,88,1,807.942328788
GEMS243,2018_Apr_26_1103,Elaine,MP,spatial_frequency,8,6,0,0-0;0-0;0-0;0-0,1,SimpleHill,0-0,0,39,selected,31-64,33-65;38-61;27-63;30-69;24-66;28-66,28-66,3.99,85,-3,815.511076349
GEMS243,2018_Apr_26_1103,Elaine,MP,spatial_frequency,8,6,0,0-0;0-0;0-0;0-0,2,SimpleHill,0-0,0,0,selected,0-0,6-2;1-2;0-6;3-6;2-6;4-4,0-6,3.4,11,11,831.336944946
GEMS243,2018_Apr_26_1103,Elaine,MP,spatial_frequency,8,6,0,0-0;0-0;0-0;0-0,2,SimpleHill,0-0,0,1,selected,0-6,4-1;0-11;2-3;6-7;3-1;0-7,0-11,2.09,19,8,837.010330372
GEMS243,2018_Apr_26_1103,Elaine,MP,spatial_frequency,8,6,0,0-0;0-0;0-0;0-0,2,SimpleHill,0-0,0,2,selected,0-11,5-11;4-6;0-9;2-5;3-16;0-6,5-11,2.94,29,10,843.516047398
GEMS243,2018_Apr_26_1103,Elaine,MP,spatial_frequency,8,6,0,0-0;0-0;0-0;0-0,2,SimpleHill,0-0,0,3,selected,5-11,2-4;6-13;3-13;3-4;1-13;3-6,3-13,3.27,28,-1,850.358720894
GEMS243,2018_Apr_26_1103,Elaine,MP,spatial_frequency,8,6,0,0-0;0-0;0-0;0-0,2,SimpleHill,0-0,0,4,selected,3-13,3-15;4-9;10-15;4-13;10-11;0-12,10-15,2.2,43,15,856.133635757
GEMS243,2018_Apr_26_1103,Elaine,MP,spatial_frequency,8,6,0,0-0;0-0;0-0;0-0,2,SimpleHill,0-0,0,5,selected,10-15,12-16;12-20;7-12;4-14;8-20;10-13,7-12,1.59,34,-9,861.287111539
GEMS243,2018_Apr_26_1103,Elaine,MP,spatial_frequency,8,6,0,0-0;0-0;0-0;0-0,2,SimpleHill,0-0,0,6,selected,7-12,0-15;1-13;12-11;9-14;9-13;1-12,0-15,2.75,25,-9,867.603607324
GEMS243,2018_Apr_26_1103,Elaine,MP,spatial_frequency,8,6,0,0-0;0-0;0-0;0-0,2,SimpleHill,0-0,0,7,selected,0-15,1-9;3-16;4-12;4-21;3-15;6-11,4-12,0.93,28,3,872.109466472
GEMS243,2018_Apr_26_1103,Elaine,MP,spatial_frequency,8,6,0,0-0;0-0;0-0;0-0,2,SimpleHill,0-0,0,8,selected,4-12,0-15;9-18;4-6;3-19;10-10;3-17,9-18,2.11,45,17,877.775513438
GEMS243,2018_Apr_26_1103,Elaine,MP,spatial_frequency,8,6,0,0-0;0-0;0-0;0-0,2,SimpleHill,0-0,0,9,selected,9-18,13-15;6-25;14-13;13-21;6-21;14-18,6-25,1.89,48,3,883.238209603
GEMS243,2018_Apr_26_1103,Elaine,MP,spatial_frequency,8,6,0,0-0;0-0;0-0;0-0,2,SimpleHill,0-0,0,10,selected,6-25,7-28;7-24;13-23;5-23;10-25;5-32,5-32,2.29,53,5,889.102407134
GEMS243,2018_Apr_26_1103,Elaine,MP,spatial_frequency,8,6,0,0-0;0-0;0-0;0-0,2,SimpleHill,0-0,0,11,selected,5-32,7-34;2-29;3-36;8-26;1-31;2-25,2-29,1.12,45,-8,893.791651582
GEMS243,2018_Apr_26_1103,Elaine,MP,spatial_frequency,8,6,0,0-0;0-0;0-0;0-0,2,SimpleHill,0-0,0,12,selected,2-29,3-36;1-31;4-28;0-36;2-30;6-27,1-31,2.9,44,-1,900.268516358
GEMS243,2018_Apr_26_1103,Elaine,MP,spatial_frequency,8,6,0,0-0;0-0;0-0;0-0,2,SimpleHill,0-0,0,13,selected,1-31,5-27;5-37;5-34;3-24;6-35;1-37,5-27,3.9,48,4,907.730262806
GEMS243,2018_Apr_26_1103,Elaine,MP,spatial_frequency,8,6,0,0-0;0-0;0-0;0-0,2,SimpleHill,0-0,0,14,selected,5-27,11-32;7-24;11-23;4-34;5-23;4-22,11-32,3.88,63,15,915.188739822
GEMS243,2018_Apr_26_1103,Elaine,MP,spatial_frequency,8,6,0,0-0;0-0;0-0;0-0,2,SimpleHill,0-0,0,15,selected,11-32,7-31;13-39;9-30;12-29;10-26;6-35,13-39,2.37,70,7,921.120562506
GEMS243,2018_Apr_26_1103,Elaine,MP,spatial_frequency,8,6,0,0-0;0-0;0-0;0-0,2,SimpleHill,0-0,0,16,selected,13-39,12-39;11-42;19-41;12-42;16-37;7-38,16-37,4.46,73,3,929.15920001
GEMS243,2018_Apr_26_1103,Elaine,MP,spatial_frequency,8,6,0,0-0;0-0;0-0;0-0,2,SimpleHill,0-0,0,17,selected,16-37,14-36;19-39;22-33;17-31;13-42;16-30,14-36,3.37,70,-3,936.087715811
GEMS243,2018_Apr_26_1103,Elaine,MP,spatial_frequency,8,6,0,0-0;0-0;0-0;0-0,2,SimpleHill,0-0,0,18,selected,14-36,7-37;12-36;13-35;17-29;20-37;20-35,20-37,4.94,78,8,944.601393238
GEMS243,2018_Apr_26_1103,Elaine,MP,spatial_frequency,8,6,0,0-0;0-0;0-0;0-0,2,SimpleHill,0-0,0,19,selected,20-37,15-37;24-40;15-38;21-40;18-43;25-33,15-37,2.11,72,-6,950.270526864
GEMS243,2018_Apr_26_1103,Elaine,MP,spatial_frequency,8,6,0,0-0;0-0;0-0;0-0,2,SimpleHill,0-0,0,20,selected,15-37,15-42;11-42;21-35;14-37;17-30;13-43,14-37,2.98,70,-2,956.81397425
GEMS243,2018_Apr_26_1103,Elaine,MP,spatial_frequency,8,6,0,0-0;0-0;0-0;0-0,2,SimpleHill,0-0,0,21,selected,14-37,17-40;13-37;12-32;15-33;20-42;12-30,13-37,1.37,69,-1,961.771788192
GEMS243,2018_Apr_26_1103,Elaine,MP,spatial_frequency,8,6,0,0-0;0-0;0-0;0-0,2,SimpleHill,0-0,0,22,selected,13-37,13-40;18-31;7-40;12-36;18-32;10-41,13-40,4.06,70,1,969.518611666
GEMS243,2018_Apr_26_1103,Elaine,MP,spatial_frequency,8,6,0,0-0;0-0;0-0;0-0,2,SimpleHill,0-0,0,23,selected,13-40,8-44;5-40;18-35;11-34;9-41;20-37,20-37,2.83,78,8,975.920010922
GEMS243,2018_Apr_26_1103,Elaine,MP,spatial_frequency,8,6,0,0-0;0-0;0-0;0-0,2,SimpleHill,0-0,0,24,selected,20-37,26-32;17-44;23-44;17-42;15-34;16-40,16-40,1.32,74,-4,980.821575826
GEMS243,2018_Apr_26_1103,Elaine,MP,spatial_frequency,8,6,0,0-0;0-0;0-0;0-0,2,SimpleHill,0-0,0,25,selected,16-40,16-41;12-41;16-37;18-37;14-37;19-44,19-44,3.58,80,6,987.978587678
GEMS243,2018_Apr_26_1103,Elaine,MP,spatial_frequency,8,6,0,0-0;0-0;0-0;0-0,2,SimpleHill,0-0,0,26,selected,19-44,21-50;23-50;23-38;16-41;18-37;26-42,21-50,5.53,83,3,997.082768129
GEMS243,2018_Apr_26_1103,Elaine,MP,spatial_frequency,8,6,0,0-0;0-0;0-0;0-0,2,SimpleHill,0-0,0,27,selected,21-50,25-51;23-50;24-48;18-56;19-46;19-57,19-57,1.98,79,-4,1002.63840403
GEMS243,2018_Apr_26_1103,Elaine,MP,spatial_frequency,8,6,0,0-0;0-0;0-0;0-0,2,SimpleHill,0-0,0,28,selected,19-57,15-61;13-60;16-56;17-62;23-60;18-58,17-62,6.67,75,-4,1012.88014842
GEMS243,2018_Apr_26_1103,Elaine,MP,spatial_frequency,8,6,0,0-0;0-0;0-0;0-0,2,SimpleHill,0-0,0,29,selected,17-62,19-57;16-65;24-64;23-57;23-63;17-66,23-63,2.15,82,7,1018.60865872
GEMS243,2018_Apr_26_1103,Elaine,MP,spatial_frequency,8,6,0,0-0;0-0;0-0;0-0,2,SimpleHill,0-0,0,30,selected,23-63,21-58;27-63;31-63;20-56;22-56;30-60,27-63,5.87,86,4,1028.06067881
GEMS243,2018_Apr_26_1103,Elaine,MP,spatial_frequency,8,6,0,0-0;0-0;0-0;0-0,2,SimpleHill,0-0,0,31,selected,27-63,34-62;31-62;30-56;21-58;32-66;34-66,34-62,2.41,92,6,1034.03486905
GEMS243,2018_Apr_26_1103,Elaine,MP,spatial_frequency,8,6,0,0-0;0-0;0-0;0-0,2,SimpleHill,0-0,0,32,selected,34-62,29-63;37-68;31-65;32-57;33-58;31-64,29-63,4.02,87,-5,1041.62559805
GEMS243,2018_Apr_26_1103,Elaine,MP,spatial_frequency,8,6,0,0-0;0-0;0-0;0-0,2,SimpleHill,0-0,0,33,selected,29-63,30-64;33-59;32-68;26-57;22-63;34-61,32-68,3.51,87,0,1048.71837646
GEMS243,2018_Apr_26_1103,Elaine,MP,spatial_frequency,8,6,0,0-0;0-0;0-0;0-0,2,SimpleHill,0-0,0,34,selected,32-68,36-69;29-69;24-68;28-69;31-65;32-66,36-69,2.5,88,1,1054.77021109
GEMS243,2018_Apr_26_1103,Elaine,MP,spatial_frequency,8,6,0,0-0;0-0;0-0;0-0,2,SimpleHill,0-0,0,35,selected,36-69,42-70;31-70;34-67;38-69;37-68;33-65,37-68,2.3,90,2,1060.63628533
GEMS243,2018_Apr_26_1103,Elaine,MP,spatial_frequency,8,6,0,0-0;0-0;0-0;0-0,2,SimpleHill,0-0,0,36,selected,37-68,32-69;32-70;38-68;34-62;33-68;35-69,33-68,1.8,87,-3,1066.02650085
GEMS243,2018_Apr_26_1103,Elaine,MP,spatial_frequency,8,6,0,0-0;0-0;0-0;0-0,2,SimpleHill,0-0,0,37,selected,33-68,37-65;32-70;33-65;25-68;32-61;28-70,37-65,0.5,92,5,1070.07648758
GEMS243,2018_Apr_26_1103,Elaine,MP,spatial_frequency,8,6,0,0-0;0-0;0-0;0-0,2,SimpleHill,0-0,0,38,selected,37-65,41-67;38-58;29-65;37-66;41-68;33-64,33-64,1.05,90,-2,1074.69909372
GEMS243,2018_Apr_26_1103,Elaine,MP,spatial_frequency,8,6,0,0-0;0-0;0-0;0-0,2,SimpleHill,0-0,0,39,selected,33-64,28-59;27-68;38-58;33-67;36-62;33-58,36-62,1.05,93,3,1079.31655692
GEMS243,2018_Apr_26_1103,Elaine,MP,spatial_frequency,8,6,0,0-0;0-0;0-0;0-0,3,SimpleHill,0-0,0,0,selected,0-0,3-0;3-6;5-1;2-6;5-4;7-1,2-6,3.02,15,15,1091.41784213
GEMS243,2018_Apr_26_1103,Elaine,MP,spatial_frequency,8,6,0,0-0;0-0;0-0;0-0,3,SimpleHill,0-0,0,1,selected,2-6,7-1;4-12;8-6;1-13;3-10;0-5,4-12,1.22,28,13,1096.21377272
GEMS243,2018_Apr_26_1103,Elaine,MP,spatial_frequency,8,6,0,0-0;0-0;0-0;0-0,3,SimpleHill,0-0,0,2,selected,4-12,3-14;9-18;8-9;2-12;10-7;8-8,8-9,2.43,31,3,1102.20180507
GEMS243,2018_Apr_26_1103,Elaine,MP,spatial_frequency,8,6,0,0-0;0-0;0-0;0-0,3,SimpleHill,0-0,0,3,selected,8-9,6-7;15-6;11-3;12-6;12-3;7-9,12-6,1.78,32,1,1107.52591267
GEMS243,2018_Apr_26_1103,Elaine,MP,spatial_frequency,8,6,0,0-0;0-0;0-0;0-0,3,SimpleHill,0-0,0,4,selected,12-6,11-3;19-9;17-1;19-4;10-1;12-8,11-3,0.81,25,-7,1111.91383632
GEMS243,2018_Apr_26_1103,Elaine,MP,spatial_frequency,8,6,0,0-0;0-0;0-0;0-0,3,SimpleHill,0-0,0,5,selected,11-3,17-4;18-5;5-6;5-1;11-5;16-1,11-5,0.28,29,4,1115.78014359
GEMS243,2018_Apr_26_1103,Elaine,MP,spatial_frequency,8,6,0,0-0;0-0;0-0;0-0,3,SimpleHill,0-0,0,6,selected,11-5,8-3;16-2;7-2;12-4;10-6;12-8,10-6,3.27,29,0,1122.62950479
GEMS243,2018_Apr_26_1103,Elaine,MP,spatial_frequency,8,6,0,0-0;0-0;0-0;0-0,3,SimpleHill,0-0,0,7,selected,10-6,16-6;4-2;11-6;14-5;14-11;15-9,14-11,2.95,43,14,1129.14639148
GEMS243,2018_Apr_26_1103,Elaine,MP,spatial_frequency,8,6,0,0-0;0-0;0-0;0-0,3,SimpleHill,0-0,0,8,selected,14-11,16-17;18-11;9-7;8-6;9-12;14-8,16-17,11.02,55,12,1143.74358669
GEMS243,2018_Apr_26_1103,Elaine,MP,spatial_frequency,8,6,0,0-0;0-0;0-0;0-0,3,SimpleHill,0-0,0,9,selected,16-17,20-22;13-18;21-15;19-19;15-21;16-10,19-19,4.15,61,6,1151.46269168
GEMS243,2018_Apr_26_1103,Elaine,MP,spatial_frequency,8,6,0,0-0;0-0;0-0;0-0,3,SimpleHill,0-0,0,10,selected,19-19,24-14;22-26;16-13;19-17;25-16;16-20,22-26,4.64,72,11,1159.66886891
GEMS243,2018_Apr_26_1103,Elaine,MP,spatial_frequency,8,6,0,0-0;0-0;0-0;0-0,3,SimpleHill,0-0,0,11,selected,22-26,17-27;26-20;21-27;20-28;23-32;28-21,21-27,1.41,72,0,1164.65552294
GEMS243,2018_Apr_26_1103,Elaine,MP,spatial_frequency,8,6,0,0-0;0-0;0-0;0-0,3,SimpleHill,0-0,0,12,selected,21-27,19-32;26-28;18-31;25-24;26-22;28-24,18-31,2.91,72,0,1171.10697423
GEMS243,2018_Apr_26_1103,Elaine,MP,spatial_frequency,8,6,0,0-0;0-0;0-0;0-0,3,SimpleHill,0-0,0,13,selected,18-31,23-37;24-34;26-31;20-34;18-28;14-36,24-34,1.37,81,9,1176.03416964
GEMS243,2018_Apr_26_1103,Elaine,MP,spatial_frequency,8,6,0,0-0;0-0;0-0;0-0,3,SimpleHill,0-0,0,14,selected,24-34,22-39;22-41;23-30;25-32;30-34;26-32,22-39,2.29,81,0,1181.87859085
GEMS243,2018_Apr_26_1103,Elaine,MP,spatial_frequency,8,6,0,0-0;0-0;0-0;0-0,3,SimpleHill,0-0,0,15,selected,22-39,25-37;17-44;19-32;15-38;24-32;27-33,17-44,2.34,77,-4,1187.78426479
GEMS243,2018_Apr_26_1103,Elaine,MP,spatial_frequency,8,6,0,0-0;0-0;0-0;0-0,3,SimpleHill,0-0,0,16,selected,17-44,19-38;12-41;21-50;19-37;23-49;15-51,15-51,1.72,75,-2,1193.07856434
GEMS243,2018_Apr_26_1103,Elaine,MP,spatial_frequency,8,6,0,0-0;0-0;0-0;0-0,3,SimpleHill,0-0,0,17,selected,15-51,10-53;13-56;17-50;13-57;20-46;8-53,10-53,2.15,67,-8,1198.80308436
GEMS243,2018_Apr_26_1103,Elaine,MP,spatial_frequency,8,6,0,0-0;0-0;0-0;0-0,3,SimpleHill,0-0,0,18,selected,10-53,7-51;10-48;14-57;14-54;13-54;3-50,10-48,3.92,67,0,1206.27802921
GEMS243,2018_Apr_26_1103,Elaine,MP,spatial_frequency,8,6,0,0-0;0-0;0-0;0-0,3,SimpleHill,0-0,0,19,selected,10-48,14-50;13-44;14-48;7-54;9-44;10-46,14-48,3.43,74,7,1213.26843409
GEMS243,2018_Apr_26_1103,Elaine,MP,spatial_frequency,8,6,0,0-0;0-0;0-0;0-0,3,SimpleHill,0-0,0,20,selected,14-48,9-51;17-44;18-45;21-45;17-45;8-48,8-48,2.11,64,-10,1218.9664491
GEMS243,2018_Apr_26_1103,Elaine,MP,spatial_frequency,8,6,0,0-0;0-0;0-0;0-0,3,SimpleHill,0-0,0,21,selected,8-48,11-42;7-53;13-48;3-43;2-46;4-42,13-48,4.14,72,8,1226.66952222
GEMS243,2018_Apr_26_1103,Elaine,MP,spatial_frequency,8,6,0,0-0;0-0;0-0;0-0,3,SimpleHill,0-0,0,22,selected,13-48,18-48;9-46;14-41;15-47;11-46;16-42,18-48,5.21,79,7,1235.43932967
GEMS243,2018_Apr_26_1103,Elaine,MP,spatial_frequency,8,6,0,0-0;0-0;0-0;0-0,3,SimpleHill,0-0,0,23,selected,18-48,24-46;14-43;14-45;14-44;22-43;25-45,25-45,2.17,87,8,1241.16152901
GEMS243,2018_Apr_26_1103,Elaine,MP,spatial_frequency,8,6,0,0-0;0-0;0-0;0-0,3,SimpleHill,0-0,0,24,selected,25-45,21-50;25-47;30-47;28-45;32-45;30-45,25-47,2.25,87,0,1246.98170475
GEMS243,2018_Apr_26_1103,Elaine,MP,spatial_frequency,8,6,0,0-0;0-0;0-0;0-0,3,SimpleHill,0-0,0,25,selected,25-47,32-47;28-46;26-40;24-44;20-49;20-47,32-47,2.07,93,6,1252.62140739
GEMS243,2018_Apr_26_1103,Elaine,MP,spatial_frequency,8,6,0,0-0;0-0;0-0;0-0,3,SimpleHill,0-0,0,26,selected,32-47,26-50;32-47;35-42;31-45;25-47;32-41,26-50,1.15,88,-5,1257.35015136
GEMS243,2018_Apr_26_1103,Elaine,MP,spatial_frequency,8,6,0,0-0;0-0;0-0;0-0,3,SimpleHill,0-0,0,27,selected,26-50,26-43;28-51;24-55;23-51;23-55;27-46,23-55,5.36,84,-4,1266.27506867
GEMS243,2018_Apr_26_1103,Elaine,MP,spatial_frequency,8,6,0,0-0;0-0;0-0;0-0,3,SimpleHill,0-0,0,28,selected,23-55,22-52;25-59;26-52;27-50;22-60;21-50,22-60,1.19,82,-2,1271.03205831
GEMS243,2018_Apr_26_1103,Elaine,MP,spatial_frequency,8,6,0,0-0;0-0;0-0;0-0,3,SimpleHill,0-0,0,29,selected,22-60,15-58;29-57;15-62;24-58;21-53;22-63,22-63,1.19,80,-2,1275.79164486
GEMS243,2018_Apr_26_1103,Elaine,MP,spatial_frequency,8,6,0,0-0;0-0;0-0;0-0,3,SimpleHill,0-0,0,30,selected,22-63,21-56;26-59;16-60;27-62;20-58;28-59,28-59,1.17,88,8,1280.52284266
GEMS243,2018_Apr_26_1103,Elaine,MP,spatial_frequency,8,6,0,0-0;0-0;0-0;0-0,3,SimpleHill,0-0,0,31,selected,28-59,30-61;21-57;24-63;24-62;23-56;24-58,24-63,3.66,83,-5,1287.73427486
GEMS243,2018_Apr_26_1103,Elaine,MP,spatial_frequency,8,6,0,0-0;0-0;0-0;0-0,3,SimpleHill,0-0,0,32,selected,24-63,30-61;31-64;24-61;21-69;29-66;24-69,24-69,0.82,79,-4,1292.12476629
GEMS243,2018_Apr_26_1103,Elaine,MP,spatial_frequency,8,6,0,0-0;0-0;0-0;0-0,3,SimpleHill,0-0,0,33,selected,24-69,26-67;20-66;22-64;27-65;30-70;26-62,26-62,0.85,85,6,1296.53206967
GEMS243,2018_Apr_26_1103,Elaine,MP,spatial_frequency,8,6,0,0-0;0-0;0-0;0-0,3,SimpleHill,0-0,0,34,selected,26-62,25-66;29-68;32-61;31-58;31-67;28-62,25-66,1.35,82,-3,1301.46227428
GEMS243,2018_Apr_26_1103,Elaine,MP,spatial_frequency,8,6,0,0-0;0-0;0-0;0-0,3,SimpleHill,0-0,0,35,selected,25-66,25-66;30-66;32-68;19-67;26-59;31-62,31-62,2.51,89,7,1307.54834001
GEMS243,2018_Apr_26_1103,Elaine,MP,spatial_frequency,8,6,0,0-0;0-0;0-0;0-0,3,SimpleHill,0-0,0,36,selected,31-62,27-67;35-61;32-69;37-66;33-67;31-67,32-69,1.37,86,-3,1312.48975781
GEMS243,2018_Apr_26_1103,Elaine,MP,spatial_frequency,8,6,0,0-0;0-0;0-0;0-0,3,SimpleHill,0-0,0,37,selected,32-69,34-62;38-65;32-64;37-65;29-69;35-64,29-69,0.21,83,-3,1316.27886401
GEMS243,2018_Apr_26_1103,Elaine,MP,spatial_frequency,8,6,0,0-0;0-0;0-0;0-0,3,SimpleHill,0-0,0,38,selected,29-69,34-70;29-68;34-68;29-67;34-64;36-67,34-68,1.75,88,5,1321.60402024
GEMS243,2018_Apr_26_1103,Elaine,MP,spatial_frequency,8,6,0,0-0;0-0;0-0;0-0,3,SimpleHill,0-0,0,39,selected,34-68,38-70;33-65;32-65;38-64;39-67;34-60,38-70,0.7,89,1,1325.86839523
GEMS243,2018_Apr_26_1103,Elaine,MP,spatial_frequency,8,6,0,0-0;0-0;0-0;0-0,4,SimpleHill,0-0,0,0,selected,0-0,6-3;2-0;4-6;2-7;5-5;0-2,4-6,2.07,18,18,1345.14090156
GEMS243,2018_Apr_26_1103,Elaine,MP,spatial_frequency,8,6,0,0-0;0-0;0-0;0-0,4,SimpleHill,0-0,0,1,selected,4-6,8-12;0-9;10-9;9-11;0-8;9-5,9-11,2.48,35,17,1351.19285398
GEMS243,2018_Apr_26_1103,Elaine,MP,spatial_frequency,8,6,0,0-0;0-0;0-0;0-0,4,SimpleHill,0-0,0,2,selected,9-11,5-11;3-15;7-15;3-7;12-14;7-17,3-7,4.06,18,-17,1358.83602996
GEMS243,2018_Apr_26_1103,Elaine,MP,spatial_frequency,8,6,0,0-0;0-0;0-0;0-0,4,SimpleHill,0-0,0,3,selected,3-7,6-6;2-5;7-11;1-13;4-6;6-10,7-11,1.52,32,14,1363.90663838
GEMS243,2018_Apr_26_1103,Elaine,MP,spatial_frequency,8,6,0,0-0;0-0;0-0;0-0,4,SimpleHill,0-0,0,4,selected,7-11,9-15;9-8;12-6;5-8;15-11;4-13,5-8,1.26,24,-8,1368.7296956
GEMS243,2018_Apr_26_1103,Elaine,MP,spatial_frequency,8,6,0,0-0;0-0;0-0;0-0,4,SimpleHill,0-0,0,5,selected,5-8,9-11;2-13;3-11;7-10;3-3;5-16,2-13,0.17,26,2,1372.45524151
GEMS243,2018_Apr_26_1103,Elaine,MP,spatial_frequency,8,6,0,0-0;0-0;0-0;0-0,4,SimpleHill,0-0,0,6,selected,2-13,0-12;1-11;7-17;8-8;1-16;0-19,0-19,3.2,30,4,1379.2247612
GEMS243,2018_Apr_26_1103,Elaine,MP,spatial_frequency,8,6,0,0-0;0-0;0-0;0-0,4,SimpleHill,0-0,0,7,selected,0-19,1-14;7-17;2-13;0-11;3-13;4-25,4-25,2.26,45,15,1385.07199603
GEMS243,2018_Apr_26_1103,Elaine,MP,spatial_frequency,8,6,0,0-0;0-0;0-0;0-0,4,SimpleHill,0-0,0,8,selected,4-25,9-26;11-22;0-25;8-23;7-29;8-25,8-25,2.25,52,7,1390.88270309
GEMS243,2018_Apr_26_1103,Elaine,MP,spatial_frequency,8,6,0,0-0;0-0;0-0;0-0,4,SimpleHill,0-0,0,9,selected,8-25,9-18;8-27;6-18;12-31;6-22;3-26,3-26,2.77,44,-8,1397.20754882
GEMS243,2018_Apr_26_1103,Elaine,MP,spatial_frequency,8,6,0,0-0;0-0;0-0;0-0,4,SimpleHill,0-0,0,10,selected,3-26,7-32;6-20;8-25;9-22;4-27;7-26,7-26,3.3,51,7,1404.08283215
GEMS243,2018_Apr_26_1103,Elaine,MP,spatial_frequency,8,6,0,0-0;0-0;0-0;0-0,4,SimpleHill,0-0,0,11,selected,7-26,7-33;3-26;8-27;2-32;1-24;12-29,3-26,2.51,44,-7,1410.16493
GEMS243,2018_Apr_26_1103,Elaine,MP,spatial_frequency,8,6,0,0-0;0-0;0-0;0-0,4,SimpleHill,0-0,0,12,selected,3-26,1-29;4-29;5-26;2-24;3-26;0-20,5-26,2.94,47,3,1416.68138584
GEMS243,2018_Apr_26_1103,Elaine,MP,spatial_frequency,8,6,0,0-0;0-0;0-0;0-0,4,SimpleHill,0-0,0,13,selected,5-26,11-31;9-22;8-31;9-28;3-22;9-25,9-28,3.27,56,9,1423.52808099
GEMS243,2018_Apr_26_1103,Elaine,MP,spatial_frequency,8,6,0,0-0;0-0;0-0;0-0,4,SimpleHill,0-0,0,14,selected,9-28,8-33;15-29;11-32;9-28;10-28;11-35,15-29,5.22,66,10,1432.29051317
GEMS243,2018_Apr_26_1103,Elaine,MP,spatial_frequency,8,6,0,0-0;0-0;0-0;0-0,4,SimpleHill,0-0,0,15,selected,15-29,21-28;12-33;13-33;14-23;9-27;16-27,16-27,8.53,66,0,1444.40795765
GEMS243,2018_Apr_26_1103,Elaine,MP,spatial_frequency,8,6,0,0-0;0-0;0-0;0-0,4,SimpleHill,0-0,0,16,selected,16-27,10-23;23-30;16-32;9-26;13-22;19-28,19-28,6.97,71,5,1454.95138007
GEMS243,2018_Apr_26_1103,Elaine,MP,spatial_frequency,8,6,0,0-0;0-0;0-0;0-0,4,SimpleHill,0-0,0,17,selected,19-28,24-31;17-27;24-27;15-23;19-34;17-22,19-34,8.32,75,4,1466.8564151
GEMS243,2018_Apr_26_1103,Elaine,MP,spatial_frequency,8,6,0,0-0;0-0;0-0;0-0,4,SimpleHill,0-0,0,18,selected,19-34,23-34;18-27;23-38;21-31;13-32;25-39,23-38,9.9,82,7,1480.3380147
GEMS243,2018_Apr_26_1103,Elaine,MP,spatial_frequency,8,6,0,0-0;0-0;0-0;0-0,4,SimpleHill,0-0,0,19,selected,23-38,23-34;22-37;24-40;21-42;30-40;26-38,22-37,4.98,80,-2,1488.90229728
GEMS243,2018_Apr_26_1103,Elaine,MP,spatial_frequency,8,6,0,0-0;0-0;0-0;0-0,4,SimpleHill,0-0,0,20,selected,22-37,29-38;23-31;17-32;25-36;20-43;22-32,29-38,1.95,88,8,1494.42550612
GEMS243,2018_Apr_26_1103,Elaine,MP,spatial_frequency,8,6,0,0-0;0-0;0-0;0-0,4,SimpleHill,0-0,0,21,selected,29-38,26-33;33-43;31-38;35-43;27-32;34-33,33-43,3.15,93,5,1501.15225847
GEMS243,2018_Apr_26_1103,Elaine,MP,spatial_frequency,8,6,0,0-0;0-0;0-0;0-0,4,SimpleHill,0-0,0,22,selected,33-43,33-51;35-44;26-45;32-36;41-43;30-45,35-44,1.25,94,1,1505.97872404
GEMS243,2018_Apr_26_1103,Elaine,MP,spatial_frequency,8,6,0,0-0;0-0;0-0;0-0,4,SimpleHill,0-0,0,23,selected,35-44,34-40;40-44;33-48;42-44;38-49;37-48,40-44,2.99,97,3,1512.52441976
GEMS243,2018_Apr_26_1103,Elaine,MP,spatial_frequency,8,6,0,0-0;0-0;0-0;0-0,4,SimpleHill,0-0,0,24,selected,40-44,37-47;39-42;35-41;37-51;44-38;41-38,39-42,2.09,96,-1,1518.18268334
GEMS243,2018_Apr_26_1103,Elaine,MP,spatial_frequency,8,6,0,0-0;0-0;0-0;0-0,4,SimpleHill,0-0,0,25,selected,39-42,36-49;46-43;38-39;40-46;41-39;45-45,36-49,1.59,96,0,1523.34554425
GEMS243,2018_Apr_26_1103,Elaine,MP,spatial_frequency,8,6,0,0-0;0-0;0-0;0-0,4,SimpleHill,0-0,0,26,selected,36-49,37-53;30-47;33-44;28-49;42-45;31-43,37-53,1.66,96,0,1528.57072446
GEMS243,2018_Apr_26_1103,Elaine,MP,spatial_frequency,8,6,0,0-0;0-0;0-0;0-0,4,SimpleHill,0-0,0,27,selected,37-53,40-53;32-48;30-51;33-49;40-59;33-47,40-59,2.39,96,0,1534.54061104
GEMS243,2018_Apr_26_1103,Elaine,MP,spatial_frequency,8,6,0,0-0;0-0;0-0;0-0,4,SimpleHill,0-0,0,28,selected,40-59,42-59;34-62;39-59;42-64;38-66;34-58,38-66,1.44,92,-4,1539.55572168
GEMS243,2018_Apr_26_1103,Elaine,MP,spatial_frequency,8,6,0,0-0;0-0;0-0;0-0,4,SimpleHill,0-0,0,29,selected,38-66,35-68;37-59;31-69;38-59;32-64;37-70,35-68,4.94,89,-3,1548.04701114
GEMS243,2018_Apr_26_1103,Elaine,MP,spatial_frequency,8,6,0,0-0;0-0;0-0;0-0,4,SimpleHill,0-0,0,30,selected,35-68,35-70;42-65;35-63;36-63;34-65;31-62,35-70,1.05,87,-2,1552.66757989
GEMS243,2018_Apr_26_1103,Elaine,MP,spatial_frequency,8,6,0,0-0;0-0;0-0;0-0,4,SimpleHill,0-0,0,31,selected,35-70,33-67;40-66;31-66;29-66;29-69;39-70,39-70,0.89,89,2,1557.11774697
GEMS243,2018_Apr_26_1103,Elaine,MP,spatial_frequency,8,6,0,0-0;0-0;0-0;0-0,4,SimpleHill,0-0,0,32,selected,39-70,35-67;43-70;40-70;40-63;38-68;33-67,43-70,2.69,91,2,1563.37907435
GEMS243,2018_Apr_26_1103,Elaine,MP,spatial_frequency,8,6,0,0-0;0-0;0-0;0-0,4,SimpleHill,0-0,0,33,selected,43-70,44-67;41-63;49-69;45-69;48-70;39-65,48-70,1.27,91,0,1568.20693969
GEMS243,2018_Apr_26_1103,Elaine,MP,spatial_frequency,8,6,0,0-0;0-0;0-0;0-0,4,SimpleHill,0-0,0,34,selected,48-70,50-63;40-70;53-67;55-68;45-63;47-69,47-69,1.24,92,1,1573.0209786
GEMS243,2018_Apr_26_1103,Elaine,MP,spatial_frequency,8,6,0,0-0;0-0;0-0;0-0,4,SimpleHill,0-0,0,35,selected,47-69,42-64;53-66;47-69;41-68;51-67;45-70,45-70,1.04,91,-1,1577.60756528
GEMS243,2018_Apr_26_1103,Elaine,MP,spatial_frequency,8,6,0,0-0;0-0;0-0;0-0,4,SimpleHill,0-0,0,36,selected,45-70,41-66;52-70;38-68;50-68;38-70;39-66,39-66,1.59,92,1,1582.76834111
GEMS243,2018_Apr_26_1103,Elaine,MP,spatial_frequency,8,6,0,0-0;0-0;0-0;0-0,4,SimpleHill,0-0,0,37,selected,39-66,45-70;39-69;44-63;35-62;32-63;38-64,45-70,1.52,91,-1,1587.84708118
GEMS243,2018_Apr_26_1103,Elaine,MP,spatial_frequency,8,6,0,0-0;0-0;0-0;0-0,4,SimpleHill,0-0,0,38,selected,45-70,41-70;40-70;45-67;39-67;42-65;43-63,41-70,4.11,90,-1,1595.5031566
GEMS243,2018_Apr_26_1103,Elaine,MP,spatial_frequency,8,6,0,0-0;0-0;0-0;0-0,4,SimpleHill,0-0,0,39,selected,41-70,40-65;47-68;47-69;35-69;34-67;39-66,34-67,2.23,89,-1,1601.31133652
