subj_id,date,computer,experimenter,version,generation,inherit_from,sight_radius,n_gabors,block_ix,landscape_name,starting_pos,starting_score,trial,pos,stims,selected,rt,score,delta,exp_time,landscape_ix
GEMS228,2018_Oct_25_1603,George,SR,1.3,1,,10,6,1,SimpleHill,0-0,0,0,0-0,9-0;4-6;4-5;7-1;7-6;8-1,7-1,10.66,15,15,212.406558499,1
GEMS228,2018_Oct_25_1603,George,SR,1.3,1,,10,6,1,SimpleHill,0-0,0,1,7-1,6-8;11-8;7-8;12-0;4-1;11-0,12-0,7.18,21,6,223.65534991,1
GEMS228,2018_Oct_25_1603,George,SR,1.3,1,,10,6,1,SimpleHill,0-0,0,2,12-0,6-3;13-3;8-9;18-5;20-5;14-1,13-3,5.64,28,7,233.36948349,1
GEMS228,2018_Oct_25_1603,George,SR,1.3,1,,10,6,1,SimpleHill,0-0,0,3,13-3,16-8;9-9;17-11;13-6;7-5;13-3,17-11,4.31,47,19,241.737543849,1
GEMS228,2018_Oct_25_1603,George,SR,1.3,1,,10,6,1,SimpleHill,0-0,0,4,17-11,11-5;21-4;12-8;13-2;20-20;9-16,11-5,8.46,29,-18,254.283287117,1
GEMS228,2018_Oct_25_1603,George,SR,1.3,1,,10,6,1,SimpleHill,0-0,0,5,11-5,17-2;19-4;19-9;6-8;13-1;9-0,19-9,4.68,47,18,263.026579503,1
GEMS228,2018_Oct_25_1603,George,SR,1.3,1,,10,6,1,SimpleHill,0-0,0,6,19-9,28-7;16-11;17-11;13-10;17-14;27-6,17-14,3.5,52,5,270.590762969,1
GEMS228,2018_Oct_25_1603,George,SR,1.3,1,,10,6,1,SimpleHill,0-0,0,7,17-14,10-13;16-20;19-19;20-15;19-10;23-6,19-19,2.72,61,9,277.369461723,1
GEMS228,2018_Oct_25_1603,George,SR,1.3,1,,10,6,1,SimpleHill,0-0,0,8,19-19,19-26;22-17;24-14;19-27;28-23;20-12,28-23,8.14,75,14,289.586385387,1
GEMS228,2018_Oct_25_1603,George,SR,1.3,1,,10,6,1,SimpleHill,0-0,0,9,28-23,31-30;23-20;34-16;29-15;21-28;29-25,31-30,2.8,84,9,296.464633163,1
GEMS228,2018_Oct_25_1603,George,SR,1.3,1,,10,6,1,SimpleHill,0-0,0,10,31-30,25-30;28-24;35-32;34-35;34-24;38-32,38-32,3.5,90,6,304.030094437,1
GEMS228,2018_Oct_25_1603,George,SR,1.3,1,,10,6,1,SimpleHill,0-0,0,11,38-32,47-28;41-37;44-27;34-32;33-39;31-26,33-39,3.75,91,1,311.833757189,1
GEMS228,2018_Oct_25_1603,George,SR,1.3,1,,10,6,1,SimpleHill,0-0,0,12,33-39,32-35;41-36;38-44;32-34;29-39;28-45,28-45,4.35,89,-2,320.259112787,1
GEMS228,2018_Oct_25_1603,George,SR,1.3,1,,10,6,1,SimpleHill,0-0,0,13,28-45,21-51;24-39;24-42;33-44;24-43;27-53,24-43,1.91,85,-4,326.212972124,1
GEMS228,2018_Oct_25_1603,George,SR,1.3,1,,10,6,1,SimpleHill,0-0,0,14,24-43,19-36;14-43;28-48;21-49;28-36;32-41,21-49,1.73,83,-2,331.998524375,1
GEMS228,2018_Oct_25_1603,George,SR,1.3,1,,10,6,1,SimpleHill,0-0,0,15,21-49,24-47;17-49;20-43;25-55;17-58;14-42,25-55,2.43,87,4,338.500939951,1
GEMS228,2018_Oct_25_1603,George,SR,1.3,1,,10,6,1,SimpleHill,0-0,0,16,25-55,22-56;20-48;22-53;23-49;19-47;28-52,28-52,3.62,90,3,346.191189844,1
GEMS228,2018_Oct_25_1603,George,SR,1.3,1,,10,6,1,SimpleHill,0-0,0,17,28-52,25-49;26-57;25-51;35-47;29-44;28-46,25-49,4.07,87,-3,354.336511103,1
GEMS228,2018_Oct_25_1603,George,SR,1.3,1,,10,6,1,SimpleHill,0-0,0,18,25-49,18-56;26-49;25-44;29-45;19-43;26-52,25-44,1.56,86,-1,359.985384586,1
GEMS228,2018_Oct_25_1603,George,SR,1.3,1,,10,6,1,SimpleHill,0-0,0,19,25-44,30-47;29-47;20-46;21-39;19-43;26-49,26-49,2.68,88,2,366.732732541,1
GEMS228,2018_Oct_25_1603,George,SR,1.3,1,,10,6,1,SimpleHill,0-0,0,20,26-49,26-55;35-45;19-45;22-52;19-43;25-52,26-55,2.42,87,-1,373.226953435,1
GEMS228,2018_Oct_25_1603,George,SR,1.3,1,,10,6,1,SimpleHill,0-0,0,21,26-55,29-54;32-51;24-64;25-47;23-63;23-55,24-64,1.67,82,-5,378.974986708,1
GEMS228,2018_Oct_25_1603,George,SR,1.3,1,,10,6,1,SimpleHill,0-0,0,22,24-64,26-58;16-60;28-66;24-56;17-68;21-65,17-68,6.05,71,-11,389.079296143,1
GEMS228,2018_Oct_25_1603,George,SR,1.3,1,,10,6,1,SimpleHill,0-0,0,23,17-68,17-58;23-61;21-69;20-66;26-64;24-67,21-69,0.86,75,4,394.013414748,1
GEMS228,2018_Oct_25_1603,George,SR,1.3,1,,10,6,1,SimpleHill,0-0,0,24,21-69,24-63;12-68;19-70;25-60;24-64;23-65,19-70,0.33,72,-3,398.426200322,1
GEMS228,2018_Oct_25_1603,George,SR,1.3,1,,10,6,1,SimpleHill,0-0,0,25,19-70,19-67;15-68;12-66;10-69;26-66;15-70,10-69,0.44,60,-12,402.939740386,1
GEMS228,2018_Oct_25_1603,George,SR,1.3,1,,10,6,1,SimpleHill,0-0,0,26,10-69,15-67;19-67;1-69;12-63;9-63;12-69,12-69,2.72,63,3,409.715221893,1
GEMS228,2018_Oct_25_1603,George,SR,1.3,1,,10,6,1,SimpleHill,0-0,0,27,12-69,9-64;14-65;13-66;12-65;7-64;5-63,7-64,2.35,59,-4,416.136459824,1
GEMS228,2018_Oct_25_1603,George,SR,1.3,1,,10,6,1,SimpleHill,0-0,0,28,7-64,5-64;14-61;15-64;7-68;15-63;11-61,7-68,1.09,56,-3,421.308537277,1
GEMS228,2018_Oct_25_1603,George,SR,1.3,1,,10,6,1,SimpleHill,0-0,0,29,7-68,15-68;9-62;13-65;0-67;16-66;7-61,15-68,5.2,69,13,430.589097209,1
GEMS228,2018_Oct_25_1603,George,SR,1.3,1,,10,6,1,SimpleHill,0-0,0,30,15-68,10-68;10-62;18-64;10-66;20-65;8-61,10-68,3.25,61,-8,437.88262952,1
GEMS228,2018_Oct_25_1603,George,SR,1.3,1,,10,6,1,SimpleHill,0-0,0,31,10-68,11-63;18-66;13-59;7-59;15-64;17-63,15-64,3.23,71,10,445.18042354,1
GEMS228,2018_Oct_25_1603,George,SR,1.3,1,,10,6,1,SimpleHill,0-0,0,32,15-64,19-66;8-59;21-58;19-56;18-69;11-59,18-69,3.3,72,1,452.541251414,1
GEMS228,2018_Oct_25_1603,George,SR,1.3,1,,10,6,1,SimpleHill,0-0,0,33,18-69,23-68;22-61;9-69;24-65;10-70;22-60,24-65,5.86,81,9,462.467429169,1
GEMS228,2018_Oct_25_1603,George,SR,1.3,1,,10,6,1,SimpleHill,0-0,0,34,24-65,23-63;19-67;25-67;17-61;23-61;22-58,22-58,3.01,83,2,469.552665584,1
GEMS228,2018_Oct_25_1603,George,SR,1.3,1,,10,6,1,SimpleHill,0-0,0,35,22-58,19-60;21-50;14-56;18-63;22-48;24-64,22-48,3.82,84,1,477.421040434,1
GEMS228,2018_Oct_25_1603,George,SR,1.3,1,,10,6,1,SimpleHill,0-0,0,36,22-48,16-45;29-47;24-51;28-56;24-56;20-52,16-45,3.0,76,-8,484.50495903,1
GEMS228,2018_Oct_25_1603,George,SR,1.3,1,,10,6,1,SimpleHill,0-0,0,37,16-45,14-39;16-39;18-42;16-53;22-43;20-38,16-53,5.38,76,0,493.942779022,1
GEMS228,2018_Oct_25_1603,George,SR,1.3,1,,10,6,1,SimpleHill,0-0,0,38,16-53,15-58;25-51;13-59;7-57;7-51;11-52,7-51,2.03,63,-13,500.037947581,1
GEMS228,2018_Oct_25_1603,George,SR,1.3,1,,10,6,1,SimpleHill,0-0,0,39,7-51,17-51;2-43;7-51;6-53;3-51;4-59,17-51,1.72,78,15,505.796541979,1
GEMS228,2018_Oct_25_1603,George,SR,1.3,1,,10,6,1,SimpleHill,0-0,0,40,17-51,12-45;13-52;25-54;17-61;18-57;11-57,25-54,2.36,87,9,512.237765193,1
GEMS228,2018_Oct_25_1603,George,SR,1.3,1,,10,6,1,SimpleHill,0-0,0,41,25-54,33-50;21-63;25-44;28-61;32-52;22-56,28-61,2.83,87,0,519.13637468,1
GEMS228,2018_Oct_25_1603,George,SR,1.3,1,,10,6,1,SimpleHill,0-0,0,42,28-61,31-53;34-68;28-69;35-65;30-61;30-70,34-68,3.13,88,1,526.329593588,1
GEMS228,2018_Oct_25_1603,George,SR,1.3,1,,10,6,1,SimpleHill,0-0,0,43,34-68,31-61;31-59;29-65;34-61;31-67;38-63,31-59,2.68,91,3,533.058569527,1
GEMS228,2018_Oct_25_1603,George,SR,1.3,1,,10,6,1,SimpleHill,0-0,0,44,31-59,39-63;24-62;33-63;22-63;39-61;23-60,33-63,4.63,90,-1,541.760257277,1
GEMS228,2018_Oct_25_1603,George,SR,1.3,1,,10,6,1,SimpleHill,0-0,0,45,33-63,26-70;33-57;38-55;39-66;31-66;28-65,38-55,1.52,96,6,547.359828546,1
GEMS228,2018_Oct_25_1603,George,SR,1.3,1,,10,6,1,SimpleHill,0-0,0,46,38-55,37-51;41-48;42-59;30-55;43-49;31-52,31-52,2.25,92,-4,553.666022428,1
GEMS228,2018_Oct_25_1603,George,SR,1.3,1,,10,6,1,SimpleHill,0-0,0,47,31-52,31-56;34-56;33-58;39-53;40-53;27-52,33-58,4.07,92,0,561.800849461,1
GEMS228,2018_Oct_25_1603,George,SR,1.3,1,,10,6,1,SimpleHill,0-0,0,48,33-58,25-64;38-53;30-49;37-52;32-64;40-58,38-53,3.25,96,4,569.125154805,1
GEMS228,2018_Oct_25_1603,George,SR,1.3,1,,10,6,1,SimpleHill,0-0,0,49,38-53,30-54;39-44;38-52;31-52;45-55;44-56,38-52,1.09,97,1,574.286796929,1
GEMS228,2018_Oct_25_1603,George,SR,1.3,1,,10,6,1,SimpleHill,0-0,0,50,38-52,31-58;29-51;42-57;38-48;39-48;42-43,42-57,2.05,97,0,580.416409339,1
GEMS228,2018_Oct_25_1603,George,SR,1.3,1,,10,6,1,SimpleHill,0-0,0,51,42-57,45-60;43-59;37-63;39-61;47-56;34-53,47-56,0.68,99,2,585.165563895,1
GEMS228,2018_Oct_25_1603,George,SR,1.3,1,,10,6,1,SimpleHill,0-0,0,52,47-56,44-58;49-56;55-51;38-54;48-50;47-61,55-51,2.99,99,0,592.213883747,1
GEMS228,2018_Oct_25_1603,George,SR,1.3,1,,10,6,1,SimpleHill,0-0,0,53,55-51,59-46;52-53;64-50;49-53;47-53;51-42,64-50,3.54,96,-3,599.807936304,1
GEMS228,2018_Oct_25_1603,George,SR,1.3,1,,10,6,1,SimpleHill,0-0,0,54,64-50,63-53;66-47;68-50;69-48;61-42;63-44,68-50,4.04,93,-3,607.97808072,1
GEMS228,2018_Oct_25_1603,George,SR,1.3,1,,10,6,1,SimpleHill,0-0,0,55,68-50,65-58;70-58;64-55;61-51;59-46;70-47,70-58,0.73,90,-3,612.884047849,1
GEMS228,2018_Oct_25_1603,George,SR,1.3,1,,10,6,1,SimpleHill,0-0,0,56,70-58,64-66;64-62;69-60;64-58;65-52;70-62,64-58,0.37,94,4,617.305060435,1
GEMS228,2018_Oct_25_1603,George,SR,1.3,1,,10,6,1,SimpleHill,0-0,0,57,64-58,68-57;69-51;63-63;69-61;61-51;56-60,63-63,0.96,93,-1,622.352553808,1
GEMS228,2018_Oct_25_1603,George,SR,1.3,1,,10,6,1,SimpleHill,0-0,0,58,63-63,69-60;66-55;60-63;69-67;67-59;60-54,69-67,0.76,87,-6,627.178845165,1
GEMS228,2018_Oct_25_1603,George,SR,1.3,1,,10,6,1,SimpleHill,0-0,0,59,69-67,60-66;68-59;64-70;61-64;60-70;66-61,64-70,0.51,88,1,631.772379492,1
GEMS228,2018_Oct_25_1603,George,SR,1.3,1,,10,6,1,SimpleHill,0-0,0,60,64-70,56-67;56-70;69-65;68-64;62-68;54-70,62-68,1.85,90,2,637.700729394,1
GEMS228,2018_Oct_25_1603,George,SR,1.3,1,,10,6,1,SimpleHill,0-0,0,61,62-68,53-65;67-60;61-68;67-65;53-66;64-68,61-68,2.19,91,1,643.936621407,1
GEMS228,2018_Oct_25_1603,George,SR,1.3,1,,10,6,1,SimpleHill,0-0,0,62,61-68,62-63;70-64;64-65;55-70;55-63;63-70,64-65,4.68,91,0,652.69773173,1
GEMS228,2018_Oct_25_1603,George,SR,1.3,1,,10,6,1,SimpleHill,0-0,0,63,64-65,70-69;57-60;65-61;68-64;66-64;65-70,65-61,0.9,93,2,657.652318636,1
GEMS228,2018_Oct_25_1603,George,SR,1.3,1,,10,6,1,SimpleHill,0-0,0,64,65-61,61-64;68-64;64-52;70-69;58-54;58-61,68-64,1.41,89,-4,663.126957244,1
GEMS228,2018_Oct_25_1603,George,SR,1.3,1,,10,6,1,SimpleHill,0-0,0,65,68-64,60-60;69-59;64-55;59-63;63-60;65-62,64-55,0.81,95,6,668.011440418,1
GEMS228,2018_Oct_25_1603,George,SR,1.3,1,,10,6,1,SimpleHill,0-0,0,66,64-55,60-57;66-53;64-45;63-51;70-56;65-53,70-56,2.33,91,-4,674.419541442,1
GEMS228,2018_Oct_25_1603,George,SR,1.3,1,,10,6,1,SimpleHill,0-0,0,67,70-56,64-52;70-66;64-59;67-61;66-52;62-61,64-59,0.52,94,3,679.007949812,1
GEMS228,2018_Oct_25_1603,George,SR,1.3,1,,10,6,1,SimpleHill,0-0,0,68,64-59,60-59;60-60;58-65;66-58;69-54;59-57,58-65,0.88,94,0,683.939911956,1
GEMS228,2018_Oct_25_1603,George,SR,1.3,1,,10,6,1,SimpleHill,0-0,0,69,58-65,65-58;55-70;61-58;58-63;53-68;54-57,55-70,0.82,91,-3,688.827012524,1
GEMS228,2018_Oct_25_1603,George,SR,1.3,1,,10,6,1,SimpleHill,0-0,0,70,55-70,61-65;57-70;54-69;63-70;60-65;62-66,54-69,0.31,92,1,693.21215941,1
GEMS228,2018_Oct_25_1603,George,SR,1.3,1,,10,6,1,SimpleHill,0-0,0,71,54-69,49-69;50-65;48-66;50-64;51-61;46-68,49-69,0.72,92,0,697.995276718,1
GEMS228,2018_Oct_25_1603,George,SR,1.3,1,,10,6,1,SimpleHill,0-0,0,72,49-69,52-67;41-67;49-60;43-67;56-70;49-66,56-70,0.65,91,-1,702.725297118,1
GEMS228,2018_Oct_25_1603,George,SR,1.3,1,,10,6,1,SimpleHill,0-0,0,73,56-70,53-61;46-70;50-64;53-65;61-68;59-68,50-64,0.25,96,5,707.051997712,1
GEMS228,2018_Oct_25_1603,George,SR,1.3,1,,10,6,1,SimpleHill,0-0,0,74,50-64,53-67;60-64;50-66;57-64;54-56;59-68,50-66,0.26,94,-2,711.373060841,1
GEMS228,2018_Oct_25_1603,George,SR,1.3,1,,10,6,1,SimpleHill,0-0,0,75,50-66,49-60;57-66;52-58;42-61;56-67;58-67,52-58,0.24,98,4,715.688791232,1
GEMS228,2018_Oct_25_1603,George,SR,1.3,1,,10,6,1,SimpleHill,0-0,0,76,52-58,54-59;55-65;54-61;43-61;47-62;47-64,54-61,0.29,97,-1,720.054097517,1
GEMS228,2018_Oct_25_1603,George,SR,1.3,1,,10,6,1,SimpleHill,0-0,0,77,54-61,56-54;50-57;53-55;57-59;49-59;49-55,53-55,0.24,99,2,724.369074091,1
GEMS228,2018_Oct_25_1603,George,SR,1.3,1,,10,6,1,SimpleHill,0-0,0,78,53-55,48-56;55-61;50-57;52-50;46-49;45-61,52-50,0.39,99,0,728.842012049,1
GEMS228,2018_Oct_25_1603,George,SR,1.3,1,,10,6,1,SimpleHill,0-0,0,79,52-50,56-55;51-54;56-45;50-45;43-49;50-59,56-45,0.33,98,-1,733.233465073,1
GEMS228,2018_Oct_25_1603,George,SR,1.3,1,,10,6,2,SimpleHill,0-0,0,0,0-0,8-3;2-3;5-1;3-1;3-5;2-9,2-3,9.15,9,9,827.176745999,1
GEMS228,2018_Oct_25_1603,George,SR,1.3,1,,10,6,2,SimpleHill,0-0,0,1,2-3,0-2;10-2;2-13;6-5;0-4;6-11,2-13,2.0,26,17,833.248944736,1
GEMS228,2018_Oct_25_1603,George,SR,1.3,1,,10,6,2,SimpleHill,0-0,0,2,2-13,1-11;8-6;6-16;2-10;4-10;1-21,6-16,0.87,38,12,838.197993405,1
GEMS228,2018_Oct_25_1603,George,SR,1.3,1,,10,6,2,SimpleHill,0-0,0,3,6-16,12-19;3-20;4-15;8-25;3-11;5-25,5-25,2.14,47,9,844.408304923,1
GEMS228,2018_Oct_25_1603,George,SR,1.3,1,,10,6,2,SimpleHill,0-0,0,4,5-25,12-23;1-32;9-19;11-29;9-32;3-21,11-29,2.04,60,13,850.511398006,1
GEMS228,2018_Oct_25_1603,George,SR,1.3,1,,10,6,2,SimpleHill,0-0,0,5,11-29,10-20;5-25;15-34;9-23;12-38;16-22,12-38,2.27,68,8,856.842973606,1
GEMS228,2018_Oct_25_1603,George,SR,1.3,1,,10,6,2,SimpleHill,0-0,0,6,12-38,12-48;12-36;3-34;13-47;15-33;5-34,13-47,2.24,72,4,863.16679529,1
GEMS228,2018_Oct_25_1603,George,SR,1.3,1,,10,6,2,SimpleHill,0-0,0,7,13-47,15-43;8-39;12-41;8-40;15-40;13-51,13-51,5.94,72,0,873.190564063,1
GEMS228,2018_Oct_25_1603,George,SR,1.3,1,,10,6,2,SimpleHill,0-0,0,8,13-51,7-52;20-53;9-47;9-56;8-47;16-46,8-47,1.14,64,-8,878.390133603,1
GEMS228,2018_Oct_25_1603,George,SR,1.3,1,,10,6,2,SimpleHill,0-0,0,9,8-47,14-45;16-46;13-53;7-50;0-44;4-42,13-53,1.38,72,8,883.809194587,1
GEMS228,2018_Oct_25_1603,George,SR,1.3,1,,10,6,2,SimpleHill,0-0,0,10,13-53,7-61;17-48;14-46;14-62;8-50;11-55,11-55,3.16,69,-3,891.050086121,1
GEMS228,2018_Oct_25_1603,George,SR,1.3,1,,10,6,2,SimpleHill,0-0,0,11,11-55,13-57;19-50;16-57;8-60;18-58;7-63,19-50,1.19,80,11,896.299989213,1
GEMS228,2018_Oct_25_1603,George,SR,1.3,1,,10,6,2,SimpleHill,0-0,0,12,19-50,28-48;24-52;20-52;20-53;11-47;26-51,20-53,1.1,81,1,901.457253115,1
GEMS228,2018_Oct_25_1603,George,SR,1.3,1,,10,6,2,SimpleHill,0-0,0,13,20-53,14-50;20-54;23-55;19-50;24-56;24-44,19-50,1.6,80,-1,907.115124713,1
GEMS228,2018_Oct_25_1603,George,SR,1.3,1,,10,6,2,SimpleHill,0-0,0,14,19-50,19-57;26-52;23-49;19-59;28-48;28-51,19-59,0.57,79,-1,911.766466107,1
GEMS228,2018_Oct_25_1603,George,SR,1.3,1,,10,6,2,SimpleHill,0-0,0,15,19-59,22-65;24-53;27-61;16-59;12-52;20-54,27-61,0.27,87,8,916.107232837,1
GEMS228,2018_Oct_25_1603,George,SR,1.3,1,,10,6,2,SimpleHill,0-0,0,16,27-61,30-68;19-63;24-64;18-62;19-56;25-70,24-64,0.89,82,-5,921.062797946,1
GEMS228,2018_Oct_25_1603,George,SR,1.3,1,,10,6,2,SimpleHill,0-0,0,17,24-64,16-63;26-61;24-54;31-57;28-58;20-67,20-67,1.65,76,-6,926.795099643,1
GEMS228,2018_Oct_25_1603,George,SR,1.3,1,,10,6,2,SimpleHill,0-0,0,18,20-67,27-69;19-64;22-58;13-66;16-64;16-67,19-64,0.57,76,0,931.438233552,1
GEMS228,2018_Oct_25_1603,George,SR,1.3,1,,10,6,2,SimpleHill,0-0,0,19,19-64,19-55;22-70;17-57;22-64;20-62;28-63,22-64,0.64,80,4,936.135671757,1
GEMS228,2018_Oct_25_1603,George,SR,1.3,1,,10,6,2,SimpleHill,0-0,0,20,22-64,15-67;20-61;16-70;22-60;18-59;14-68,18-59,1.28,77,-3,941.500324094,1
GEMS228,2018_Oct_25_1603,George,SR,1.3,1,,10,6,2,SimpleHill,0-0,0,21,18-59,21-60;27-55;20-53;15-56;22-64;17-66,20-53,2.32,81,4,947.891312023,1
GEMS228,2018_Oct_25_1603,George,SR,1.3,1,,10,6,2,SimpleHill,0-0,0,22,20-53,28-58;18-54;20-56;26-61;10-53;12-54,20-56,1.31,81,0,953.275740942,1
GEMS228,2018_Oct_25_1603,George,SR,1.3,1,,10,6,2,SimpleHill,0-0,0,23,20-56,29-53;12-62;17-52;22-61;29-60;24-56,17-52,0.69,78,-3,958.047446,1
GEMS228,2018_Oct_25_1603,George,SR,1.3,1,,10,6,2,SimpleHill,0-0,0,24,17-52,14-58;14-50;21-43;25-51;22-59;25-50,21-43,0.66,82,4,962.765453336,1
GEMS228,2018_Oct_25_1603,George,SR,1.3,1,,10,6,2,SimpleHill,0-0,0,25,21-43,24-50;16-49;22-45;28-48;17-38;22-42,22-45,0.6,83,1,967.429225194,1
GEMS228,2018_Oct_25_1603,George,SR,1.3,1,,10,6,2,SimpleHill,0-0,0,26,22-45,28-52;25-45;16-48;24-51;15-50;17-47,24-51,0.49,86,3,971.984975508,1
GEMS228,2018_Oct_25_1603,George,SR,1.3,1,,10,6,2,SimpleHill,0-0,0,27,24-51,31-44;32-46;33-50;18-58;18-59;19-57,33-50,0.74,94,8,976.777753842,1
GEMS228,2018_Oct_25_1603,George,SR,1.3,1,,10,6,2,SimpleHill,0-0,0,28,33-50,38-57;30-42;39-49;35-47;37-42;27-43,35-47,1.65,95,1,982.491662716,1
GEMS228,2018_Oct_25_1603,George,SR,1.3,1,,10,6,2,SimpleHill,0-0,0,29,35-47,30-54;31-42;40-53;37-46;44-48;32-39,40-53,0.47,97,2,987.026545573,1
GEMS228,2018_Oct_25_1603,George,SR,1.3,1,,10,6,2,SimpleHill,0-0,0,30,40-53,39-59;35-46;37-53;40-47;33-54;32-47,37-53,1.1,96,-1,992.209926766,1
GEMS228,2018_Oct_25_1603,George,SR,1.3,1,,10,6,2,SimpleHill,0-0,0,31,37-53,42-59;28-49;33-62;34-46;43-61;34-54,28-49,1.49,90,-6,997.75558297,1
GEMS228,2018_Oct_25_1603,George,SR,1.3,1,,10,6,2,SimpleHill,0-0,0,32,28-49,24-42;19-52;19-47;33-48;24-58;28-56,33-48,0.37,94,4,1002.20840985,1
GEMS228,2018_Oct_25_1603,George,SR,1.3,1,,10,6,2,SimpleHill,0-0,0,33,33-48,28-45;35-43;30-48;33-52;29-43;25-47,30-48,1.07,91,-3,1007.3676388,1
GEMS228,2018_Oct_25_1603,George,SR,1.3,1,,10,6,2,SimpleHill,0-0,0,34,30-48,34-57;27-46;22-44;32-52;28-48;24-52,32-52,0.42,93,2,1011.86326938,1
GEMS228,2018_Oct_25_1603,George,SR,1.3,1,,10,6,2,SimpleHill,0-0,0,35,32-52,39-48;35-43;25-46;25-56;26-48;30-45,25-46,0.22,87,-6,1016.13732023,1
GEMS228,2018_Oct_25_1603,George,SR,1.3,1,,10,6,2,SimpleHill,0-0,0,36,25-46,19-42;29-40;25-36;30-45;21-48;26-46,30-45,0.45,91,4,1020.66529934,1
GEMS228,2018_Oct_25_1603,George,SR,1.3,1,,10,6,2,SimpleHill,0-0,0,37,30-45,28-36;23-49;32-40;35-48;28-47;34-41,23-49,3.15,85,-6,1027.89610028,1
GEMS228,2018_Oct_25_1603,George,SR,1.3,1,,10,6,2,SimpleHill,0-0,0,38,23-49,21-55;25-49;25-52;23-44;19-40;28-50,25-52,0.42,87,2,1032.38533158,1
GEMS228,2018_Oct_25_1603,George,SR,1.3,1,,10,6,2,SimpleHill,0-0,0,39,25-52,26-59;31-49;34-50;22-59;25-51;18-46,34-50,0.46,94,7,1036.91044906,1
GEMS228,2018_Oct_25_1603,George,SR,1.3,1,,10,6,2,SimpleHill,0-0,0,40,34-50,30-46;32-43;41-43;43-53;42-48;30-43,43-53,0.38,98,4,1041.36419044,1
GEMS228,2018_Oct_25_1603,George,SR,1.3,1,,10,6,2,SimpleHill,0-0,0,41,43-53,50-54;37-45;47-44;48-50;46-45;46-56,47-44,0.23,99,1,1045.66452952,1
GEMS228,2018_Oct_25_1603,George,SR,1.3,1,,10,6,2,SimpleHill,0-0,0,42,47-44,42-47;39-50;41-45;42-40;49-37;49-36,42-40,0.47,96,-3,1050.19732185,1
GEMS228,2018_Oct_25_1603,George,SR,1.3,1,,10,6,2,SimpleHill,0-0,0,43,42-40,44-34;41-46;50-43;39-43;37-39;46-32,50-43,0.42,99,3,1054.68871409,1
GEMS228,2018_Oct_25_1603,George,SR,1.3,1,,10,6,2,SimpleHill,0-0,0,44,50-43,57-48;52-50;43-38;50-43;41-45;50-48,43-38,0.9,96,-3,1059.64172582,1
GEMS228,2018_Oct_25_1603,George,SR,1.3,1,,10,6,2,SimpleHill,0-0,0,45,43-38,36-42;51-40;42-32;36-45;40-44;43-29,36-45,0.9,95,-1,1064.61330707,1
GEMS228,2018_Oct_25_1603,George,SR,1.3,1,,10,6,2,SimpleHill,0-0,0,46,36-45,28-39;41-52;28-51;30-39;38-41;36-39,38-41,6.33,95,0,1075.02577639,1
GEMS228,2018_Oct_25_1603,George,SR,1.3,1,,10,6,2,SimpleHill,0-0,0,47,38-41,29-40;47-45;32-48;31-34;47-39;45-45,31-34,0.68,87,-8,1079.76327671,1
GEMS228,2018_Oct_25_1603,George,SR,1.3,1,,10,6,2,SimpleHill,0-0,0,48,31-34,35-36;28-39;31-32;36-42;25-38;27-32,31-32,0.24,86,-1,1084.08752764,1
GEMS228,2018_Oct_25_1603,George,SR,1.3,1,,10,6,2,SimpleHill,0-0,0,49,31-32,30-41;21-32;39-35;36-24;35-25;25-39,39-35,0.55,93,7,1088.71522445,1
GEMS228,2018_Oct_25_1603,George,SR,1.3,1,,10,6,2,SimpleHill,0-0,0,50,39-35,37-31;43-43;40-27;33-29;35-41;33-35,40-27,0.26,87,-6,1093.06121381,1
GEMS228,2018_Oct_25_1603,George,SR,1.3,1,,10,6,2,SimpleHill,0-0,0,51,40-27,44-32;46-28;41-23;35-24;43-21;38-19,41-23,0.33,83,-4,1097.46278143,1
GEMS228,2018_Oct_25_1603,George,SR,1.3,1,,10,6,2,SimpleHill,0-0,0,52,41-23,46-28;47-17;45-14;36-26;50-20;46-23,36-26,1.56,84,1,1103.09779684,1
GEMS228,2018_Oct_25_1603,George,SR,1.3,1,,10,6,2,SimpleHill,0-0,0,53,36-26,39-24;43-30;36-30;27-30;29-29;37-18,29-29,0.24,82,-2,1107.40701143,1
GEMS228,2018_Oct_25_1603,George,SR,1.3,1,,10,6,2,SimpleHill,0-0,0,54,29-29,37-28;32-32;27-24;30-29;27-35;28-35,30-29,0.37,83,1,1111.84533397,1
GEMS228,2018_Oct_25_1603,George,SR,1.3,1,,10,6,2,SimpleHill,0-0,0,55,30-29,24-29;34-37;32-22;26-23;24-32;33-37,34-37,5.92,91,8,1121.84034405,1
GEMS228,2018_Oct_25_1603,George,SR,1.3,1,,10,6,2,SimpleHill,0-0,0,56,34-37,43-38;32-42;27-44;30-45;42-34;37-46,43-38,7.17,96,5,1133.08833843,1
GEMS228,2018_Oct_25_1603,George,SR,1.3,1,,10,6,2,SimpleHill,0-0,0,57,43-38,45-43;43-39;50-38;45-38;44-36;52-41,45-38,2.43,96,0,1139.59701021,1
GEMS228,2018_Oct_25_1603,George,SR,1.3,1,,10,6,2,SimpleHill,0-0,0,58,45-38,50-38;43-40;46-32;49-46;41-33;46-41,50-38,2.73,97,1,1146.40003278,1
GEMS228,2018_Oct_25_1603,George,SR,1.3,1,,10,6,2,SimpleHill,0-0,0,59,50-38,49-40;53-46;56-38;44-39;54-41;46-29,53-46,1.37,99,2,1151.82638354,1
GEMS228,2018_Oct_25_1603,George,SR,1.3,1,,10,6,2,SimpleHill,0-0,0,60,53-46,59-54;59-49;51-55;48-47;53-51;54-53,51-55,2.28,99,0,1158.19206562,1
GEMS228,2018_Oct_25_1603,George,SR,1.3,1,,10,6,2,SimpleHill,0-0,0,61,51-55,51-55;49-46;59-53;44-48;51-62;44-50,44-48,1.25,99,0,1163.51654445,1
GEMS228,2018_Oct_25_1603,George,SR,1.3,1,,10,6,2,SimpleHill,0-0,0,62,44-48,44-39;44-38;50-45;48-53;38-50;52-51,38-50,2.86,97,-2,1170.44737891,1
GEMS228,2018_Oct_25_1603,George,SR,1.3,1,,10,6,2,SimpleHill,0-0,0,63,38-50,36-43;46-51;41-55;41-41;43-58;46-55,41-55,1.26,97,0,1175.76459645,1
GEMS228,2018_Oct_25_1603,George,SR,1.3,1,,10,6,2,SimpleHill,0-0,0,64,41-55,47-58;36-48;46-57;40-49;43-56;37-48,46-57,0.7,98,1,1180.54243768,1
GEMS228,2018_Oct_25_1603,George,SR,1.3,1,,10,6,2,SimpleHill,0-0,0,65,46-57,54-57;53-62;40-49;41-51;53-61;49-49,41-51,2.78,98,0,1187.40017778,1
GEMS228,2018_Oct_25_1603,George,SR,1.3,1,,10,6,2,SimpleHill,0-0,0,66,41-51,33-52;34-57;38-43;41-61;35-47;37-45,34-57,4.59,93,-5,1196.06107041,1
GEMS228,2018_Oct_25_1603,George,SR,1.3,1,,10,6,2,SimpleHill,0-0,0,67,34-57,38-49;42-59;38-56;34-62;28-57;42-62,34-62,1.26,92,-1,1201.38747332,1
GEMS228,2018_Oct_25_1603,George,SR,1.3,1,,10,6,2,SimpleHill,0-0,0,68,34-62,38-64;29-65;33-60;29-58;30-58;27-64,29-58,0.53,89,-3,1205.9852892,1
GEMS228,2018_Oct_25_1603,George,SR,1.3,1,,10,6,2,SimpleHill,0-0,0,69,29-58,36-60;32-59;23-61;36-59;20-56;28-57,32-59,1.07,91,2,1211.13485328,1
GEMS228,2018_Oct_25_1603,George,SR,1.3,1,,10,6,2,SimpleHill,0-0,0,70,32-59,35-52;32-65;30-67;25-55;30-55;32-55,32-55,4.12,93,2,1219.33343502,1
GEMS228,2018_Oct_25_1603,George,SR,1.3,1,,10,6,2,SimpleHill,0-0,0,71,32-55,26-49;37-47;34-59;23-55;34-48;31-46,34-48,2.52,94,1,1225.93591848,1
GEMS228,2018_Oct_25_1603,George,SR,1.3,1,,10,6,2,SimpleHill,0-0,0,72,34-48,27-45;37-46;36-50;35-53;33-53;25-47,36-50,2.01,96,2,1232.00714862,1
GEMS228,2018_Oct_25_1603,George,SR,1.3,1,,10,6,2,SimpleHill,0-0,0,73,36-50,29-54;37-48;34-56;36-54;42-52;40-54,34-56,0.55,94,-2,1236.63527948,1
GEMS228,2018_Oct_25_1603,George,SR,1.3,1,,10,6,2,SimpleHill,0-0,0,74,34-56,31-62;37-51;42-62;30-54;38-50;39-60,39-60,0.53,95,1,1241.23367761,1
GEMS228,2018_Oct_25_1603,George,SR,1.3,1,,10,6,2,SimpleHill,0-0,0,75,39-60,45-59;37-53;40-56;31-65;41-55;49-60,49-60,5.21,97,2,1250.50668593,1
GEMS228,2018_Oct_25_1603,George,SR,1.3,1,,10,6,2,SimpleHill,0-0,0,76,49-60,50-56;46-51;54-54;54-63;47-61;49-55,47-61,3.87,97,0,1258.43629219,1
GEMS228,2018_Oct_25_1603,George,SR,1.3,1,,10,6,2,SimpleHill,0-0,0,77,47-61,42-62;46-55;44-55;52-57;49-67;46-63,52-57,2.13,98,1,1264.64787704,1
GEMS228,2018_Oct_25_1603,George,SR,1.3,1,,10,6,2,SimpleHill,0-0,0,78,52-57,48-66;54-66;51-62;59-55;54-48;43-61,51-62,1.56,97,-1,1270.26988869,1
GEMS228,2018_Oct_25_1603,George,SR,1.3,1,,10,6,2,SimpleHill,0-0,0,79,51-62,57-54;42-60;53-63;48-63;55-54;58-64,53-63,0.25,96,-1,1275.9651077,1
