subj_id,date,computer,experimenter,instructions,sight_radius,n_gabors,start_pos_list_ix,start_pos_list,landscape_ix,landscape_name,starting_pos,starting_score,trial,feedback,pos,stims,selected,rt,score,delta,exp_time
GEMS224,2018_Apr_16_1543,George,EG,spatial_frequency,8,6,12,44-9;29-35;28-16;53-17,0,SpatialFrequencyBias,0-0,0,0,training,0-0,6-3;5-2;2-1;4-2;7-0;5-4,7-0,7.84,0,0,151.867136775
GEMS224,2018_Apr_16_1543,George,EG,spatial_frequency,8,6,12,44-9;29-35;28-16;53-17,0,SpatialFrequencyBias,0-0,0,1,training,7-0,11-0;8-4;4-6;12-6;0-3;11-4,11-4,2.16,15,15,163.181887904
GEMS224,2018_Apr_16_1543,George,EG,spatial_frequency,8,6,12,44-9;29-35;28-16;53-17,0,SpatialFrequencyBias,0-0,0,2,training,11-4,10-0;13-11;16-3;14-10;6-6;11-12,16-3,2.06,11,-4,171.976116322
GEMS224,2018_Apr_16_1543,George,EG,spatial_frequency,8,6,12,44-9;29-35;28-16;53-17,0,SpatialFrequencyBias,0-0,0,3,training,16-3,18-3;16-8;10-8;21-5;9-3;11-6,16-8,8.48,29,18,189.868148907
GEMS224,2018_Apr_16_1543,George,EG,spatial_frequency,8,6,12,44-9;29-35;28-16;53-17,0,SpatialFrequencyBias,0-0,0,4,training,16-8,10-13;10-3;22-9;20-8;14-3;18-15,18-15,2.87,51,22,197.142017221
GEMS224,2018_Apr_16_1543,George,EG,spatial_frequency,8,6,12,44-9;29-35;28-16;53-17,0,SpatialFrequencyBias,0-0,0,5,training,18-15,15-13;13-15;15-21;13-18;13-10;19-11,15-21,1.52,66,15,202.482990301
GEMS224,2018_Apr_16_1543,George,EG,spatial_frequency,8,6,12,44-9;29-35;28-16;53-17,0,SpatialFrequencyBias,0-0,0,6,training,15-21,16-24;12-25;18-18;21-23;15-18;15-24,12-25,2.11,75,9,207.310024327
GEMS224,2018_Apr_16_1543,George,EG,spatial_frequency,8,6,12,44-9;29-35;28-16;53-17,0,SpatialFrequencyBias,0-0,0,7,training,12-25,8-22;12-28;14-20;18-25;14-21;10-30,10-30,1.79,84,9,212.114726801
GEMS224,2018_Apr_16_1543,George,EG,spatial_frequency,8,6,12,44-9;29-35;28-16;53-17,0,SpatialFrequencyBias,0-0,0,8,training,10-30,7-37;10-35;4-33;10-33;18-30;10-30,7-37,3.54,93,9,218.98930412
GEMS224,2018_Apr_16_1543,George,EG,spatial_frequency,8,6,12,44-9;29-35;28-16;53-17,0,SpatialFrequencyBias,0-0,0,9,training,7-37,11-36;6-39;1-34;11-39;5-40;4-39,11-39,7.56,95,2,229.307496239
GEMS224,2018_Apr_16_1543,George,EG,spatial_frequency,8,6,12,44-9;29-35;28-16;53-17,0,SpatialFrequencyBias,0-0,0,10,training,11-39,9-33;8-42;10-36;13-46;14-36;6-39,13-46,1.1,99,4,233.672549854
GEMS224,2018_Apr_16_1543,George,EG,spatial_frequency,8,6,12,44-9;29-35;28-16;53-17,0,SpatialFrequencyBias,0-0,0,11,training,13-46,17-40;10-48;8-51;11-40;7-47;19-48,8-51,1.53,99,0,237.698968663
GEMS224,2018_Apr_16_1543,George,EG,spatial_frequency,8,6,12,44-9;29-35;28-16;53-17,0,SpatialFrequencyBias,0-0,0,12,training,8-51,8-51;5-52;11-50;10-54;5-54;9-49,10-54,3.99,99,0,245.739735284
GEMS224,2018_Apr_16_1543,George,EG,spatial_frequency,8,6,12,44-9;29-35;28-16;53-17,0,SpatialFrequencyBias,0-0,0,13,training,10-54,6-59;11-61;6-51;9-61;4-59;13-54,9-61,2.61,95,-4,252.253869594
GEMS224,2018_Apr_16_1543,George,EG,spatial_frequency,8,6,12,44-9;29-35;28-16;53-17,0,SpatialFrequencyBias,0-0,0,14,training,9-61,3-64;14-67;8-56;8-57;9-58;1-61,14-67,1.72,88,-7,259.16107615
GEMS224,2018_Apr_16_1543,George,EG,spatial_frequency,8,6,12,44-9;29-35;28-16;53-17,0,SpatialFrequencyBias,0-0,0,15,training,14-67,10-61;9-66;10-69;21-66;8-65;11-66,8-65,3.58,91,3,268.556615345
GEMS224,2018_Apr_16_1543,George,EG,spatial_frequency,8,6,12,44-9;29-35;28-16;53-17,0,SpatialFrequencyBias,0-0,0,16,training,8-65,6-59;8-63;9-67;10-64;7-65;2-65,10-64,2.29,92,1,276.443343043
GEMS224,2018_Apr_16_1543,George,EG,spatial_frequency,8,6,12,44-9;29-35;28-16;53-17,0,SpatialFrequencyBias,0-0,0,17,training,10-64,12-62;17-64;8-58;3-62;10-70;4-68,3-62,5.12,94,2,290.657064114
GEMS224,2018_Apr_16_1543,George,EG,spatial_frequency,8,6,12,44-9;29-35;28-16;53-17,0,SpatialFrequencyBias,0-0,0,18,training,3-62,10-63;4-55;1-60;3-57;3-60;0-59,3-57,1.72,98,4,295.551587657
GEMS224,2018_Apr_16_1543,George,EG,spatial_frequency,8,6,12,44-9;29-35;28-16;53-17,0,SpatialFrequencyBias,0-0,0,19,training,3-57,1-63;8-58;7-63;6-55;1-58;0-58,7-63,2.88,93,-5,301.873306552
GEMS224,2018_Apr_16_1543,George,EG,spatial_frequency,8,6,12,44-9;29-35;28-16;53-17,0,SpatialFrequencyBias,0-0,0,20,training,7-63,6-59;1-66;8-63;1-58;13-59;4-64,6-59,2.91,96,3,308.581483307
GEMS224,2018_Apr_16_1543,George,EG,spatial_frequency,8,6,12,44-9;29-35;28-16;53-17,0,SpatialFrequencyBias,0-0,0,21,training,6-59,13-61;6-57;7-52;7-62;6-62;11-57,6-62,4.22,94,-2,316.193225569
GEMS224,2018_Apr_16_1543,George,EG,spatial_frequency,8,6,12,44-9;29-35;28-16;53-17,0,SpatialFrequencyBias,0-0,0,22,training,6-62,6-61;10-56;2-68;11-66;0-62;6-66,6-66,5.98,89,-5,326.039378701
GEMS224,2018_Apr_16_1543,George,EG,spatial_frequency,8,6,12,44-9;29-35;28-16;53-17,0,SpatialFrequencyBias,0-0,0,23,training,6-66,11-60;2-67;3-60;11-69;5-66;13-64,3-60,2.52,96,7,332.18736084
GEMS224,2018_Apr_16_1543,George,EG,spatial_frequency,8,6,12,44-9;29-35;28-16;53-17,0,SpatialFrequencyBias,0-0,0,24,training,3-60,1-61;6-61;1-62;5-67;9-62;4-59,5-67,1.84,88,-8,338.881828046
GEMS224,2018_Apr_16_1543,George,EG,spatial_frequency,8,6,12,44-9;29-35;28-16;53-17,0,SpatialFrequencyBias,0-0,0,25,training,5-67,5-63;9-67;5-70;3-66;3-62;9-70,9-67,3.47,88,0,345.743821581
GEMS224,2018_Apr_16_1543,George,EG,spatial_frequency,8,6,12,44-9;29-35;28-16;53-17,0,SpatialFrequencyBias,0-0,0,26,training,9-67,11-62;14-62;12-62;13-61;7-70;11-63,12-62,4.68,94,6,354.92774399
GEMS224,2018_Apr_16_1543,George,EG,spatial_frequency,8,6,12,44-9;29-35;28-16;53-17,0,SpatialFrequencyBias,0-0,0,27,training,12-62,16-64;13-55;17-61;7-60;12-57;9-59,7-60,0.83,96,2,360.526092955
GEMS224,2018_Apr_16_1543,George,EG,spatial_frequency,8,6,12,44-9;29-35;28-16;53-17,0,SpatialFrequencyBias,0-0,0,28,training,7-60,11-58;14-62;4-58;4-53;5-67;1-63,14-62,3.28,94,-2,368.129676067
GEMS224,2018_Apr_16_1543,George,EG,spatial_frequency,8,6,12,44-9;29-35;28-16;53-17,0,SpatialFrequencyBias,0-0,0,29,training,14-62,15-65;9-68;16-56;21-63;11-67;9-67,9-68,1.99,87,-7,373.48562466
GEMS224,2018_Apr_16_1543,George,EG,spatial_frequency,8,6,12,44-9;29-35;28-16;53-17,1,SimpleHill,44-9,65,0,selected,44-9,46-9;40-9;37-8;41-9;42-12;47-13,47-13,16.56,72,7,410.360977562
GEMS224,2018_Apr_16_1543,George,EG,spatial_frequency,8,6,12,44-9;29-35;28-16;53-17,1,SimpleHill,44-9,65,1,selected,47-13,50-20;40-16;41-15;45-13;40-11;48-17,40-16,6.18,74,2,420.102870587
GEMS224,2018_Apr_16_1543,George,EG,spatial_frequency,8,6,12,44-9;29-35;28-16;53-17,1,SimpleHill,44-9,65,2,selected,40-16,47-18;39-13;35-16;36-21;45-22;46-18,36-21,4.76,79,5,428.447280177
GEMS224,2018_Apr_16_1543,George,EG,spatial_frequency,8,6,12,44-9;29-35;28-16;53-17,1,SimpleHill,44-9,65,3,selected,36-21,37-28;41-20;36-22;36-15;36-17;31-27,31-27,3.61,82,3,435.642912519
GEMS224,2018_Apr_16_1543,George,EG,spatial_frequency,8,6,12,44-9;29-35;28-16;53-17,1,SimpleHill,44-9,65,4,selected,31-27,28-34;30-32;29-26;37-32;31-23;26-32,28-34,2.36,85,3,441.569522102
GEMS224,2018_Apr_16_1543,George,EG,spatial_frequency,8,6,12,44-9;29-35;28-16;53-17,1,SimpleHill,44-9,65,5,selected,28-34,21-33;26-39;31-29;21-34;24-39;29-32,24-39,2.23,84,-1,447.370655869
GEMS224,2018_Apr_16_1543,George,EG,spatial_frequency,8,6,12,44-9;29-35;28-16;53-17,1,SimpleHill,44-9,65,6,selected,24-39,30-38;26-45;25-33;24-32;22-35;28-34,25-33,4.14,81,-3,455.08604206
GEMS224,2018_Apr_16_1543,George,EG,spatial_frequency,8,6,12,44-9;29-35;28-16;53-17,1,SimpleHill,44-9,65,7,selected,25-33,30-35;22-35;27-26;29-37;27-35;21-36,27-35,2.11,84,3,460.758943056
GEMS224,2018_Apr_16_1543,George,EG,spatial_frequency,8,6,12,44-9;29-35;28-16;53-17,1,SimpleHill,44-9,65,8,selected,27-35,27-36;20-38;25-35;34-33;30-34;22-35,25-35,5.65,83,-1,469.975749176
GEMS224,2018_Apr_16_1543,George,EG,spatial_frequency,8,6,12,44-9;29-35;28-16;53-17,1,SimpleHill,44-9,65,9,selected,25-35,29-39;22-33;21-36;32-34;23-30;21-38,21-38,5.74,80,-3,479.274365737
GEMS224,2018_Apr_16_1543,George,EG,spatial_frequency,8,6,12,44-9;29-35;28-16;53-17,1,SimpleHill,44-9,65,10,selected,21-38,26-32;16-42;18-42;15-37;28-37;18-41,15-37,3.5,72,-8,486.346152812
GEMS224,2018_Apr_16_1543,George,EG,spatial_frequency,8,6,12,44-9;29-35;28-16;53-17,1,SimpleHill,44-9,65,11,selected,15-37,20-40;16-42;17-37;19-43;18-38;11-42,20-40,2.73,80,8,492.646658558
GEMS224,2018_Apr_16_1543,George,EG,spatial_frequency,8,6,12,44-9;29-35;28-16;53-17,1,SimpleHill,44-9,65,12,selected,20-40,19-40;22-33;19-36;25-38;20-45;18-34,19-40,4.15,78,-2,500.364287635
GEMS224,2018_Apr_16_1543,George,EG,spatial_frequency,8,6,12,44-9;29-35;28-16;53-17,1,SimpleHill,44-9,65,13,selected,19-40,19-38;23-39;20-35;24-41;21-41;23-34,23-39,2.4,83,5,506.332439102
GEMS224,2018_Apr_16_1543,George,EG,spatial_frequency,8,6,12,44-9;29-35;28-16;53-17,1,SimpleHill,44-9,65,14,selected,23-39,27-45;17-35;20-35;23-44;23-33;24-45,24-45,5.93,85,2,515.814540828
GEMS224,2018_Apr_16_1543,George,EG,spatial_frequency,8,6,12,44-9;29-35;28-16;53-17,1,SimpleHill,44-9,65,15,selected,24-45,20-44;18-43;26-43;31-43;17-42;26-47,18-43,8.88,78,-7,528.237112768
GEMS224,2018_Apr_16_1543,George,EG,spatial_frequency,8,6,12,44-9;29-35;28-16;53-17,1,SimpleHill,44-9,65,16,selected,18-43,21-42;18-50;21-36;16-42;19-47;25-43,18-50,5.87,79,1,537.693408662
GEMS224,2018_Apr_16_1543,George,EG,spatial_frequency,8,6,12,44-9;29-35;28-16;53-17,1,SimpleHill,44-9,65,17,selected,18-50,13-54;24-50;23-46;16-55;15-51;17-45,16-55,1.74,76,-3,542.97357703
GEMS224,2018_Apr_16_1543,George,EG,spatial_frequency,8,6,12,44-9;29-35;28-16;53-17,1,SimpleHill,44-9,65,18,selected,16-55,17-53;20-55;13-52;12-60;19-55;16-53,16-53,6.14,76,0,552.674947345
GEMS224,2018_Apr_16_1543,George,EG,spatial_frequency,8,6,12,44-9;29-35;28-16;53-17,1,SimpleHill,44-9,65,19,selected,16-53,12-53;11-49;22-54;13-51;20-53;11-54,11-54,13.82,69,-7,570.074662143
GEMS224,2018_Apr_16_1543,George,EG,spatial_frequency,8,6,12,44-9;29-35;28-16;53-17,1,SimpleHill,44-9,65,20,selected,11-54,5-58;9-57;6-52;8-53;14-60;7-52,9-57,5.29,65,-4,578.927263212
GEMS224,2018_Apr_16_1543,George,EG,spatial_frequency,8,6,12,44-9;29-35;28-16;53-17,1,SimpleHill,44-9,65,21,selected,9-57,6-62;15-53;12-53;12-54;16-54;14-59,12-54,4.59,70,5,587.099857879
GEMS224,2018_Apr_16_1543,George,EG,spatial_frequency,8,6,12,44-9;29-35;28-16;53-17,1,SimpleHill,44-9,65,22,selected,12-54,18-52;10-49;12-56;12-51;11-56;7-51,12-56,5.61,70,0,596.269056368
GEMS224,2018_Apr_16_1543,George,EG,spatial_frequency,8,6,12,44-9;29-35;28-16;53-17,1,SimpleHill,44-9,65,23,selected,12-56,5-56;18-55;16-60;8-58;11-57;10-54,11-57,12.18,68,-2,612.027543292
GEMS224,2018_Apr_16_1543,George,EG,spatial_frequency,8,6,12,44-9;29-35;28-16;53-17,1,SimpleHill,44-9,65,24,selected,11-57,8-60;17-62;6-53;14-61;10-50;13-51,13-51,2.66,72,4,618.251351749
GEMS224,2018_Apr_16_1543,George,EG,spatial_frequency,8,6,12,44-9;29-35;28-16;53-17,1,SimpleHill,44-9,65,25,selected,13-51,14-51;6-49;13-48;16-55;13-54;21-51,13-54,2.4,72,0,624.224222336
GEMS224,2018_Apr_16_1543,George,EG,spatial_frequency,8,6,12,44-9;29-35;28-16;53-17,1,SimpleHill,44-9,65,26,selected,13-54,11-58;15-61;11-55;16-49;10-61;9-53,11-55,17.1,69,-3,644.882400691
GEMS224,2018_Apr_16_1543,George,EG,spatial_frequency,8,6,12,44-9;29-35;28-16;53-17,1,SimpleHill,44-9,65,27,selected,11-55,6-59;3-55;17-54;11-51;14-58;8-52,14-58,1.2,72,3,649.639949745
GEMS224,2018_Apr_16_1543,George,EG,spatial_frequency,8,6,12,44-9;29-35;28-16;53-17,1,SimpleHill,44-9,65,28,selected,14-58,16-64;12-55;17-52;21-59;16-51;13-58,16-64,1.7,72,0,654.901800519
GEMS224,2018_Apr_16_1543,George,EG,spatial_frequency,8,6,12,44-9;29-35;28-16;53-17,1,SimpleHill,44-9,65,29,selected,16-64,10-68;12-60;12-58;13-60;10-65;17-66,10-65,3.18,63,-9,661.645551039
GEMS224,2018_Apr_16_1543,George,EG,spatial_frequency,8,6,12,44-9;29-35;28-16;53-17,1,SimpleHill,44-9,65,30,selected,10-65,7-64;15-64;5-65;8-60;9-70;11-59,9-70,3.16,58,-5,668.374118306
GEMS224,2018_Apr_16_1543,George,EG,spatial_frequency,8,6,12,44-9;29-35;28-16;53-17,1,SimpleHill,44-9,65,31,selected,9-70,9-62;6-63;12-67;12-69;10-63;3-67,6-63,2.43,57,-1,674.368811178
GEMS224,2018_Apr_16_1543,George,EG,spatial_frequency,8,6,12,44-9;29-35;28-16;53-17,1,SimpleHill,44-9,65,32,selected,6-63,3-56;9-66;8-62;6-64;10-61;1-65,10-61,5.65,65,8,683.586920393
GEMS224,2018_Apr_16_1543,George,EG,spatial_frequency,8,6,12,44-9;29-35;28-16;53-17,1,SimpleHill,44-9,65,33,selected,10-61,12-63;5-55;4-60;10-53;13-61;11-54,12-63,3.43,67,2,690.587249128
GEMS224,2018_Apr_16_1543,George,EG,spatial_frequency,8,6,12,44-9;29-35;28-16;53-17,1,SimpleHill,44-9,65,34,selected,12-63,7-65;10-64;20-63;12-60;14-61;17-62,12-60,6.32,69,2,700.48371531
GEMS224,2018_Apr_16_1543,George,EG,spatial_frequency,8,6,12,44-9;29-35;28-16;53-17,1,SimpleHill,44-9,65,35,selected,12-60,11-65;12-53;10-53;8-66;13-62;7-55,8-66,4.57,59,-10,708.611918953
GEMS224,2018_Apr_16_1543,George,EG,spatial_frequency,8,6,12,44-9;29-35;28-16;53-17,1,SimpleHill,44-9,65,36,selected,8-66,12-62;12-64;7-70;13-60;3-61;9-60,12-64,4.7,67,8,716.868142825
GEMS224,2018_Apr_16_1543,George,EG,spatial_frequency,8,6,12,44-9;29-35;28-16;53-17,1,SimpleHill,44-9,65,37,selected,12-64,11-57;16-58;12-60;6-59;8-63;13-58,6-59,5.28,59,-8,725.729358535
GEMS224,2018_Apr_16_1543,George,EG,spatial_frequency,8,6,12,44-9;29-35;28-16;53-17,1,SimpleHill,44-9,65,38,selected,6-59,8-60;13-59;3-60;11-57;10-64;7-55,10-64,1.51,64,5,730.824251144
GEMS224,2018_Apr_16_1543,George,EG,spatial_frequency,8,6,12,44-9;29-35;28-16;53-17,1,SimpleHill,44-9,65,39,selected,10-64,15-69;15-58;5-67;15-60;16-61;4-63,5-67,1.98,53,-11,736.368105054
GEMS224,2018_Apr_16_1543,George,EG,spatial_frequency,8,6,12,44-9;29-35;28-16;53-17,2,SimpleHill,29-35,86,0,selected,29-35,33-33;35-32;24-37;28-41;27-36;25-39,25-39,27.46,85,-1,781.950259915
GEMS224,2018_Apr_16_1543,George,EG,spatial_frequency,8,6,12,44-9;29-35;28-16;53-17,2,SimpleHill,29-35,86,1,selected,25-39,28-39;18-37;27-44;20-42;22-42;26-40,20-42,1.76,80,-5,787.259975353
GEMS224,2018_Apr_16_1543,George,EG,spatial_frequency,8,6,12,44-9;29-35;28-16;53-17,2,SimpleHill,29-35,86,2,selected,20-42,19-48;22-37;21-47;27-40;18-36;22-44,21-47,5.05,83,3,795.859585801
GEMS224,2018_Apr_16_1543,George,EG,spatial_frequency,8,6,12,44-9;29-35;28-16;53-17,2,SimpleHill,29-35,86,3,selected,21-47,17-42;25-43;19-41;18-47;27-48;18-44,18-44,8.04,78,-5,807.457714542
GEMS224,2018_Apr_16_1543,George,EG,spatial_frequency,8,6,12,44-9;29-35;28-16;53-17,2,SimpleHill,29-35,86,4,selected,18-44,16-42;20-47;23-47;18-51;17-45;17-43,18-51,1.04,79,1,812.069033001
GEMS224,2018_Apr_16_1543,George,EG,spatial_frequency,8,6,12,44-9;29-35;28-16;53-17,2,SimpleHill,29-35,86,5,selected,18-51,19-49;19-44;16-53;13-45;22-55;21-53,19-49,5.89,80,1,821.525551999
GEMS224,2018_Apr_16_1543,George,EG,spatial_frequency,8,6,12,44-9;29-35;28-16;53-17,2,SimpleHill,29-35,86,6,selected,19-49,23-49;16-48;26-49;17-54;23-55;20-42,17-54,3.0,77,-3,828.093086649
GEMS224,2018_Apr_16_1543,George,EG,spatial_frequency,8,6,12,44-9;29-35;28-16;53-17,2,SimpleHill,29-35,86,7,selected,17-54,10-56;14-50;12-48;21-58;17-56;10-51,17-56,2.56,77,0,834.212925002
GEMS224,2018_Apr_16_1543,George,EG,spatial_frequency,8,6,12,44-9;29-35;28-16;53-17,2,SimpleHill,29-35,86,8,selected,17-56,22-58;18-53;17-56;17-62;13-53;17-51,17-56,6.05,77,0,843.83618066
GEMS224,2018_Apr_16_1543,George,EG,spatial_frequency,8,6,12,44-9;29-35;28-16;53-17,2,SimpleHill,29-35,86,9,selected,17-56,16-53;16-50;19-62;21-57;18-57;20-55,19-62,5.41,77,0,852.793739637
GEMS224,2018_Apr_16_1543,George,EG,spatial_frequency,8,6,12,44-9;29-35;28-16;53-17,2,SimpleHill,29-35,86,10,selected,19-62,11-62;18-65;19-58;13-66;20-55;15-60,13-66,2.6,67,-10,858.947268013
GEMS224,2018_Apr_16_1543,George,EG,spatial_frequency,8,6,12,44-9;29-35;28-16;53-17,2,SimpleHill,29-35,86,11,selected,13-66,15-65;21-66;18-70;17-69;13-61;10-69,10-69,5.31,60,-7,867.808426427
GEMS224,2018_Apr_16_1543,George,EG,spatial_frequency,8,6,12,44-9;29-35;28-16;53-17,2,SimpleHill,29-35,86,12,selected,10-69,7-64;7-66;17-69;9-66;6-67;15-65,17-69,3.48,71,11,874.857071156
GEMS224,2018_Apr_16_1543,George,EG,spatial_frequency,8,6,12,44-9;29-35;28-16;53-17,2,SimpleHill,29-35,86,13,selected,17-69,16-65;23-70;13-63;17-65;17-70;12-69,17-70,2.87,70,-1,881.300922826
GEMS224,2018_Apr_16_1543,George,EG,spatial_frequency,8,6,12,44-9;29-35;28-16;53-17,2,SimpleHill,29-35,86,14,selected,17-70,15-68;17-67;10-68;16-66;13-69;18-65,16-66,1.91,71,1,886.792372843
GEMS224,2018_Apr_16_1543,George,EG,spatial_frequency,8,6,12,44-9;29-35;28-16;53-17,2,SimpleHill,29-35,86,15,selected,16-66,15-67;12-64;9-69;11-64;14-61;20-61,20-61,3.3,79,8,893.66093883
GEMS224,2018_Apr_16_1543,George,EG,spatial_frequency,8,6,12,44-9;29-35;28-16;53-17,2,SimpleHill,29-35,86,16,selected,20-61,20-66;16-57;14-66;15-57;18-54;13-62,13-62,7.36,69,-10,904.589556032
GEMS224,2018_Apr_16_1543,George,EG,spatial_frequency,8,6,12,44-9;29-35;28-16;53-17,2,SimpleHill,29-35,86,17,selected,13-62,8-56;12-60;7-67;15-63;7-57;18-60,18-60,3.91,77,8,912.060650427
GEMS224,2018_Apr_16_1543,George,EG,spatial_frequency,8,6,12,44-9;29-35;28-16;53-17,2,SimpleHill,29-35,86,18,selected,18-60,15-55;20-65;23-66;15-66;16-67;20-56,20-56,2.0,81,4,917.62583464
GEMS224,2018_Apr_16_1543,George,EG,spatial_frequency,8,6,12,44-9;29-35;28-16;53-17,2,SimpleHill,29-35,86,19,selected,20-56,13-55;15-54;20-56;20-51;17-57;15-50,20-51,1.86,81,0,923.056599981
GEMS224,2018_Apr_16_1543,George,EG,spatial_frequency,8,6,12,44-9;29-35;28-16;53-17,2,SimpleHill,29-35,86,20,selected,20-51,23-44;27-53;23-58;19-50;21-56;17-56,23-58,1.35,84,3,927.965598092
GEMS224,2018_Apr_16_1543,George,EG,spatial_frequency,8,6,12,44-9;29-35;28-16;53-17,2,SimpleHill,29-35,86,21,selected,23-58,20-51;19-56;27-63;16-57;22-63;16-59,27-63,0.95,86,2,932.483227169
GEMS224,2018_Apr_16_1543,George,EG,spatial_frequency,8,6,12,44-9;29-35;28-16;53-17,2,SimpleHill,29-35,86,22,selected,27-63,31-63;21-60;26-60;20-60;30-68;24-65,26-60,0.92,86,0,936.978451714
GEMS224,2018_Apr_16_1543,George,EG,spatial_frequency,8,6,12,44-9;29-35;28-16;53-17,2,SimpleHill,29-35,86,23,selected,26-60,23-54;30-57;20-57;26-60;32-64;23-58,26-60,2.18,86,0,942.704997599
GEMS224,2018_Apr_16_1543,George,EG,spatial_frequency,8,6,12,44-9;29-35;28-16;53-17,2,SimpleHill,29-35,86,24,selected,26-60,21-60;27-53;23-64;25-63;30-60;27-67,27-53,1.55,89,3,947.809419993
GEMS224,2018_Apr_16_1543,George,EG,spatial_frequency,8,6,12,44-9;29-35;28-16;53-17,2,SimpleHill,29-35,86,25,selected,27-53,34-53;26-52;29-51;21-53;25-56;21-52,26-52,1.19,88,-1,952.58267213
GEMS224,2018_Apr_16_1543,George,EG,spatial_frequency,8,6,12,44-9;29-35;28-16;53-17,2,SimpleHill,29-35,86,26,selected,26-52,23-54;27-48;33-51;19-50;21-56;28-56,21-56,2.08,82,-6,958.241722096
GEMS224,2018_Apr_16_1543,George,EG,spatial_frequency,8,6,12,44-9;29-35;28-16;53-17,2,SimpleHill,29-35,86,27,selected,21-56,26-51;20-57;21-50;26-52;17-62;16-55,26-52,1.04,88,6,962.868649211
GEMS224,2018_Apr_16_1543,George,EG,spatial_frequency,8,6,12,44-9;29-35;28-16;53-17,2,SimpleHill,29-35,86,28,selected,26-52,30-48;28-47;34-52;21-54;27-47;33-49,21-54,2.76,82,-6,969.210358183
GEMS224,2018_Apr_16_1543,George,EG,spatial_frequency,8,6,12,44-9;29-35;28-16;53-17,2,SimpleHill,29-35,86,29,selected,21-54,24-51;26-49;20-59;21-53;27-53;23-50,26-49,3.19,88,6,975.958074966
GEMS224,2018_Apr_16_1543,George,EG,spatial_frequency,8,6,12,44-9;29-35;28-16;53-17,2,SimpleHill,29-35,86,30,selected,26-49,20-45;23-47;28-54;26-55;31-50;23-52,31-50,1.88,92,4,981.416425531
GEMS224,2018_Apr_16_1543,George,EG,spatial_frequency,8,6,12,44-9;29-35;28-16;53-17,2,SimpleHill,29-35,86,31,selected,31-50,37-46;32-55;27-52;34-46;29-54;29-56,34-46,3.46,94,2,988.434327326
GEMS224,2018_Apr_16_1543,George,EG,spatial_frequency,8,6,12,44-9;29-35;28-16;53-17,2,SimpleHill,29-35,86,32,selected,34-46,36-44;35-45;40-50;28-45;40-42;36-52,40-42,1.1,96,2,993.10100733
GEMS224,2018_Apr_16_1543,George,EG,spatial_frequency,8,6,12,44-9;29-35;28-16;53-17,2,SimpleHill,29-35,86,33,selected,40-42,42-46;40-39;35-47;47-41;48-42;40-46,40-46,6.09,97,1,1002.75073141
GEMS224,2018_Apr_16_1543,George,EG,spatial_frequency,8,6,12,44-9;29-35;28-16;53-17,2,SimpleHill,29-35,86,34,selected,40-46,37-48;36-51;41-46;47-46;38-52;37-43,47-46,2.72,99,2,1009.0297977
GEMS224,2018_Apr_16_1543,George,EG,spatial_frequency,8,6,12,44-9;29-35;28-16;53-17,2,SimpleHill,29-35,86,35,selected,47-46,42-51;48-47;47-47;51-51;53-51;53-45,47-47,1.18,99,0,1013.77637111
GEMS224,2018_Apr_16_1543,George,EG,spatial_frequency,8,6,12,44-9;29-35;28-16;53-17,2,SimpleHill,29-35,86,36,selected,47-47,49-53;53-49;50-49;47-39;51-43;52-51,51-43,2.79,99,0,1020.14343043
GEMS224,2018_Apr_16_1543,George,EG,spatial_frequency,8,6,12,44-9;29-35;28-16;53-17,2,SimpleHill,29-35,86,37,selected,51-43,48-42;53-45;45-44;53-39;44-41;55-43,55-43,3.0,98,-1,1026.69426267
GEMS224,2018_Apr_16_1543,George,EG,spatial_frequency,8,6,12,44-9;29-35;28-16;53-17,2,SimpleHill,29-35,86,38,selected,55-43,60-39;53-40;63-43;62-46;59-44;61-48,53-40,1.15,97,-1,1031.41198841
GEMS224,2018_Apr_16_1543,George,EG,spatial_frequency,8,6,12,44-9;29-35;28-16;53-17,2,SimpleHill,29-35,86,39,selected,53-40,48-34;58-41;48-40;55-35;57-43;59-42,48-40,3.64,97,0,1038.62443648
GEMS224,2018_Apr_16_1543,George,EG,spatial_frequency,8,6,12,44-9;29-35;28-16;53-17,3,SimpleHill,28-16,67,0,selected,28-16,23-17;24-22;33-19;24-16;28-18;27-9,28-18,2.52,69,2,1051.03385935
GEMS224,2018_Apr_16_1543,George,EG,spatial_frequency,8,6,12,44-9;29-35;28-16;53-17,3,SimpleHill,28-16,67,1,selected,28-18,27-14;35-19;22-18;28-22;23-16;25-11,35-19,1.89,76,7,1056.4902692
GEMS224,2018_Apr_16_1543,George,EG,spatial_frequency,8,6,12,44-9;29-35;28-16;53-17,3,SimpleHill,28-16,67,2,selected,35-19,35-25;36-13;32-24;30-13;36-16;32-25,32-25,2.06,81,5,1062.11530585
GEMS224,2018_Apr_16_1543,George,EG,spatial_frequency,8,6,12,44-9;29-35;28-16;53-17,3,SimpleHill,28-16,67,3,selected,32-25,29-18;32-21;31-24;29-23;38-21;31-31,32-21,1.53,76,-5,1067.20041484
GEMS224,2018_Apr_16_1543,George,EG,spatial_frequency,8,6,12,44-9;29-35;28-16;53-17,3,SimpleHill,28-16,67,4,selected,32-21,36-18;32-28;27-15;36-16;32-19;27-26,36-18,4.39,75,-1,1075.14991742
GEMS224,2018_Apr_16_1543,George,EG,spatial_frequency,8,6,12,44-9;29-35;28-16;53-17,3,SimpleHill,28-16,67,5,selected,36-18,40-15;36-20;36-14;42-18;39-25;42-14,39-25,2.23,85,10,1080.94527352
GEMS224,2018_Apr_16_1543,George,EG,spatial_frequency,8,6,12,44-9;29-35;28-16;53-17,3,SimpleHill,28-16,67,6,selected,39-25,41-29;34-20;46-22;36-21;33-21;39-18,41-29,4.55,89,4,1089.07415096
GEMS224,2018_Apr_16_1543,George,EG,spatial_frequency,8,6,12,44-9;29-35;28-16;53-17,3,SimpleHill,28-16,67,7,selected,41-29,40-35;43-27;44-23;39-26;39-32;40-36,44-23,7.8,84,-5,1100.44575206
GEMS224,2018_Apr_16_1543,George,EG,spatial_frequency,8,6,12,44-9;29-35;28-16;53-17,3,SimpleHill,28-16,67,8,selected,44-23,46-29;38-21;44-25;42-26;43-27;40-26,43-27,6.68,88,4,1110.69134055
GEMS224,2018_Apr_16_1543,George,EG,spatial_frequency,8,6,12,44-9;29-35;28-16;53-17,3,SimpleHill,28-16,67,9,selected,43-27,47-28;44-33;44-27;41-23;46-24;39-30,44-33,3.11,93,5,1117.36760059
GEMS224,2018_Apr_16_1543,George,EG,spatial_frequency,8,6,12,44-9;29-35;28-16;53-17,3,SimpleHill,28-16,67,10,selected,44-33,41-30;49-37;40-31;42-40;47-30;47-38,42-40,1.53,96,3,1122.47027688
GEMS224,2018_Apr_16_1543,George,EG,spatial_frequency,8,6,12,44-9;29-35;28-16;53-17,3,SimpleHill,28-16,67,11,selected,42-40,41-47;40-45;42-36;49-39;41-37;49-42,40-45,1.71,97,1,1127.74680932
GEMS224,2018_Apr_16_1543,George,EG,spatial_frequency,8,6,12,44-9;29-35;28-16;53-17,3,SimpleHill,28-16,67,12,selected,40-45,42-41;43-50;37-46;40-53;45-40;43-43,40-53,1.53,97,0,1132.84622995
GEMS224,2018_Apr_16_1543,George,EG,spatial_frequency,8,6,12,44-9;29-35;28-16;53-17,3,SimpleHill,28-16,67,13,selected,40-53,45-49;38-46;39-58;43-58;38-55;35-57,38-55,1.93,96,-1,1138.35890785
GEMS224,2018_Apr_16_1543,George,EG,spatial_frequency,8,6,12,44-9;29-35;28-16;53-17,3,SimpleHill,28-16,67,14,selected,38-55,37-58;38-57;42-54;38-49;34-51;43-53,38-49,1.16,97,1,1143.08396978
GEMS224,2018_Apr_16_1543,George,EG,spatial_frequency,8,6,12,44-9;29-35;28-16;53-17,3,SimpleHill,28-16,67,15,selected,38-49,42-53;34-54;41-55;30-49;34-44;40-56,41-55,1.87,97,0,1148.53008931
GEMS224,2018_Apr_16_1543,George,EG,spatial_frequency,8,6,12,44-9;29-35;28-16;53-17,3,SimpleHill,28-16,67,16,selected,41-55,40-55;44-58;42-53;47-50;44-53;38-49,38-49,2.59,97,0,1154.69428091
GEMS224,2018_Apr_16_1543,George,EG,spatial_frequency,8,6,12,44-9;29-35;28-16;53-17,3,SimpleHill,28-16,67,17,selected,38-49,34-44;35-53;37-48;41-52;38-43;40-49,38-43,3.48,96,-1,1161.74224833
GEMS224,2018_Apr_16_1543,George,EG,spatial_frequency,8,6,12,44-9;29-35;28-16;53-17,3,SimpleHill,28-16,67,18,selected,38-43,38-38;41-41;37-41;35-48;41-40;33-48,37-41,3.97,95,-1,1169.28565283
GEMS224,2018_Apr_16_1543,George,EG,spatial_frequency,8,6,12,44-9;29-35;28-16;53-17,3,SimpleHill,28-16,67,19,selected,37-41,43-42;30-44;40-38;43-38;31-41;37-42,43-38,1.88,96,1,1174.72404853
GEMS224,2018_Apr_16_1543,George,EG,spatial_frequency,8,6,12,44-9;29-35;28-16;53-17,3,SimpleHill,28-16,67,20,selected,43-38,44-32;47-32;44-37;43-32;43-45;44-43,44-37,3.68,95,-1,1181.97185141
GEMS224,2018_Apr_16_1543,George,EG,spatial_frequency,8,6,12,44-9;29-35;28-16;53-17,3,SimpleHill,28-16,67,21,selected,44-37,43-43;48-32;42-37;39-33;49-35;46-35,49-35,6.43,95,0,1191.95172562
GEMS224,2018_Apr_16_1543,George,EG,spatial_frequency,8,6,12,44-9;29-35;28-16;53-17,3,SimpleHill,28-16,67,22,selected,49-35,55-30;55-34;47-37;49-43;49-38;46-35,49-38,1.62,97,2,1197.15764796
GEMS224,2018_Apr_16_1543,George,EG,spatial_frequency,8,6,12,44-9;29-35;28-16;53-17,3,SimpleHill,28-16,67,23,selected,49-38,46-32;49-34;48-39;49-39;42-37;44-35,49-39,2.27,97,0,1203.00048078
GEMS224,2018_Apr_16_1543,George,EG,spatial_frequency,8,6,12,44-9;29-35;28-16;53-17,3,SimpleHill,28-16,67,24,selected,49-39,48-36;55-35;50-46;47-44;44-43;52-35,50-46,7.5,99,2,1214.07053615
GEMS224,2018_Apr_16_1543,George,EG,spatial_frequency,8,6,12,44-9;29-35;28-16;53-17,3,SimpleHill,28-16,67,25,selected,50-46,55-44;51-47;54-44;49-40;48-45;45-49,54-44,8.06,98,-1,1225.69618354
GEMS224,2018_Apr_16_1543,George,EG,spatial_frequency,8,6,12,44-9;29-35;28-16;53-17,3,SimpleHill,28-16,67,26,selected,54-44,55-46;51-41;54-46;58-39;50-38;54-42,55-46,5.38,99,1,1234.63407125
GEMS224,2018_Apr_16_1543,George,EG,spatial_frequency,8,6,12,44-9;29-35;28-16;53-17,3,SimpleHill,28-16,67,27,selected,55-46,53-47;58-43;54-53;60-42;50-46;61-43,53-47,17.23,99,0,1255.43094491
GEMS224,2018_Apr_16_1543,George,EG,spatial_frequency,8,6,12,44-9;29-35;28-16;53-17,3,SimpleHill,28-16,67,28,selected,53-47,52-54;55-46;49-43;47-42;52-53;54-53,54-53,4.43,99,0,1263.43311898
GEMS224,2018_Apr_16_1543,George,EG,spatial_frequency,8,6,12,44-9;29-35;28-16;53-17,3,SimpleHill,28-16,67,29,selected,54-53,53-50;58-47;47-50;53-51;53-49;55-56,55-56,2.9,98,-1,1269.88915752
GEMS224,2018_Apr_16_1543,George,EG,spatial_frequency,8,6,12,44-9;29-35;28-16;53-17,3,SimpleHill,28-16,67,30,selected,55-56,62-58;58-52;60-61;54-50;55-64;57-56,55-64,5.41,95,-3,1278.86426971
GEMS224,2018_Apr_16_1543,George,EG,spatial_frequency,8,6,12,44-9;29-35;28-16;53-17,3,SimpleHill,28-16,67,31,selected,55-64,60-64;55-62;62-67;51-65;57-63;57-70,62-67,4.83,91,-4,1287.26478026
GEMS224,2018_Apr_16_1543,George,EG,spatial_frequency,8,6,12,44-9;29-35;28-16;53-17,3,SimpleHill,28-16,67,32,selected,62-67,56-68;69-69;66-63;62-60;62-61;57-66,56-68,2.41,92,1,1293.23410998
GEMS224,2018_Apr_16_1543,George,EG,spatial_frequency,8,6,12,44-9;29-35;28-16;53-17,3,SimpleHill,28-16,67,33,selected,56-68,58-68;61-64;59-62;56-64;58-62;64-68,58-68,1.31,92,0,1298.11244999
GEMS224,2018_Apr_16_1543,George,EG,spatial_frequency,8,6,12,44-9;29-35;28-16;53-17,3,SimpleHill,28-16,67,34,selected,58-68,59-62;58-64;58-69;57-63;56-64;51-67,56-64,1.34,95,3,1303.02137192
GEMS224,2018_Apr_16_1543,George,EG,spatial_frequency,8,6,12,44-9;29-35;28-16;53-17,3,SimpleHill,28-16,67,35,selected,56-64,54-68;56-56;62-61;62-69;61-69;54-67,54-68,1.87,93,-2,1308.46142121
GEMS224,2018_Apr_16_1543,George,EG,spatial_frequency,8,6,12,44-9;29-35;28-16;53-17,3,SimpleHill,28-16,67,36,selected,54-68,52-64;60-68;49-68;59-63;55-70;53-65,59-63,6.55,95,2,1318.5687654
GEMS224,2018_Apr_16_1543,George,EG,spatial_frequency,8,6,12,44-9;29-35;28-16;53-17,3,SimpleHill,28-16,67,37,selected,59-63,60-67;64-62;57-57;63-58;60-62;52-62,52-62,8.04,97,2,1330.17426299
GEMS224,2018_Apr_16_1543,George,EG,spatial_frequency,8,6,12,44-9;29-35;28-16;53-17,3,SimpleHill,28-16,67,38,selected,52-62,49-57;52-70;54-59;50-67;57-66;47-58,49-57,2.69,99,2,1336.42215422
GEMS224,2018_Apr_16_1543,George,EG,spatial_frequency,8,6,12,44-9;29-35;28-16;53-17,3,SimpleHill,28-16,67,39,selected,49-57,49-53;54-52;48-60;48-62;52-55;55-61,48-62,2.49,97,-2,1342.49136199
GEMS224,2018_Apr_16_1543,George,EG,spatial_frequency,8,6,12,44-9;29-35;28-16;53-17,4,SimpleHill,53-17,78,0,selected,53-17,55-24;54-17;55-19;52-20;56-15;53-22,52-20,4.29,81,3,1357.03220479
GEMS224,2018_Apr_16_1543,George,EG,spatial_frequency,8,6,12,44-9;29-35;28-16;53-17,4,SimpleHill,53-17,78,1,selected,52-20,53-20;50-13;55-17;50-25;51-22;52-17,50-25,2.04,87,6,1362.63769982
GEMS224,2018_Apr_16_1543,George,EG,spatial_frequency,8,6,12,44-9;29-35;28-16;53-17,4,SimpleHill,53-17,78,2,selected,50-25,50-25;57-28;55-25;49-28;51-26;56-30,56-30,1.81,91,4,1368.00220287
GEMS224,2018_Apr_16_1543,George,EG,spatial_frequency,8,6,12,44-9;29-35;28-16;53-17,4,SimpleHill,53-17,78,3,selected,56-30,49-27;62-33;62-34;57-30;56-32;50-30,62-33,1.57,91,0,1373.13631254
GEMS224,2018_Apr_16_1543,George,EG,spatial_frequency,8,6,12,44-9;29-35;28-16;53-17,4,SimpleHill,53-17,78,4,selected,62-33,57-28;62-29;58-30;63-34;65-28;66-28,57-28,1.61,89,-2,1378.32060081
GEMS224,2018_Apr_16_1543,George,EG,spatial_frequency,8,6,12,44-9;29-35;28-16;53-17,4,SimpleHill,53-17,78,5,selected,57-28,56-33;53-22;50-26;60-24;57-21;62-29,60-24,2.37,84,-5,1384.26161487
GEMS224,2018_Apr_16_1543,George,EG,spatial_frequency,8,6,12,44-9;29-35;28-16;53-17,4,SimpleHill,53-17,78,6,selected,60-24,66-19;57-17;62-22;67-26;66-24;60-24,66-19,2.74,75,-9,1390.5876963
GEMS224,2018_Apr_16_1543,George,EG,spatial_frequency,8,6,12,44-9;29-35;28-16;53-17,4,SimpleHill,53-17,78,7,selected,66-19,61-20;68-26;63-12;69-23;63-19;67-13,63-19,1.97,77,2,1396.13838193
GEMS224,2018_Apr_16_1543,George,EG,spatial_frequency,8,6,12,44-9;29-35;28-16;53-17,4,SimpleHill,53-17,78,8,selected,63-19,61-18;67-25;58-13;63-23;69-16;68-21,63-23,3.34,82,5,1403.04530905
GEMS224,2018_Apr_16_1543,George,EG,spatial_frequency,8,6,12,44-9;29-35;28-16;53-17,4,SimpleHill,53-17,78,9,selected,63-23,60-26;63-25;58-18;68-27;64-23;69-21,60-26,2.71,86,4,1409.33167824
GEMS224,2018_Apr_16_1543,George,EG,spatial_frequency,8,6,12,44-9;29-35;28-16;53-17,4,SimpleHill,53-17,78,10,selected,60-26,64-30;63-24;61-19;63-23;58-23;58-22,64-30,3.02,88,2,1415.91248103
GEMS224,2018_Apr_16_1543,George,EG,spatial_frequency,8,6,12,44-9;29-35;28-16;53-17,4,SimpleHill,53-17,78,11,selected,64-30,70-29;63-29;67-24;66-26;64-30;67-27,64-30,2.69,88,0,1422.17114913
GEMS224,2018_Apr_16_1543,George,EG,spatial_frequency,8,6,12,44-9;29-35;28-16;53-17,4,SimpleHill,53-17,78,12,selected,64-30,63-28;65-33;62-34;57-33;58-25;65-31,63-28,2.43,86,-2,1428.17181076
GEMS224,2018_Apr_16_1543,George,EG,spatial_frequency,8,6,12,44-9;29-35;28-16;53-17,4,SimpleHill,53-17,78,13,selected,63-28,63-22;62-21;59-32;58-29;67-25;56-29,67-25,3.02,81,-5,1434.7667421
GEMS224,2018_Apr_16_1543,George,EG,spatial_frequency,8,6,12,44-9;29-35;28-16;53-17,4,SimpleHill,53-17,78,14,selected,67-25,66-31;61-29;62-30;65-31;64-24;60-28,60-28,1.48,88,7,1439.81571589
GEMS224,2018_Apr_16_1543,George,EG,spatial_frequency,8,6,12,44-9;29-35;28-16;53-17,4,SimpleHill,53-17,78,15,selected,60-28,64-22;61-28;64-29;61-34;55-32;58-21,55-32,1.14,93,5,1444.53208924
GEMS224,2018_Apr_16_1543,George,EG,spatial_frequency,8,6,12,44-9;29-35;28-16;53-17,4,SimpleHill,53-17,78,16,selected,55-32,52-29;56-32;60-30;61-32;59-35;49-33,52-29,5.55,91,-2,1453.63683365
GEMS224,2018_Apr_16_1543,George,EG,spatial_frequency,8,6,12,44-9;29-35;28-16;53-17,4,SimpleHill,53-17,78,17,selected,52-29,51-34;45-31;47-27;55-23;55-34;50-28,50-28,2.8,90,-1,1460.01104254
GEMS224,2018_Apr_16_1543,George,EG,spatial_frequency,8,6,12,44-9;29-35;28-16;53-17,4,SimpleHill,53-17,78,18,selected,50-28,53-23;49-29;56-32;53-30;56-33;46-33,53-23,1.76,85,-5,1465.33111392
GEMS224,2018_Apr_16_1543,George,EG,spatial_frequency,8,6,12,44-9;29-35;28-16;53-17,4,SimpleHill,53-17,78,19,selected,53-23,48-24;57-17;53-25;50-27;50-26;59-24,50-27,3.54,89,4,1472.44295989
GEMS224,2018_Apr_16_1543,George,EG,spatial_frequency,8,6,12,44-9;29-35;28-16;53-17,4,SimpleHill,53-17,78,20,selected,50-27,46-33;49-33;55-28;52-27;47-32;45-23,47-32,1.63,93,4,1477.62968567
GEMS224,2018_Apr_16_1543,George,EG,spatial_frequency,8,6,12,44-9;29-35;28-16;53-17,4,SimpleHill,53-17,78,21,selected,47-32,46-31;54-30;46-25;43-26;42-37;40-32,46-31,2.22,92,-1,1483.41458852
GEMS224,2018_Apr_16_1543,George,EG,spatial_frequency,8,6,12,44-9;29-35;28-16;53-17,4,SimpleHill,53-17,78,22,selected,46-31,51-30;53-31;48-27;41-32;49-31;52-33,49-31,5.45,92,0,1492.41754137
GEMS224,2018_Apr_16_1543,George,EG,spatial_frequency,8,6,12,44-9;29-35;28-16;53-17,4,SimpleHill,53-17,78,23,selected,49-31,46-32;48-32;47-37;46-31;49-33;52-30,47-37,8.3,96,4,1504.27891521
GEMS224,2018_Apr_16_1543,George,EG,spatial_frequency,8,6,12,44-9;29-35;28-16;53-17,4,SimpleHill,53-17,78,24,selected,47-37,48-32;50-41;50-37;51-39;41-32;43-42,51-39,4.58,97,1,1512.42205083
GEMS224,2018_Apr_16_1543,George,EG,spatial_frequency,8,6,12,44-9;29-35;28-16;53-17,4,SimpleHill,53-17,78,25,selected,51-39,48-35;53-32;55-45;47-42;55-39;51-38,47-42,3.92,98,1,1519.9060443
GEMS224,2018_Apr_16_1543,George,EG,spatial_frequency,8,6,12,44-9;29-35;28-16;53-17,4,SimpleHill,53-17,78,26,selected,47-42,51-38;51-46;43-37;52-44;52-46;46-44,43-37,9.26,95,-3,1532.73552671
GEMS224,2018_Apr_16_1543,George,EG,spatial_frequency,8,6,12,44-9;29-35;28-16;53-17,4,SimpleHill,53-17,78,27,selected,43-37,47-33;49-32;42-43;43-30;43-29;40-38,47-33,2.11,94,-1,1538.42542652
GEMS224,2018_Apr_16_1543,George,EG,spatial_frequency,8,6,12,44-9;29-35;28-16;53-17,4,SimpleHill,53-17,78,28,selected,47-33,40-30;53-31;44-33;44-38;45-39;51-35,44-38,2.24,96,2,1544.21756058
GEMS224,2018_Apr_16_1543,George,EG,spatial_frequency,8,6,12,44-9;29-35;28-16;53-17,4,SimpleHill,53-17,78,29,selected,44-38,47-44;40-35;48-44;46-44;48-39;41-33,47-44,4.35,99,3,1552.14303351
GEMS224,2018_Apr_16_1543,George,EG,spatial_frequency,8,6,12,44-9;29-35;28-16;53-17,4,SimpleHill,53-17,78,30,selected,47-44,42-39;45-40;54-47;50-42;43-42;54-43,54-47,13.58,99,0,1569.28344835
GEMS224,2018_Apr_16_1543,George,EG,spatial_frequency,8,6,12,44-9;29-35;28-16;53-17,4,SimpleHill,53-17,78,31,selected,54-47,49-42;55-40;52-46;55-54;60-52;53-51,55-54,3.31,99,0,1576.14896962
GEMS224,2018_Apr_16_1543,George,EG,spatial_frequency,8,6,12,44-9;29-35;28-16;53-17,4,SimpleHill,53-17,78,32,selected,55-54,54-58;56-59;54-56;48-54;54-61;62-54,54-61,2.23,97,-2,1581.94529977
GEMS224,2018_Apr_16_1543,George,EG,spatial_frequency,8,6,12,44-9;29-35;28-16;53-17,4,SimpleHill,53-17,78,33,selected,54-61,52-60;52-62;60-61;56-59;51-54;57-54,56-59,1.13,97,0,1586.63379661
GEMS224,2018_Apr_16_1543,George,EG,spatial_frequency,8,6,12,44-9;29-35;28-16;53-17,4,SimpleHill,53-17,78,34,selected,56-59,62-55;53-54;55-56;55-59;56-59;51-55,51-55,5.56,99,2,1595.7416011
GEMS224,2018_Apr_16_1543,George,EG,spatial_frequency,8,6,12,44-9;29-35;28-16;53-17,4,SimpleHill,53-17,78,35,selected,51-55,43-55;48-50;51-61;51-56;47-50;47-53,47-50,1.01,99,0,1600.31365161
GEMS224,2018_Apr_16_1543,George,EG,spatial_frequency,8,6,12,44-9;29-35;28-16;53-17,4,SimpleHill,53-17,78,36,selected,47-50,43-51;42-50;42-45;49-57;52-54;41-47,42-45,1.26,98,-1,1605.13927915
GEMS224,2018_Apr_16_1543,George,EG,spatial_frequency,8,6,12,44-9;29-35;28-16;53-17,4,SimpleHill,53-17,78,37,selected,42-45,42-47;44-52;41-44;34-45;38-39;46-47,34-45,1.95,94,-4,1610.65328191
GEMS224,2018_Apr_16_1543,George,EG,spatial_frequency,8,6,12,44-9;29-35;28-16;53-17,4,SimpleHill,53-17,78,38,selected,34-45,33-45;41-42;30-46;39-43;40-49;34-50,34-50,2.16,94,0,1616.38583656
GEMS224,2018_Apr_16_1543,George,EG,spatial_frequency,8,6,12,44-9;29-35;28-16;53-17,4,SimpleHill,53-17,78,39,selected,34-50,29-50;29-52;29-45;33-43;38-45;33-47,38-45,4.0,96,2,1623.95529112
