subj_id,date,computer,experimenter,instructions,sight_radius,n_gabors,landscape_ix,landscape_name,starting_pos,starting_score,trial,feedback,pos,stims,selected,rt,score,delta,exp_time
GEMS111,2018_Feb_27_1426,Kramer,GH,orientation,8,6,0,OrientationBias,0-0,0,0,training,0-0,1-2;7-0;7-2;2-2;3-4;4-5,2-2,7.75,7,7,123.551043919
GEMS111,2018_Feb_27_1426,Kramer,GH,orientation,8,6,0,OrientationBias,0-0,0,1,training,2-2,6-6;2-4;0-1;3-6;4-1;4-2,4-2,2.89,15,8,132.590055869
GEMS111,2018_Feb_27_1426,Kramer,GH,orientation,8,6,0,OrientationBias,0-0,0,2,training,4-2,4-7;7-9;5-3;3-4;7-4;2-8,7-4,2.09,26,11,143.678377475
GEMS111,2018_Feb_27_1426,Kramer,GH,orientation,8,6,0,OrientationBias,0-0,0,3,training,7-4,3-10;0-4;0-1;5-8;8-6;8-11,8-11,2.55,29,3,151.478518252
GEMS111,2018_Feb_27_1426,Kramer,GH,orientation,8,6,0,OrientationBias,0-0,0,4,training,8-11,14-15;7-8;3-17;4-17;7-17;4-11,4-17,1.14,15,-14,157.525078631
GEMS111,2018_Feb_27_1426,Kramer,GH,orientation,8,6,0,OrientationBias,0-0,0,5,training,4-17,4-9;0-23;11-16;10-17;2-11;4-15,0-23,1.35,0,-15,163.428724616
GEMS111,2018_Feb_27_1426,Kramer,GH,orientation,8,6,0,OrientationBias,0-0,0,6,training,0-23,1-30;6-24;1-16;6-27;7-24;4-22,1-16,2.59,3,3,172.567392338
GEMS111,2018_Feb_27_1426,Kramer,GH,orientation,8,6,0,OrientationBias,0-0,0,7,training,1-16,1-17;1-14;0-18;7-12;1-12;8-13,1-14,1.02,3,0,182.84185207
GEMS111,2018_Feb_27_1426,Kramer,GH,orientation,8,6,0,OrientationBias,0-0,0,8,training,1-14,5-17;0-19;4-15;6-18;5-13;3-8,3-8,1.89,11,8,190.516187733
GEMS111,2018_Feb_27_1426,Kramer,GH,orientation,8,6,0,OrientationBias,0-0,0,9,training,3-8,9-13;3-2;1-7;6-13;2-5;0-6,9-13,0.8,32,21,197.606117486
GEMS111,2018_Feb_27_1426,Kramer,GH,orientation,8,6,0,OrientationBias,0-0,0,10,training,9-13,12-18;3-11;12-17;4-7;4-12;7-11,12-17,1.13,42,10,201.378938022
GEMS111,2018_Feb_27_1426,Kramer,GH,orientation,8,6,0,OrientationBias,0-0,0,11,training,12-17,9-21;14-15;10-24;18-19;14-21;11-11,14-15,0.79,48,6,206.669849883
GEMS111,2018_Feb_27_1426,Kramer,GH,orientation,8,6,0,OrientationBias,0-0,0,12,training,14-15,21-16;16-8;16-18;10-9;12-21;16-11,12-21,0.63,42,-6,213.822557516
GEMS111,2018_Feb_27_1426,Kramer,GH,orientation,8,6,0,OrientationBias,0-0,0,13,training,12-21,9-26;8-15;10-16;15-15;11-25;15-14,10-16,2.7,36,-6,220.262736333
GEMS111,2018_Feb_27_1426,Kramer,GH,orientation,8,6,0,OrientationBias,0-0,0,14,training,10-16,10-9;13-13;8-17;3-18;3-13;10-18,3-13,0.65,11,-25,224.368838134
GEMS111,2018_Feb_27_1426,Kramer,GH,orientation,8,6,0,OrientationBias,0-0,0,15,training,3-13,9-12;2-17;3-11;10-13;9-14;3-9,9-12,0.36,32,21,228.420584656
GEMS111,2018_Feb_27_1426,Kramer,GH,orientation,8,6,0,OrientationBias,0-0,0,16,training,9-12,7-14;3-16;3-14;5-15;14-10;1-12,14-10,1.11,48,16,232.845791452
GEMS111,2018_Feb_27_1426,Kramer,GH,orientation,8,6,0,OrientationBias,0-0,0,17,training,14-10,9-11;14-6;12-11;19-6;19-14;18-4,12-11,0.9,42,-6,236.951208574
GEMS111,2018_Feb_27_1426,Kramer,GH,orientation,8,6,0,OrientationBias,0-0,0,18,training,12-11,12-4;14-18;18-16;13-18;15-4;7-15,12-4,1.03,42,0,241.659862667
GEMS111,2018_Feb_27_1426,Kramer,GH,orientation,8,6,0,OrientationBias,0-0,0,19,training,12-4,8-10;10-6;14-8;18-0;16-10;9-11,10-6,1.08,36,-6,246.003778696
GEMS111,2018_Feb_27_1426,Kramer,GH,orientation,8,6,1,SimpleHill,0-0,0,0,selected,0-0,0-8;6-4;7-2;2-6;1-7;2-1,2-6,1.09,15,15,275.621754339
GEMS111,2018_Feb_27_1426,Kramer,GH,orientation,8,6,1,SimpleHill,0-0,0,1,selected,2-6,6-0;1-5;9-8;5-0;5-13;3-8,6-0,0.84,11,-4,280.027895447
GEMS111,2018_Feb_27_1426,Kramer,GH,orientation,8,6,1,SimpleHill,0-0,0,2,selected,6-0,7-4;4-7;13-2;5-1;13-0;3-3,4-7,0.38,20,9,283.980337019
GEMS111,2018_Feb_27_1426,Kramer,GH,orientation,8,6,1,SimpleHill,0-0,0,3,selected,4-7,11-4;4-5;1-1;9-4;11-8;6-2,11-8,0.43,34,14,287.979937223
GEMS111,2018_Feb_27_1426,Kramer,GH,orientation,8,6,1,SimpleHill,0-0,0,4,selected,11-8,11-13;5-9;18-10;9-1;16-4;10-10,18-10,0.46,47,13,292.024272317
GEMS111,2018_Feb_27_1426,Kramer,GH,orientation,8,6,1,SimpleHill,0-0,0,5,selected,18-10,17-6;15-11;19-14;17-11;15-17;21-5,21-5,0.4,42,-5,296.002676616
GEMS111,2018_Feb_27_1426,Kramer,GH,orientation,8,6,1,SimpleHill,0-0,0,6,selected,21-5,22-3;22-11;27-10;25-10;21-11;25-5,25-10,0.22,55,13,299.779339546
GEMS111,2018_Feb_27_1426,Kramer,GH,orientation,8,6,1,SimpleHill,0-0,0,7,selected,25-10,26-11;21-15;28-9;23-13;24-4;30-5,21-15,0.86,58,3,304.198406002
GEMS111,2018_Feb_27_1426,Kramer,GH,orientation,8,6,1,SimpleHill,0-0,0,8,selected,21-15,26-13;14-12;28-14;15-16;24-9;18-22,26-13,0.44,61,3,308.190390878
GEMS111,2018_Feb_27_1426,Kramer,GH,orientation,8,6,1,SimpleHill,0-0,0,9,selected,26-13,21-18;21-19;32-8;24-7;32-16;30-10,32-16,0.38,70,9,312.128352732
GEMS111,2018_Feb_27_1426,Kramer,GH,orientation,8,6,1,SimpleHill,0-0,0,10,selected,32-16,34-15;30-22;39-19;26-14;37-15;37-11,39-19,0.46,78,8,316.147585508
GEMS111,2018_Feb_27_1426,Kramer,GH,orientation,8,6,1,SimpleHill,0-0,0,11,selected,39-19,42-25;35-18;40-23;36-20;42-19;34-17,36-20,0.43,78,0,320.143527051
GEMS111,2018_Feb_27_1426,Kramer,GH,orientation,8,6,1,SimpleHill,0-0,0,12,selected,36-20,35-24;41-15;31-26;39-26;32-17;31-22,41-15,0.5,73,-5,324.231958449
GEMS111,2018_Feb_27_1426,Kramer,GH,orientation,8,6,1,SimpleHill,0-0,0,13,selected,41-15,34-12;40-22;43-10;40-9;40-8;39-11,39-11,0.4,67,-6,328.204451915
GEMS111,2018_Feb_27_1426,Kramer,GH,orientation,8,6,1,SimpleHill,0-0,0,14,selected,39-11,38-14;34-11;43-15;43-7;37-11;35-17,37-11,0.36,66,-1,332.136812785
GEMS111,2018_Feb_27_1426,Kramer,GH,orientation,8,6,1,SimpleHill,0-0,0,15,selected,37-11,37-10;42-15;35-5;43-11;42-11;42-6,35-5,0.43,55,-11,336.12896763
GEMS111,2018_Feb_27_1426,Kramer,GH,orientation,8,6,1,SimpleHill,0-0,0,16,selected,35-5,36-7;34-9;28-4;42-3;38-1;34-2,42-3,0.43,54,-1,340.12672474
GEMS111,2018_Feb_27_1426,Kramer,GH,orientation,8,6,1,SimpleHill,0-0,0,17,selected,42-3,45-6;46-3;49-3;44-6;40-4;43-9,40-4,0.38,55,1,344.072824633
GEMS111,2018_Feb_27_1426,Kramer,GH,orientation,8,6,1,SimpleHill,0-0,0,18,selected,40-4,37-6;38-5;39-1;46-8;42-11;43-7,38-5,0.38,56,1,348.017577576
GEMS111,2018_Feb_27_1426,Kramer,GH,orientation,8,6,1,SimpleHill,0-0,0,19,selected,38-5,40-0;39-11;38-4;41-1;38-1;41-2,41-2,0.68,52,-4,352.27107603
GEMS111,2018_Feb_27_1426,Kramer,GH,orientation,8,6,1,SimpleHill,0-0,0,20,selected,41-2,47-3;38-4;40-2;40-1;48-3;38-1,40-2,1.04,51,-1,356.877991187
GEMS111,2018_Feb_27_1426,Kramer,GH,orientation,8,6,1,SimpleHill,0-0,0,21,selected,40-2,47-4;41-4;37-0;37-1;38-6;32-2,47-4,0.31,57,6,360.754874213
GEMS111,2018_Feb_27_1426,Kramer,GH,orientation,8,6,1,SimpleHill,0-0,0,22,selected,47-4,51-1;40-4;46-2;43-7;45-9;44-6,43-7,0.36,62,5,364.682441693
GEMS111,2018_Feb_27_1426,Kramer,GH,orientation,8,6,1,SimpleHill,0-0,0,23,selected,43-7,41-14;44-11;41-11;50-7;38-8;46-13,38-8,0.4,61,-1,368.642159295
GEMS111,2018_Feb_27_1426,Kramer,GH,orientation,8,6,1,SimpleHill,0-0,0,24,selected,38-8,34-8;40-8;38-15;44-8;33-5;39-8,40-8,0.38,62,1,372.601202141
GEMS111,2018_Feb_27_1426,Kramer,GH,orientation,8,6,1,SimpleHill,0-0,0,25,selected,40-8,45-13;38-5;41-12;44-3;47-7;45-8,44-3,1.31,55,-7,377.49155019
GEMS111,2018_Feb_27_1426,Kramer,GH,orientation,8,6,1,SimpleHill,0-0,0,26,selected,44-3,39-1;49-1;37-6;37-3;39-7;42-5,42-5,0.55,58,3,381.616553151
GEMS111,2018_Feb_27_1426,Kramer,GH,orientation,8,6,1,SimpleHill,0-0,0,27,selected,42-5,39-12;45-11;41-9;37-3;41-3;38-1,41-9,1.51,64,6,386.706404801
GEMS111,2018_Feb_27_1426,Kramer,GH,orientation,8,6,1,SimpleHill,0-0,0,28,selected,41-9,36-12;45-6;34-12;45-11;39-3;44-4,36-12,0.38,67,3,390.653407036
GEMS111,2018_Feb_27_1426,Kramer,GH,orientation,8,6,1,SimpleHill,0-0,0,29,selected,36-12,32-16;43-15;42-17;37-16;37-12;31-6,37-12,0.3,67,0,394.511790618
GEMS111,2018_Feb_27_1426,Kramer,GH,orientation,8,6,1,SimpleHill,0-0,0,30,selected,37-12,33-17;42-8;43-8;31-17;42-10;42-17,31-17,0.41,71,4,398.500355623
GEMS111,2018_Feb_27_1426,Kramer,GH,orientation,8,6,1,SimpleHill,0-0,0,31,selected,31-17,26-12;33-11;29-15;34-15;27-23;30-23,33-11,0.59,63,-8,402.668409465
GEMS111,2018_Feb_27_1426,Kramer,GH,orientation,8,6,1,SimpleHill,0-0,0,32,selected,33-11,30-6;37-14;28-13;35-10;33-14;27-14,27-14,0.68,63,0,406.924211307
GEMS111,2018_Feb_27_1426,Kramer,GH,orientation,8,6,1,SimpleHill,0-0,0,33,selected,27-14,23-11;24-17;25-19;25-10;26-16;23-17,25-10,0.82,55,-8,411.313166953
GEMS111,2018_Feb_27_1426,Kramer,GH,orientation,8,6,1,SimpleHill,0-0,0,34,selected,25-10,26-11;27-10;20-11;21-5;18-13;18-9,20-11,0.62,51,-4,415.496766743
GEMS111,2018_Feb_27_1426,Kramer,GH,orientation,8,6,1,SimpleHill,0-0,0,35,selected,20-11,21-4;23-6;18-10;26-16;20-10;16-17,21-4,0.91,40,-11,419.966155948
GEMS111,2018_Feb_27_1426,Kramer,GH,orientation,8,6,1,SimpleHill,0-0,0,36,selected,21-4,18-8;15-5;21-10;24-5;27-6;15-7,27-6,1.27,50,10,424.814025762
GEMS111,2018_Feb_27_1426,Kramer,GH,orientation,8,6,1,SimpleHill,0-0,0,37,selected,27-6,29-11;29-5;25-8;27-11;23-0;22-10,29-5,1.26,50,0,429.643769682
GEMS111,2018_Feb_27_1426,Kramer,GH,orientation,8,6,1,SimpleHill,0-0,0,38,selected,29-5,31-2;36-3;30-5;30-4;23-3;28-5,30-5,0.46,51,1,433.680520497
GEMS111,2018_Feb_27_1426,Kramer,GH,orientation,8,6,1,SimpleHill,0-0,0,39,selected,30-5,34-11;35-4;32-5;33-3;22-5;25-8,25-8,0.36,52,1,437.628423473
GEMS111,2018_Feb_27_1426,Kramer,GH,orientation,8,6,2,SimpleHill,0-0,0,0,selected,0-0,3-2;1-3;1-2;2-1;0-2;5-4,1-2,0.88,5,5,450.8877617
GEMS111,2018_Feb_27_1426,Kramer,GH,orientation,8,6,2,SimpleHill,0-0,0,1,selected,1-2,8-0;4-3;7-2;1-0;2-9;4-8,4-8,0.38,22,17,454.823755943
GEMS111,2018_Feb_27_1426,Kramer,GH,orientation,8,6,2,SimpleHill,0-0,0,2,selected,4-8,5-11;3-11;0-6;7-12;1-3;3-3,7-12,0.54,34,12,458.904780074
GEMS111,2018_Feb_27_1426,Kramer,GH,orientation,8,6,2,SimpleHill,0-0,0,3,selected,7-12,10-15;4-14;6-14;6-8;10-18;13-10,4-14,0.42,31,-3,462.9059068
GEMS111,2018_Feb_27_1426,Kramer,GH,orientation,8,6,2,SimpleHill,0-0,0,4,selected,4-14,4-10;4-17;2-21;7-15;4-19;6-21,4-10,1.04,25,-6,467.501389203
GEMS111,2018_Feb_27_1426,Kramer,GH,orientation,8,6,2,SimpleHill,0-0,0,5,selected,4-10,10-13;6-4;4-14;1-14;10-9;3-9,10-9,1.27,34,9,472.354763013
GEMS111,2018_Feb_27_1426,Kramer,GH,orientation,8,6,2,SimpleHill,0-0,0,6,selected,10-9,14-10;11-14;9-7;8-4;5-4;8-11,9-7,1.27,29,-5,477.185846521
GEMS111,2018_Feb_27_1426,Kramer,GH,orientation,8,6,2,SimpleHill,0-0,0,7,selected,9-7,7-7;11-2;11-13;5-9;14-7;2-8,11-13,1.49,42,13,482.249559712
GEMS111,2018_Feb_27_1426,Kramer,GH,orientation,8,6,2,SimpleHill,0-0,0,8,selected,11-13,11-15;15-15;7-12;17-13;15-18;15-17,15-17,1.88,53,11,487.688076287
GEMS111,2018_Feb_27_1426,Kramer,GH,orientation,8,6,2,SimpleHill,0-0,0,9,selected,15-17,17-10;21-21;20-12;15-25;10-11;12-22,15-25,1.38,63,10,492.633164367
GEMS111,2018_Feb_27_1426,Kramer,GH,orientation,8,6,2,SimpleHill,0-0,0,10,selected,15-25,18-27;14-22;19-20;16-22;18-23;21-22,14-22,0.89,58,-5,497.062247807
GEMS111,2018_Feb_27_1426,Kramer,GH,orientation,8,6,2,SimpleHill,0-0,0,11,selected,14-22,8-18;19-22;8-23;13-20;9-22;17-28,9-22,0.63,50,-8,501.247352993
GEMS111,2018_Feb_27_1426,Kramer,GH,orientation,8,6,2,SimpleHill,0-0,0,12,selected,9-22,10-19;6-22;11-26;8-29;3-24;9-28,10-19,2.45,48,-2,507.276153022
GEMS111,2018_Feb_27_1426,Kramer,GH,orientation,8,6,2,SimpleHill,0-0,0,13,selected,10-19,7-17;7-21;7-18;14-20;7-26;2-19,2-19,0.53,34,-14,511.380316981
GEMS111,2018_Feb_27_1426,Kramer,GH,orientation,8,6,2,SimpleHill,0-0,0,14,selected,2-19,8-22;0-13;7-19;3-18;1-18;0-22,7-19,0.46,43,9,515.400192184
GEMS111,2018_Feb_27_1426,Kramer,GH,orientation,8,6,2,SimpleHill,0-0,0,15,selected,7-19,7-23;13-21;7-13;10-23;8-25;4-19,10-23,0.72,53,10,519.694625066
GEMS111,2018_Feb_27_1426,Kramer,GH,orientation,8,6,2,SimpleHill,0-0,0,16,selected,10-23,11-18;13-19;7-30;11-17;10-24;16-25,10-24,1.09,54,1,524.35064918
GEMS111,2018_Feb_27_1426,Kramer,GH,orientation,8,6,2,SimpleHill,0-0,0,17,selected,10-24,5-28;8-27;6-22;10-25;5-29;7-24,6-22,0.7,45,-9,528.619633724
GEMS111,2018_Feb_27_1426,Kramer,GH,orientation,8,6,2,SimpleHill,0-0,0,18,selected,6-22,4-26;10-18;1-24;8-19;8-20;1-20,4-26,0.77,46,1,532.956294209
GEMS111,2018_Feb_27_1426,Kramer,GH,orientation,8,6,2,SimpleHill,0-0,0,19,selected,4-26,10-26;6-26;6-23;4-28;1-28;2-23,6-23,0.99,46,0,537.513086674
GEMS111,2018_Feb_27_1426,Kramer,GH,orientation,8,6,2,SimpleHill,0-0,0,20,selected,6-23,1-29;12-26;10-17;1-25;4-18;6-30,1-29,1.07,43,-3,542.167641563
GEMS111,2018_Feb_27_1426,Kramer,GH,orientation,8,6,2,SimpleHill,0-0,0,21,selected,1-29,2-22;3-26;2-32;6-34;0-28;4-31,6-34,0.55,56,13,546.286747774
GEMS111,2018_Feb_27_1426,Kramer,GH,orientation,8,6,2,SimpleHill,0-0,0,22,selected,6-34,10-29;6-30;9-38;12-29;2-37;0-29,0-29,0.47,41,-15,550.337906286
GEMS111,2018_Feb_27_1426,Kramer,GH,orientation,8,6,2,SimpleHill,0-0,0,23,selected,0-29,1-27;0-26;3-27;1-31;1-26;0-37,3-27,0.84,45,4,554.733646939
GEMS111,2018_Feb_27_1426,Kramer,GH,orientation,8,6,2,SimpleHill,0-0,0,24,selected,3-27,1-20;4-33;4-31;5-24;7-33;1-21,1-20,0.42,33,-12,558.737171801
GEMS111,2018_Feb_27_1426,Kramer,GH,orientation,8,6,2,SimpleHill,0-0,0,25,selected,1-20,7-17;4-13;3-25;5-22;0-15;7-16,0-15,0.27,25,-8,562.569834967
GEMS111,2018_Feb_27_1426,Kramer,GH,orientation,8,6,2,SimpleHill,0-0,0,26,selected,0-15,5-16;6-20;0-21;4-15;3-17;1-13,4-15,0.52,33,8,566.653108069
GEMS111,2018_Feb_27_1426,Kramer,GH,orientation,8,6,2,SimpleHill,0-0,0,27,selected,4-15,7-21;7-16;6-20;9-19;6-14;2-22,7-16,0.64,39,6,570.848052267
GEMS111,2018_Feb_27_1426,Kramer,GH,orientation,8,6,2,SimpleHill,0-0,0,28,selected,7-16,1-11;11-19;2-13;12-10;6-15;7-19,7-19,0.43,43,4,574.817218368
GEMS111,2018_Feb_27_1426,Kramer,GH,orientation,8,6,2,SimpleHill,0-0,0,29,selected,7-19,7-26;5-24;14-19;1-22;0-16;10-13,14-19,1.04,54,11,579.410946982
GEMS111,2018_Feb_27_1426,Kramer,GH,orientation,8,6,2,SimpleHill,0-0,0,30,selected,14-19,12-17;13-15;13-22;12-13;17-24;18-24,17-24,0.7,64,10,583.670264723
GEMS111,2018_Feb_27_1426,Kramer,GH,orientation,8,6,2,SimpleHill,0-0,0,31,selected,17-24,16-17;22-22;11-29;10-23;13-21;15-25,22-22,1.01,68,4,588.243978574
GEMS111,2018_Feb_27_1426,Kramer,GH,orientation,8,6,2,SimpleHill,0-0,0,32,selected,22-22,24-25;19-24;16-26;21-18;20-17;28-27,16-26,0.84,65,-3,592.647989465
GEMS111,2018_Feb_27_1426,Kramer,GH,orientation,8,6,2,SimpleHill,0-0,0,33,selected,16-26,21-29;19-24;10-23;18-28;14-21;11-31,11-31,1.18,62,-3,597.392638314
GEMS111,2018_Feb_27_1426,Kramer,GH,orientation,8,6,2,SimpleHill,0-0,0,34,selected,11-31,9-34;13-28;6-29;17-32;16-26;12-32,9-34,0.74,61,-1,601.71733565
GEMS111,2018_Feb_27_1426,Kramer,GH,orientation,8,6,2,SimpleHill,0-0,0,35,selected,9-34,14-34;13-35;4-33;6-32;12-29;6-38,13-35,0.66,68,7,605.932973528
GEMS111,2018_Feb_27_1426,Kramer,GH,orientation,8,6,2,SimpleHill,0-0,0,36,selected,13-35,8-33;10-34;9-39;16-35;10-35;10-29,10-35,0.39,63,-5,609.902065047
GEMS111,2018_Feb_27_1426,Kramer,GH,orientation,8,6,2,SimpleHill,0-0,0,37,selected,10-35,10-32;15-34;9-39;18-35;9-36;10-39,9-39,1.07,63,0,614.53756161
GEMS111,2018_Feb_27_1426,Kramer,GH,orientation,8,6,2,SimpleHill,0-0,0,38,selected,9-39,14-35;3-44;8-43;6-39;12-45;11-35,11-35,0.4,65,2,618.494552661
GEMS111,2018_Feb_27_1426,Kramer,GH,orientation,8,6,2,SimpleHill,0-0,0,39,selected,11-35,12-37;10-32;17-35;17-36;11-42;14-29,12-37,0.47,67,2,622.550348037
GEMS111,2018_Feb_27_1426,Kramer,GH,orientation,8,6,3,SimpleHill,0-0,0,0,selected,0-0,0-2;3-6;0-5;5-6;0-8;3-1,0-2,2.42,3,3,635.182066865
GEMS111,2018_Feb_27_1426,Kramer,GH,orientation,8,6,3,SimpleHill,0-0,0,1,selected,0-2,7-0;1-5;5-0;6-2;0-7;4-7,6-2,0.66,15,12,639.416445216
GEMS111,2018_Feb_27_1426,Kramer,GH,orientation,8,6,3,SimpleHill,0-0,0,2,selected,6-2,6-8;3-8;7-7;3-2;3-4;13-4,13-4,1.5,30,15,644.481006013
GEMS111,2018_Feb_27_1426,Kramer,GH,orientation,8,6,3,SimpleHill,0-0,0,3,selected,13-4,14-10;8-5;16-6;16-9;14-2;6-2,14-2,2.87,28,-2,650.921711383
GEMS111,2018_Feb_27_1426,Kramer,GH,orientation,8,6,3,SimpleHill,0-0,0,4,selected,14-2,10-8;17-5;13-6;12-6;13-7;11-2,13-6,1.0,33,5,655.492532875
GEMS111,2018_Feb_27_1426,Kramer,GH,orientation,8,6,3,SimpleHill,0-0,0,5,selected,13-6,17-7;13-2;18-6;9-9;15-0;16-1,17-7,1.5,41,8,660.554460269
GEMS111,2018_Feb_27_1426,Kramer,GH,orientation,8,6,3,SimpleHill,0-0,0,6,selected,17-7,18-6;12-5;19-3;13-10;21-6;17-15,19-3,1.3,36,-5,665.417991904
GEMS111,2018_Feb_27_1426,Kramer,GH,orientation,8,6,3,SimpleHill,0-0,0,7,selected,19-3,22-8;16-6;15-7;16-5;13-1;12-0,12-0,0.32,21,-15,669.303273525
GEMS111,2018_Feb_27_1426,Kramer,GH,orientation,8,6,3,SimpleHill,0-0,0,8,selected,12-0,5-2;9-7;10-5;12-4;11-3;17-3,9-7,1.54,29,8,674.39411042
GEMS111,2018_Feb_27_1426,Kramer,GH,orientation,8,6,3,SimpleHill,0-0,0,9,selected,9-7,14-10;4-6;13-11;6-1;7-8;7-5,13-11,1.58,42,13,679.529775032
GEMS111,2018_Feb_27_1426,Kramer,GH,orientation,8,6,3,SimpleHill,0-0,0,10,selected,13-11,14-8;13-7;20-12;16-13;8-12;16-12,8-12,1.48,35,-7,684.574282976
GEMS111,2018_Feb_27_1426,Kramer,GH,orientation,8,6,3,SimpleHill,0-0,0,11,selected,8-12,15-12;14-7;12-11;2-16;15-14;13-11,13-11,0.65,42,7,688.786165205
GEMS111,2018_Feb_27_1426,Kramer,GH,orientation,8,6,3,SimpleHill,0-0,0,12,selected,13-11,17-11;16-4;19-7;16-8;15-15;12-15,15-15,1.73,51,9,694.068843639
GEMS111,2018_Feb_27_1426,Kramer,GH,orientation,8,6,3,SimpleHill,0-0,0,13,selected,15-15,12-15;9-12;15-7;14-8;18-11;14-10,12-15,0.83,46,-5,698.447613932
GEMS111,2018_Feb_27_1426,Kramer,GH,orientation,8,6,3,SimpleHill,0-0,0,14,selected,12-15,13-9;13-17;13-10;14-15;13-20;12-16,13-20,0.68,54,8,702.670664519
GEMS111,2018_Feb_27_1426,Kramer,GH,orientation,8,6,3,SimpleHill,0-0,0,15,selected,13-20,10-17;12-14;7-21;13-20;12-13;8-21,7-21,1.16,46,-8,707.387775784
GEMS111,2018_Feb_27_1426,Kramer,GH,orientation,8,6,3,SimpleHill,0-0,0,16,selected,7-21,1-19;8-23;12-16;8-24;12-22;7-18,7-18,0.75,42,-4,711.68708624
GEMS111,2018_Feb_27_1426,Kramer,GH,orientation,8,6,3,SimpleHill,0-0,0,17,selected,7-18,2-23;9-11;0-19;7-21;6-17;8-13,7-21,0.34,46,4,715.600383343
GEMS111,2018_Feb_27_1426,Kramer,GH,orientation,8,6,3,SimpleHill,0-0,0,18,selected,7-21,2-17;4-22;7-25;2-20;7-17;8-27,4-22,0.73,42,-4,719.896943562
GEMS111,2018_Feb_27_1426,Kramer,GH,orientation,8,6,3,SimpleHill,0-0,0,19,selected,4-22,4-27;8-16;11-19;5-20;9-27;1-18,9-27,2.08,55,13,725.551318878
GEMS111,2018_Feb_27_1426,Kramer,GH,orientation,8,6,3,SimpleHill,0-0,0,20,selected,9-27,6-32;14-22;13-27;14-27;13-31;6-31,6-32,1.25,54,-1,730.359080425
GEMS111,2018_Feb_27_1426,Kramer,GH,orientation,8,6,3,SimpleHill,0-0,0,21,selected,6-32,12-29;12-30;1-34;8-26;9-27;7-25,8-26,1.25,53,-1,735.184392019
GEMS111,2018_Feb_27_1426,Kramer,GH,orientation,8,6,3,SimpleHill,0-0,0,22,selected,8-26,4-26;2-28;6-21;10-24;7-28;4-22,6-21,0.42,44,-9,739.178412045
GEMS111,2018_Feb_27_1426,Kramer,GH,orientation,8,6,3,SimpleHill,0-0,0,23,selected,6-21,10-21;10-27;12-16;3-18;9-14;11-25,9-14,0.26,40,-4,743.001093117
GEMS111,2018_Feb_27_1426,Kramer,GH,orientation,8,6,3,SimpleHill,0-0,0,24,selected,9-14,16-12;3-10;7-16;10-8;6-10;3-15,7-16,1.35,39,-1,747.934986271
GEMS111,2018_Feb_27_1426,Kramer,GH,orientation,8,6,3,SimpleHill,0-0,0,25,selected,7-16,0-19;8-12;14-16;6-11;14-17;5-12,0-19,1.23,30,-9,752.720849629
GEMS111,2018_Feb_27_1426,Kramer,GH,orientation,8,6,3,SimpleHill,0-0,0,26,selected,0-19,0-26;3-18;7-16;1-15;3-20;0-25,1-15,1.2,27,-3,757.491840194
GEMS111,2018_Feb_27_1426,Kramer,GH,orientation,8,6,3,SimpleHill,0-0,0,27,selected,1-15,1-21;0-12;5-9;0-9;6-12;3-12,6-12,2.06,32,5,763.12913856
GEMS111,2018_Feb_27_1426,Kramer,GH,orientation,8,6,3,SimpleHill,0-0,0,28,selected,6-12,6-12;3-13;3-19;9-7;11-9;11-7,11-9,1.36,35,3,768.050558658
GEMS111,2018_Feb_27_1426,Kramer,GH,orientation,8,6,3,SimpleHill,0-0,0,29,selected,11-9,6-13;18-12;4-7;14-13;16-13;16-7,16-13,1.97,49,14,773.593278563
GEMS111,2018_Feb_27_1426,Kramer,GH,orientation,8,6,3,SimpleHill,0-0,0,30,selected,16-13,19-9;20-16;14-11;19-13;19-10;10-15,19-10,1.53,48,-1,778.689268953
GEMS111,2018_Feb_27_1426,Kramer,GH,orientation,8,6,3,SimpleHill,0-0,0,31,selected,19-10,21-15;23-10;23-16;20-7;16-13;25-9,20-7,2.39,45,-3,784.664937419
GEMS111,2018_Feb_27_1426,Kramer,GH,orientation,8,6,3,SimpleHill,0-0,0,32,selected,20-7,14-9;14-3;18-2;16-8;22-5;12-7,22-5,3.56,43,-2,791.790577364
GEMS111,2018_Feb_27_1426,Kramer,GH,orientation,8,6,3,SimpleHill,0-0,0,33,selected,22-5,14-5;22-3;28-0;17-0;26-5;20-0,28-0,0.96,40,-3,796.30998043
GEMS111,2018_Feb_27_1426,Kramer,GH,orientation,8,6,3,SimpleHill,0-0,0,34,selected,28-0,24-6;25-0;31-5;26-6;27-4;24-3,27-4,2.36,47,7,802.219690893
GEMS111,2018_Feb_27_1426,Kramer,GH,orientation,8,6,3,SimpleHill,0-0,0,35,selected,27-4,27-4;26-3;23-2;28-9;25-3;27-10,28-9,1.54,56,9,807.335853211
GEMS111,2018_Feb_27_1426,Kramer,GH,orientation,8,6,3,SimpleHill,0-0,0,36,selected,28-9,26-2;33-4;22-12;30-5;32-7;28-6,30-5,1.81,51,-5,812.709286916
GEMS111,2018_Feb_27_1426,Kramer,GH,orientation,8,6,3,SimpleHill,0-0,0,37,selected,30-5,35-6;27-0;23-7;27-8;34-4;32-5,27-0,1.62,39,-12,817.896033218
GEMS111,2018_Feb_27_1426,Kramer,GH,orientation,8,6,3,SimpleHill,0-0,0,38,selected,27-0,23-1;30-3;23-6;22-1;28-7;30-1,22-1,1.44,36,-3,822.912887384
GEMS111,2018_Feb_27_1426,Kramer,GH,orientation,8,6,3,SimpleHill,0-0,0,39,selected,22-1,19-7;24-5;20-7;24-3;21-3;28-5,21-3,0.91,39,3,827.413737231
GEMS111,2018_Feb_27_1426,Kramer,GH,orientation,8,6,4,SimpleHill,0-0,0,0,selected,0-0,5-4;1-0;6-3;0-3;3-0;3-1,3-1,2.48,7,7,841.092428397
GEMS111,2018_Feb_27_1426,Kramer,GH,orientation,8,6,4,SimpleHill,0-0,0,1,selected,3-1,0-1;9-4;3-6;0-3;1-7;9-3,9-3,1.86,22,15,846.514526772
GEMS111,2018_Feb_27_1426,Kramer,GH,orientation,8,6,4,SimpleHill,0-0,0,2,selected,9-3,16-3;8-7;14-4;3-3;4-0;10-10,4-0,1.43,7,-15,851.525479707
GEMS111,2018_Feb_27_1426,Kramer,GH,orientation,8,6,4,SimpleHill,0-0,0,3,selected,4-0,1-0;7-2;6-2;5-5;7-0;7-6,1-0,1.58,1,-6,856.681511824
GEMS111,2018_Feb_27_1426,Kramer,GH,orientation,8,6,4,SimpleHill,0-0,0,4,selected,1-0,4-7;1-2;7-5;4-1;1-3;6-3,6-3,1.19,17,16,861.443043647
GEMS111,2018_Feb_27_1426,Kramer,GH,orientation,8,6,4,SimpleHill,0-0,0,5,selected,6-3,6-1;14-3;3-6;1-7;7-8;5-9,5-9,0.33,25,8,865.352583501
GEMS111,2018_Feb_27_1426,Kramer,GH,orientation,8,6,4,SimpleHill,0-0,0,6,selected,5-9,3-3;7-12;0-5;6-12;5-2;11-4,7-12,1.51,34,9,870.426809501
GEMS111,2018_Feb_27_1426,Kramer,GH,orientation,8,6,4,SimpleHill,0-0,0,7,selected,7-12,13-15;12-17;7-4;6-18;7-13;3-13,12-17,1.41,49,15,875.402830068
GEMS111,2018_Feb_27_1426,Kramer,GH,orientation,8,6,4,SimpleHill,0-0,0,8,selected,12-17,8-14;8-20;8-13;6-13;13-14;10-18,8-14,1.45,38,-11,880.4290143
GEMS111,2018_Feb_27_1426,Kramer,GH,orientation,8,6,4,SimpleHill,0-0,0,9,selected,8-14,10-18;4-15;6-10;5-21;10-15;9-10,10-15,1.62,43,5,885.599611599
GEMS111,2018_Feb_27_1426,Kramer,GH,orientation,8,6,4,SimpleHill,0-0,0,10,selected,10-15,8-8;10-16;3-17;10-21;16-18;12-11,10-21,0.82,51,8,889.975697914
GEMS111,2018_Feb_27_1426,Kramer,GH,orientation,8,6,4,SimpleHill,0-0,0,11,selected,10-21,10-29;14-27;4-17;17-21;13-24;8-23,14-27,1.89,63,12,895.431444124
GEMS111,2018_Feb_27_1426,Kramer,GH,orientation,8,6,4,SimpleHill,0-0,0,12,selected,14-27,20-26;19-33;12-24;12-31;17-21;17-30,20-26,1.71,70,7,900.705405791
GEMS111,2018_Feb_27_1426,Kramer,GH,orientation,8,6,4,SimpleHill,0-0,0,13,selected,20-26,14-27;18-19;15-29;16-31;22-26;16-25,16-25,1.81,64,-6,906.091337521
GEMS111,2018_Feb_27_1426,Kramer,GH,orientation,8,6,4,SimpleHill,0-0,0,14,selected,16-25,14-32;14-18;15-29;14-19;18-19;18-21,14-18,2.31,53,-11,911.962215926
GEMS111,2018_Feb_27_1426,Kramer,GH,orientation,8,6,4,SimpleHill,0-0,0,15,selected,14-18,18-23;14-18;20-23;14-13;12-11;11-14,11-14,1.17,43,-10,916.701201052
GEMS111,2018_Feb_27_1426,Kramer,GH,orientation,8,6,4,SimpleHill,0-0,0,16,selected,11-14,13-15;9-17;9-10;14-15;9-19;6-10,9-10,0.88,34,-9,921.138118123
GEMS111,2018_Feb_27_1426,Kramer,GH,orientation,8,6,4,SimpleHill,0-0,0,17,selected,9-10,14-10;4-9;9-14;9-13;11-12;5-10,9-13,0.88,39,5,925.582595786
GEMS111,2018_Feb_27_1426,Kramer,GH,orientation,8,6,4,SimpleHill,0-0,0,18,selected,9-13,7-7;9-18;5-18;13-15;3-18;12-16,3-18,1.88,35,-4,931.046713703
GEMS111,2018_Feb_27_1426,Kramer,GH,orientation,8,6,4,SimpleHill,0-0,0,19,selected,3-18,6-14;0-24;1-13;6-12;3-24;3-14,0-24,1.06,36,1,935.66390736
GEMS111,2018_Feb_27_1426,Kramer,GH,orientation,8,6,4,SimpleHill,0-0,0,20,selected,0-24,5-25;7-24;2-30;5-28;1-27;2-31,5-25,1.78,47,11,941.01407416
GEMS111,2018_Feb_27_1426,Kramer,GH,orientation,8,6,4,SimpleHill,0-0,0,21,selected,5-25,8-25;4-22;8-22;4-27;1-23;11-22,4-27,1.5,47,0,946.077588895
GEMS111,2018_Feb_27_1426,Kramer,GH,orientation,8,6,4,SimpleHill,0-0,0,22,selected,4-27,1-25;4-20;9-25;9-29;9-30;5-27,1-25,1.24,39,-8,950.877778646
GEMS111,2018_Feb_27_1426,Kramer,GH,orientation,8,6,4,SimpleHill,0-0,0,23,selected,1-25,3-23;4-30;0-29;1-30;0-21;0-19,0-19,1.31,30,-9,955.759309099
GEMS111,2018_Feb_27_1426,Kramer,GH,orientation,8,6,4,SimpleHill,0-0,0,24,selected,0-19,4-21;1-19;1-25;1-22;0-23;7-22,4-21,2.11,40,10,961.450471081
GEMS111,2018_Feb_27_1426,Kramer,GH,orientation,8,6,4,SimpleHill,0-0,0,25,selected,4-21,7-21;4-22;0-22;5-28;2-26;11-24,5-28,1.16,49,9,966.17108288
GEMS111,2018_Feb_27_1426,Kramer,GH,orientation,8,6,4,SimpleHill,0-0,0,26,selected,5-28,2-35;3-25;8-22;5-22;12-27;0-23,12-27,3.04,60,11,972.755411329
GEMS111,2018_Feb_27_1426,Kramer,GH,orientation,8,6,4,SimpleHill,0-0,0,27,selected,12-27,13-32;15-32;11-20;18-22;17-21;18-28,13-32,2.52,66,6,978.851596655
GEMS111,2018_Feb_27_1426,Kramer,GH,orientation,8,6,4,SimpleHill,0-0,0,28,selected,13-32,15-37;20-30;19-36;18-26;12-31;17-35,18-26,3.14,68,2,985.559674261
GEMS111,2018_Feb_27_1426,Kramer,GH,orientation,8,6,4,SimpleHill,0-0,0,29,selected,18-26,21-26;18-30;22-24;23-26;21-25;14-31,18-30,1.01,71,3,990.127157826
GEMS111,2018_Feb_27_1426,Kramer,GH,orientation,8,6,4,SimpleHill,0-0,0,30,selected,18-30,16-23;11-33;15-24;19-36;18-30;23-33,18-30,1.18,71,0,994.890607965
GEMS111,2018_Feb_27_1426,Kramer,GH,orientation,8,6,4,SimpleHill,0-0,0,31,selected,18-30,13-28;16-32;11-29;15-30;25-29;21-25,13-28,0.93,62,-9,999.375053375
GEMS111,2018_Feb_27_1426,Kramer,GH,orientation,8,6,4,SimpleHill,0-0,0,32,selected,13-28,17-23;15-28;12-27;8-24;9-31;12-28,12-27,1.32,60,-2,1004.27027708
GEMS111,2018_Feb_27_1426,Kramer,GH,orientation,8,6,4,SimpleHill,0-0,0,33,selected,12-27,14-21;10-25;14-22;8-23;17-28;14-23,14-23,0.43,59,-1,1008.26932736
GEMS111,2018_Feb_27_1426,Kramer,GH,orientation,8,6,4,SimpleHill,0-0,0,34,selected,14-23,19-28;10-23;15-24;16-16;14-26;14-16,14-26,0.89,62,3,1012.70166967
GEMS111,2018_Feb_27_1426,Kramer,GH,orientation,8,6,4,SimpleHill,0-0,0,35,selected,14-26,14-33;17-23;17-22;13-29;18-21;19-30,13-29,1.05,63,1,1017.31008126
GEMS111,2018_Feb_27_1426,Kramer,GH,orientation,8,6,4,SimpleHill,0-0,0,36,selected,13-29,20-32;14-23;11-25;15-22;10-23;6-29,11-25,2.78,57,-6,1023.66831504
GEMS111,2018_Feb_27_1426,Kramer,GH,orientation,8,6,4,SimpleHill,0-0,0,37,selected,11-25,5-24;9-23;17-25;6-28;13-28;11-21,13-28,1.43,62,5,1028.64346655
GEMS111,2018_Feb_27_1426,Kramer,GH,orientation,8,6,4,SimpleHill,0-0,0,38,selected,13-28,19-33;18-32;17-34;13-24;18-30;11-23,18-30,2.14,71,9,1034.34402486
GEMS111,2018_Feb_27_1426,Kramer,GH,orientation,8,6,4,SimpleHill,0-0,0,39,selected,18-30,24-35;20-29;18-22;24-32;19-35;17-32,20-29,2.07,73,2,1039.97917412
