subj_id,date,computer,experimenter,instructions,sight_radius,n_gabors,start_pos_list_ix,start_pos_list,landscape_ix,landscape_name,starting_pos,starting_score,trial,feedback,pos,stims,selected,rt,score,delta,exp_time
GEMS217,2018_Mar_23_1057,Jerry,SF,orientation,8,6,9,13-9;3-9;17-12;2-25,0,OrientationBias,0-0,0,0,training,0-0,3-0;6-2;2-1;2-6;0-1;0-3,3-0,6.07,11,11,175.992844008
GEMS217,2018_Mar_23_1057,Jerry,SF,orientation,8,6,9,13-9;3-9;17-12;2-25,0,OrientationBias,0-0,0,1,training,3-0,6-3;8-1;10-1;3-6;9-1;0-2,6-3,7.51,22,11,190.350603935
GEMS217,2018_Mar_23_1057,Jerry,SF,orientation,8,6,9,13-9;3-9;17-12;2-25,0,OrientationBias,0-0,0,2,training,6-3,1-1;4-4;3-7;6-1;7-10;8-1,3-7,2.4,11,-11,208.935769559
GEMS217,2018_Mar_23_1057,Jerry,SF,orientation,8,6,9,13-9;3-9;17-12;2-25,0,OrientationBias,0-0,0,3,training,3-7,7-11;8-11;2-12;1-5;10-6;0-4,0-4,10.42,0,-11,234.801940402
GEMS217,2018_Mar_23_1057,Jerry,SF,orientation,8,6,9,13-9;3-9;17-12;2-25,0,OrientationBias,0-0,0,4,training,0-4,8-4;3-4;3-2;4-9;6-9;0-10,8-4,3.12,29,29,243.167453294
GEMS217,2018_Mar_23_1057,Jerry,SF,orientation,8,6,9,13-9;3-9;17-12;2-25,0,OrientationBias,0-0,0,5,training,8-4,5-5;10-9;16-4;12-3;10-5;4-7,10-9,2.74,36,7,251.021703245
GEMS217,2018_Mar_23_1057,Jerry,SF,orientation,8,6,9,13-9;3-9;17-12;2-25,0,OrientationBias,0-0,0,6,training,10-9,11-11;11-10;15-4;14-10;8-5;13-5,13-5,3.69,45,9,262.962372463
GEMS217,2018_Mar_23_1057,Jerry,SF,orientation,8,6,9,13-9;3-9;17-12;2-25,0,OrientationBias,0-0,0,7,training,13-5,13-9;17-4;12-11;7-1;13-8;17-0,17-4,4.36,56,11,271.380008931
GEMS217,2018_Mar_23_1057,Jerry,SF,orientation,8,6,9,13-9;3-9;17-12;2-25,0,OrientationBias,0-0,0,8,training,17-4,23-7;17-3;19-2;17-10;11-0;14-0,23-7,2.61,70,14,277.070913016
GEMS217,2018_Mar_23_1057,Jerry,SF,orientation,8,6,9,13-9;3-9;17-12;2-25,0,OrientationBias,0-0,0,9,training,23-7,26-13;20-2;20-8;21-10;27-13;23-3,26-13,0.83,76,6,280.79475208
GEMS217,2018_Mar_23_1057,Jerry,SF,orientation,8,6,9,13-9;3-9;17-12;2-25,0,OrientationBias,0-0,0,10,training,26-13,23-7;23-17;24-20;27-20;22-8;27-9,27-9,10.69,78,2,295.160993504
GEMS217,2018_Mar_23_1057,Jerry,SF,orientation,8,6,9,13-9;3-9;17-12;2-25,0,OrientationBias,0-0,0,11,training,27-9,32-13;32-14;32-4;28-3;29-3;26-8,32-13,1.36,87,9,300.457477125
GEMS217,2018_Mar_23_1057,Jerry,SF,orientation,8,6,9,13-9;3-9;17-12;2-25,0,OrientationBias,0-0,0,12,training,32-13,39-13;32-8;30-15;31-13;32-16;30-18,39-13,1.83,95,8,306.560009219
GEMS217,2018_Mar_23_1057,Jerry,SF,orientation,8,6,9,13-9;3-9;17-12;2-25,0,OrientationBias,0-0,0,13,training,39-13,32-14;40-8;40-6;39-8;36-12;36-20,32-14,1.7,87,-8,311.200187894
GEMS217,2018_Mar_23_1057,Jerry,SF,orientation,8,6,9,13-9;3-9;17-12;2-25,0,OrientationBias,0-0,0,14,training,32-14,36-12;26-12;36-10;33-10;29-12;25-16,25-16,4.11,75,-12,323.077506286
GEMS217,2018_Mar_23_1057,Jerry,SF,orientation,8,6,9,13-9;3-9;17-12;2-25,0,OrientationBias,0-0,0,15,training,25-16,23-12;20-18;27-22;32-13;27-18;28-11,28-11,3.13,80,5,330.922469067
GEMS217,2018_Mar_23_1057,Jerry,SF,orientation,8,6,9,13-9;3-9;17-12;2-25,0,OrientationBias,0-0,0,16,training,28-11,23-10;35-14;21-8;25-9;26-5;35-10,35-10,1.74,91,11,336.176558331
GEMS217,2018_Mar_23_1057,Jerry,SF,orientation,8,6,9,13-9;3-9;17-12;2-25,0,OrientationBias,0-0,0,17,training,35-10,38-15;35-16;29-14;30-11;41-11;38-4,38-4,7.11,94,3,345.859569571
GEMS217,2018_Mar_23_1057,Jerry,SF,orientation,8,6,9,13-9;3-9;17-12;2-25,0,OrientationBias,0-0,0,18,training,38-4,39-5;40-10;41-5;45-4;35-7;36-3,45-4,8.49,99,5,359.547297697
GEMS217,2018_Mar_23_1057,Jerry,SF,orientation,8,6,9,13-9;3-9;17-12;2-25,0,OrientationBias,0-0,0,19,training,45-4,49-4;52-5;43-0;39-5;49-10;41-4,49-4,3.71,99,0,365.867191619
GEMS217,2018_Mar_23_1057,Jerry,SF,orientation,8,6,9,13-9;3-9;17-12;2-25,0,OrientationBias,0-0,0,20,training,49-4,56-4;44-2;51-4;46-5;50-10;48-9,56-4,5.46,98,-1,374.061479564
GEMS217,2018_Mar_23_1057,Jerry,SF,orientation,8,6,9,13-9;3-9;17-12;2-25,0,OrientationBias,0-0,0,21,training,56-4,64-4;53-0;52-10;57-7;58-5;54-5,64-4,13.66,92,-6,392.578796739
GEMS217,2018_Mar_23_1057,Jerry,SF,orientation,8,6,9,13-9;3-9;17-12;2-25,0,OrientationBias,0-0,0,22,training,64-4,59-8;57-6;61-8;56-4;67-9;65-5,57-6,3.72,98,6,401.754940551
GEMS217,2018_Mar_23_1057,Jerry,SF,orientation,8,6,9,13-9;3-9;17-12;2-25,0,OrientationBias,0-0,0,23,training,57-6,58-8;55-13;49-6;54-10;53-2;59-0,55-13,5.8,99,1,411.436079249
GEMS217,2018_Mar_23_1057,Jerry,SF,orientation,8,6,9,13-9;3-9;17-12;2-25,0,OrientationBias,0-0,0,24,training,55-13,53-16;49-13;62-10;53-15;58-14;55-18,49-13,2.21,99,0,416.240186038
GEMS217,2018_Mar_23_1057,Jerry,SF,orientation,8,6,9,13-9;3-9;17-12;2-25,0,OrientationBias,0-0,0,25,training,49-13,52-20;50-16;43-15;52-18;42-14;53-7,50-16,3.8,100,1,424.170256026
GEMS217,2018_Mar_23_1057,Jerry,SF,orientation,8,6,9,13-9;3-9;17-12;2-25,0,OrientationBias,0-0,0,26,training,50-16,48-14;47-11;49-20;48-17;53-17;53-14,47-11,5.16,99,-1,431.870470648
GEMS217,2018_Mar_23_1057,Jerry,SF,orientation,8,6,9,13-9;3-9;17-12;2-25,0,OrientationBias,0-0,0,27,training,47-11,52-10;52-6;51-13;43-14;42-14;52-12,52-6,1.37,99,0,437.247802964
GEMS217,2018_Mar_23_1057,Jerry,SF,orientation,8,6,9,13-9;3-9;17-12;2-25,0,OrientationBias,0-0,0,28,training,52-6,51-1;51-8;52-10;58-3;50-0;55-2,51-8,1.05,99,0,441.661095773
GEMS217,2018_Mar_23_1057,Jerry,SF,orientation,8,6,9,13-9;3-9;17-12;2-25,0,OrientationBias,0-0,0,29,training,51-8,48-8;46-2;54-5;58-9;49-7;53-13,53-13,1.61,99,0,447.349604605
GEMS217,2018_Mar_23_1057,Jerry,SF,orientation,8,6,9,13-9;3-9;17-12;2-25,1,SimpleHill,13-9,39,0,selected,13-9,10-16;13-17;17-3;7-7;15-7;19-14,19-14,4.06,54,15,471.322855099
GEMS217,2018_Mar_23_1057,Jerry,SF,orientation,8,6,9,13-9;3-9;17-12;2-25,1,SimpleHill,13-9,39,1,selected,19-14,16-13;23-14;24-18;17-9;15-17;24-19,24-19,1.96,67,13,476.803458922
GEMS217,2018_Mar_23_1057,Jerry,SF,orientation,8,6,9,13-9;3-9;17-12;2-25,1,SimpleHill,13-9,39,2,selected,24-19,25-19;21-26;19-16;17-18;21-14;23-12,21-14,5.52,57,-10,485.867826683
GEMS217,2018_Mar_23_1057,Jerry,SF,orientation,8,6,9,13-9;3-9;17-12;2-25,1,SimpleHill,13-9,39,3,selected,21-14,21-12;21-6;21-17;16-13;14-11;23-14,23-14,4.2,59,2,493.612103665
GEMS217,2018_Mar_23_1057,Jerry,SF,orientation,8,6,9,13-9;3-9;17-12;2-25,1,SimpleHill,13-9,39,4,selected,23-14,18-11;29-14;23-19;23-14;28-12;24-11,29-14,2.44,65,6,499.596191857
GEMS217,2018_Mar_23_1057,Jerry,SF,orientation,8,6,9,13-9;3-9;17-12;2-25,1,SimpleHill,13-9,39,5,selected,29-14,34-14;27-12;32-15;34-19;34-15;25-13,34-14,4.29,68,3,507.434735499
GEMS217,2018_Mar_23_1057,Jerry,SF,orientation,8,6,9,13-9;3-9;17-12;2-25,1,SimpleHill,13-9,39,6,selected,34-14,31-11;32-14;29-9;34-16;32-12;36-15,36-15,6.84,71,3,517.833456409
GEMS217,2018_Mar_23_1057,Jerry,SF,orientation,8,6,9,13-9;3-9;17-12;2-25,1,SimpleHill,13-9,39,7,selected,36-15,36-11;38-16;41-15;42-15;33-14;35-16,35-16,1.95,72,1,523.331567702
GEMS217,2018_Mar_23_1057,Jerry,SF,orientation,8,6,9,13-9;3-9;17-12;2-25,1,SimpleHill,13-9,39,8,selected,35-16,41-17;35-22;34-13;32-9;38-20;33-17,41-17,2.12,76,4,529.003492531
GEMS217,2018_Mar_23_1057,Jerry,SF,orientation,8,6,9,13-9;3-9;17-12;2-25,1,SimpleHill,13-9,39,9,selected,41-17,45-20;45-13;47-21;48-14;48-19;44-17,45-20,4.49,81,5,537.050469656
GEMS217,2018_Mar_23_1057,Jerry,SF,orientation,8,6,9,13-9;3-9;17-12;2-25,1,SimpleHill,13-9,39,10,selected,45-20,46-16;50-14;40-15;51-22;43-21;51-18,50-14,2.5,74,-7,543.103731481
GEMS217,2018_Mar_23_1057,Jerry,SF,orientation,8,6,9,13-9;3-9;17-12;2-25,1,SimpleHill,13-9,39,11,selected,50-14,48-15;55-18;49-20;46-19;52-9;54-13,54-13,4.27,72,-2,550.91526154
GEMS217,2018_Mar_23_1057,Jerry,SF,orientation,8,6,9,13-9;3-9;17-12;2-25,1,SimpleHill,13-9,39,12,selected,54-13,51-8;54-17;53-12;57-13;57-14;53-8,54-17,3.98,77,5,558.462462249
GEMS217,2018_Mar_23_1057,Jerry,SF,orientation,8,6,9,13-9;3-9;17-12;2-25,1,SimpleHill,13-9,39,13,selected,54-17,56-10;50-15;58-13;53-24;55-16;61-19,56-10,6.28,67,-10,568.298561984
GEMS217,2018_Mar_23_1057,Jerry,SF,orientation,8,6,9,13-9;3-9;17-12;2-25,1,SimpleHill,13-9,39,14,selected,56-10,54-14;64-10;61-4;58-17;62-10;56-13,58-17,5.74,76,9,577.601839253
GEMS217,2018_Mar_23_1057,Jerry,SF,orientation,8,6,9,13-9;3-9;17-12;2-25,1,SimpleHill,13-9,39,15,selected,58-17,61-14;62-12;64-16;63-21;57-21;51-15,63-21,4.17,79,3,585.323633564
GEMS217,2018_Mar_23_1057,Jerry,SF,orientation,8,6,9,13-9;3-9;17-12;2-25,1,SimpleHill,13-9,39,16,selected,63-21,64-20;65-21;56-24;66-23;63-21;65-20,56-24,1.95,85,6,590.833283879
GEMS217,2018_Mar_23_1057,Jerry,SF,orientation,8,6,9,13-9;3-9;17-12;2-25,1,SimpleHill,13-9,39,17,selected,56-24,60-25;51-29;59-30;58-22;56-18;57-18,51-29,4.03,91,6,598.414858383
GEMS217,2018_Mar_23_1057,Jerry,SF,orientation,8,6,9,13-9;3-9;17-12;2-25,1,SimpleHill,13-9,39,18,selected,51-29,54-31;55-23;49-30;48-25;45-34;52-30,45-34,2.24,94,3,604.210473433
GEMS217,2018_Mar_23_1057,Jerry,SF,orientation,8,6,9,13-9;3-9;17-12;2-25,1,SimpleHill,13-9,39,19,selected,45-34,42-37;38-33;45-26;40-38;38-32;51-31,40-38,1.35,95,1,609.122297817
GEMS217,2018_Mar_23_1057,Jerry,SF,orientation,8,6,9,13-9;3-9;17-12;2-25,1,SimpleHill,13-9,39,20,selected,40-38,41-41;44-43;43-42;35-33;34-43;45-35,34-43,3.04,93,-2,615.689664047
GEMS217,2018_Mar_23_1057,Jerry,SF,orientation,8,6,9,13-9;3-9;17-12;2-25,1,SimpleHill,13-9,39,21,selected,34-43,36-46;30-48;36-45;29-44;39-44;34-37,36-45,1.54,95,2,620.782602642
GEMS217,2018_Mar_23_1057,Jerry,SF,orientation,8,6,9,13-9;3-9;17-12;2-25,1,SimpleHill,13-9,39,22,selected,36-45,44-45;32-48;32-40;33-42;32-50;38-40,38-40,2.71,95,0,627.051652719
GEMS217,2018_Mar_23_1057,Jerry,SF,orientation,8,6,9,13-9;3-9;17-12;2-25,1,SimpleHill,13-9,39,23,selected,38-40,44-44;35-47;37-34;31-41;38-36;36-41,44-44,5.75,98,3,636.348179233
GEMS217,2018_Mar_23_1057,Jerry,SF,orientation,8,6,9,13-9;3-9;17-12;2-25,1,SimpleHill,13-9,39,24,selected,44-44,37-41;47-45;43-45;44-39;46-47;44-47,46-47,1.33,99,1,641.234505673
GEMS217,2018_Mar_23_1057,Jerry,SF,orientation,8,6,9,13-9;3-9;17-12;2-25,1,SimpleHill,13-9,39,25,selected,46-47,46-50;47-52;43-41;49-48;51-47;45-51,49-48,3.49,99,0,648.283380947
GEMS217,2018_Mar_23_1057,Jerry,SF,orientation,8,6,9,13-9;3-9;17-12;2-25,1,SimpleHill,13-9,39,26,selected,49-48,50-50;48-48;43-50;53-47;44-51;55-49,50-50,2.9,100,1,654.732198925
GEMS217,2018_Mar_23_1057,Jerry,SF,orientation,8,6,9,13-9;3-9;17-12;2-25,1,SimpleHill,13-9,39,27,selected,50-50,53-51;53-50;43-52;49-51;48-52;56-47,53-50,0.98,99,-1,659.250065699
GEMS217,2018_Mar_23_1057,Jerry,SF,orientation,8,6,9,13-9;3-9;17-12;2-25,1,SimpleHill,13-9,39,28,selected,53-50,52-52;54-53;46-51;51-46;49-51;51-57,52-52,1.05,99,0,663.846345262
GEMS217,2018_Mar_23_1057,Jerry,SF,orientation,8,6,9,13-9;3-9;17-12;2-25,1,SimpleHill,13-9,39,29,selected,52-52,55-56;50-57;45-53;46-57;44-52;46-50,45-53,1.7,99,0,669.09872267
GEMS217,2018_Mar_23_1057,Jerry,SF,orientation,8,6,9,13-9;3-9;17-12;2-25,1,SimpleHill,13-9,39,30,selected,45-53,46-46;39-56;40-52;39-50;43-48;49-52,39-56,6.54,96,-3,679.205080191
GEMS217,2018_Mar_23_1057,Jerry,SF,orientation,8,6,9,13-9;3-9;17-12;2-25,1,SimpleHill,13-9,39,31,selected,39-56,39-51;38-62;40-51;36-61;41-50;38-57,38-57,3.15,96,0,685.919333119
GEMS217,2018_Mar_23_1057,Jerry,SF,orientation,8,6,9,13-9;3-9;17-12;2-25,1,SimpleHill,13-9,39,32,selected,38-57,35-52;39-57;37-63;45-56;35-54;40-58,45-56,7.73,98,2,697.201168338
GEMS217,2018_Mar_23_1057,Jerry,SF,orientation,8,6,9,13-9;3-9;17-12;2-25,1,SimpleHill,13-9,39,33,selected,45-56,44-56;45-54;40-51;45-60;52-57;42-56,45-60,1.81,97,-1,702.555963887
GEMS217,2018_Mar_23_1057,Jerry,SF,orientation,8,6,9,13-9;3-9;17-12;2-25,1,SimpleHill,13-9,39,34,selected,45-60,42-65;46-56;48-53;39-61;41-56;43-60,46-56,0.29,98,1,706.421671876
GEMS217,2018_Mar_23_1057,Jerry,SF,orientation,8,6,9,13-9;3-9;17-12;2-25,1,SimpleHill,13-9,39,35,selected,46-56,41-58;49-60;46-60;45-63;47-55;52-51,46-60,0.3,97,-1,710.35970449
GEMS217,2018_Mar_23_1057,Jerry,SF,orientation,8,6,9,13-9;3-9;17-12;2-25,1,SimpleHill,13-9,39,36,selected,46-60,42-54;54-60;39-61;51-63;43-60;42-58,42-58,0.96,97,0,714.864888552
GEMS217,2018_Mar_23_1057,Jerry,SF,orientation,8,6,9,13-9;3-9;17-12;2-25,1,SimpleHill,13-9,39,37,selected,42-58,36-55;45-61;39-58;37-56;49-57;48-59,49-57,2.09,99,2,720.498085045
GEMS217,2018_Mar_23_1057,Jerry,SF,orientation,8,6,9,13-9;3-9;17-12;2-25,1,SimpleHill,13-9,39,38,selected,49-57,52-51;50-63;49-58;47-53;48-62;54-56,52-51,1.28,99,0,725.340177555
GEMS217,2018_Mar_23_1057,Jerry,SF,orientation,8,6,9,13-9;3-9;17-12;2-25,1,SimpleHill,13-9,39,39,selected,52-51,57-50;50-47;53-58;49-44;57-47;52-52,57-47,1.75,98,-1,730.647036982
GEMS217,2018_Mar_23_1057,Jerry,SF,orientation,8,6,9,13-9;3-9;17-12;2-25,2,SimpleHill,3-9,22,0,selected,3-9,0-4;5-10;6-11;3-15;5-4;1-7,5-10,2.44,27,5,746.299752408
GEMS217,2018_Mar_23_1057,Jerry,SF,orientation,8,6,9,13-9;3-9;17-12;2-25,2,SimpleHill,3-9,22,1,selected,5-10,0-11;0-15;1-15;4-11;4-9;5-15,5-15,2.42,35,8,752.243125129
GEMS217,2018_Mar_23_1057,Jerry,SF,orientation,8,6,9,13-9;3-9;17-12;2-25,2,SimpleHill,3-9,22,2,selected,5-15,8-9;7-9;6-15;6-9;0-14;7-17,7-17,1.96,41,6,757.750215983
GEMS217,2018_Mar_23_1057,Jerry,SF,orientation,8,6,9,13-9;3-9;17-12;2-25,2,SimpleHill,3-9,22,3,selected,7-17,8-15;6-21;3-19;4-12;15-17;2-23,15-17,2.02,53,12,763.332094254
GEMS217,2018_Mar_23_1057,Jerry,SF,orientation,8,6,9,13-9;3-9;17-12;2-25,2,SimpleHill,3-9,22,4,selected,15-17,10-13;11-20;12-15;18-17;11-18;13-22,18-17,2.62,57,4,769.501990817
GEMS217,2018_Mar_23_1057,Jerry,SF,orientation,8,6,9,13-9;3-9;17-12;2-25,2,SimpleHill,3-9,22,5,selected,18-17,21-24;20-10;18-25;15-15;21-21;18-17,21-24,4.69,69,12,777.741215296
GEMS217,2018_Mar_23_1057,Jerry,SF,orientation,8,6,9,13-9;3-9;17-12;2-25,2,SimpleHill,3-9,22,6,selected,21-24,18-23;23-23;15-21;22-18;15-23;15-22,23-23,1.98,70,1,783.28097353
GEMS217,2018_Mar_23_1057,Jerry,SF,orientation,8,6,9,13-9;3-9;17-12;2-25,2,SimpleHill,3-9,22,7,selected,23-23,23-24;22-26;16-21;28-23;27-18;26-29,27-18,1.24,68,-2,788.06502043
GEMS217,2018_Mar_23_1057,Jerry,SF,orientation,8,6,9,13-9;3-9;17-12;2-25,2,SimpleHill,3-9,22,8,selected,27-18,35-18;20-16;28-14;32-19;32-18;30-14,20-16,2.27,58,-10,793.877099448
GEMS217,2018_Mar_23_1057,Jerry,SF,orientation,8,6,9,13-9;3-9;17-12;2-25,2,SimpleHill,3-9,22,9,selected,20-16,14-13;20-15;17-21;16-16;25-22;19-20,25-22,2.41,71,13,799.843284855
GEMS217,2018_Mar_23_1057,Jerry,SF,orientation,8,6,9,13-9;3-9;17-12;2-25,2,SimpleHill,3-9,22,10,selected,25-22,31-26;23-23;22-15;20-25;27-17;31-23,27-17,1.7,67,-4,805.098064239
GEMS217,2018_Mar_23_1057,Jerry,SF,orientation,8,6,9,13-9;3-9;17-12;2-25,2,SimpleHill,3-9,22,11,selected,27-17,31-19;22-22;32-14;28-16;34-15;31-18,32-14,2.05,67,0,810.698423063
GEMS217,2018_Mar_23_1057,Jerry,SF,orientation,8,6,9,13-9;3-9;17-12;2-25,2,SimpleHill,3-9,22,12,selected,32-14,28-17;38-17;39-13;34-8;39-14;31-11,31-11,1.95,62,-5,816.197027299
GEMS217,2018_Mar_23_1057,Jerry,SF,orientation,8,6,9,13-9;3-9;17-12;2-25,2,SimpleHill,3-9,22,13,selected,31-11,35-13;29-13;26-15;29-7;30-17;35-10,35-10,7.08,63,1,826.826955006
GEMS217,2018_Mar_23_1057,Jerry,SF,orientation,8,6,9,13-9;3-9;17-12;2-25,2,SimpleHill,3-9,22,14,selected,35-10,30-6;39-9;30-5;28-8;37-10;29-7,30-5,2.68,51,-12,833.047320264
GEMS217,2018_Mar_23_1057,Jerry,SF,orientation,8,6,9,13-9;3-9;17-12;2-25,2,SimpleHill,3-9,22,15,selected,30-5,37-2;29-2;25-9;27-8;30-8;33-12,37-2,6.08,50,-1,842.688342704
GEMS217,2018_Mar_23_1057,Jerry,SF,orientation,8,6,9,13-9;3-9;17-12;2-25,2,SimpleHill,3-9,22,16,selected,37-2,39-6;43-3;39-4;36-6;37-3;33-0,39-6,3.5,58,8,849.74008889
GEMS217,2018_Mar_23_1057,Jerry,SF,orientation,8,6,9,13-9;3-9;17-12;2-25,2,SimpleHill,3-9,22,17,selected,39-6,36-12;45-4;37-5;38-0;33-5;45-10,45-4,1.8,57,-1,855.094104373
GEMS217,2018_Mar_23_1057,Jerry,SF,orientation,8,6,9,13-9;3-9;17-12;2-25,2,SimpleHill,3-9,22,18,selected,45-4,46-3;41-8;51-3;42-8;48-7;41-6,41-8,0.2,63,6,858.850939232
GEMS217,2018_Mar_23_1057,Jerry,SF,orientation,8,6,9,13-9;3-9;17-12;2-25,2,SimpleHill,3-9,22,19,selected,41-8,48-8;45-12;39-6;37-2;45-9;44-2,45-12,0.44,70,7,862.840481483
GEMS217,2018_Mar_23_1057,Jerry,SF,orientation,8,6,9,13-9;3-9;17-12;2-25,2,SimpleHill,3-9,22,20,selected,45-12,42-19;43-15;47-11;45-8;50-8;39-15,43-15,0.12,74,4,866.529517508
GEMS217,2018_Mar_23_1057,Jerry,SF,orientation,8,6,9,13-9;3-9;17-12;2-25,2,SimpleHill,3-9,22,21,selected,43-15,39-18;43-22;43-16;42-17;46-16;49-20,43-22,0.24,83,9,870.319846868
GEMS217,2018_Mar_23_1057,Jerry,SF,orientation,8,6,9,13-9;3-9;17-12;2-25,2,SimpleHill,3-9,22,22,selected,43-22,48-20;45-21;43-27;39-28;40-21;37-26,45-21,0.09,82,-1,873.956889275
GEMS217,2018_Mar_23_1057,Jerry,SF,orientation,8,6,9,13-9;3-9;17-12;2-25,2,SimpleHill,3-9,22,23,selected,45-21,50-25;52-21;47-21;40-22;39-21;45-19,52-21,0.17,83,1,877.67562254
GEMS217,2018_Mar_23_1057,Jerry,SF,orientation,8,6,9,13-9;3-9;17-12;2-25,2,SimpleHill,3-9,22,24,selected,52-21,48-15;51-14;53-23;55-23;54-27;54-16,54-27,1.78,89,6,882.990770127
GEMS217,2018_Mar_23_1057,Jerry,SF,orientation,8,6,9,13-9;3-9;17-12;2-25,2,SimpleHill,3-9,22,25,selected,54-27,54-35;50-21;53-26;56-34;55-20;51-29,56-34,3.94,94,5,890.473197198
GEMS217,2018_Mar_23_1057,Jerry,SF,orientation,8,6,9,13-9;3-9;17-12;2-25,2,SimpleHill,3-9,22,26,selected,56-34,50-31;49-35;52-36;60-36;57-39;59-37,60-36,1.9,94,0,895.923961979
GEMS217,2018_Mar_23_1057,Jerry,SF,orientation,8,6,9,13-9;3-9;17-12;2-25,2,SimpleHill,3-9,22,27,selected,60-36,59-35;64-40;67-36;60-30;55-31;58-29,67-36,2.75,90,-4,902.224769733
GEMS217,2018_Mar_23_1057,Jerry,SF,orientation,8,6,9,13-9;3-9;17-12;2-25,2,SimpleHill,3-9,22,28,selected,67-36,68-29;69-40;60-35;63-31;66-31;66-43,60-35,0.25,93,3,906.027701142
GEMS217,2018_Mar_23_1057,Jerry,SF,orientation,8,6,9,13-9;3-9;17-12;2-25,2,SimpleHill,3-9,22,29,selected,60-35,53-36;60-30;58-33;52-35;58-41;59-30,58-33,0.19,92,-1,909.771971723
GEMS217,2018_Mar_23_1057,Jerry,SF,orientation,8,6,9,13-9;3-9;17-12;2-25,2,SimpleHill,3-9,22,30,selected,58-33,58-38;55-34;65-35;64-38;54-35;56-34,65-35,0.26,91,-1,913.573533455
GEMS217,2018_Mar_23_1057,Jerry,SF,orientation,8,6,9,13-9;3-9;17-12;2-25,2,SimpleHill,3-9,22,31,selected,65-35,67-35;59-37;65-42;63-42;66-41;58-33,65-42,0.24,94,3,917.376584579
GEMS217,2018_Mar_23_1057,Jerry,SF,orientation,8,6,9,13-9;3-9;17-12;2-25,2,SimpleHill,3-9,22,32,selected,65-42,67-35;65-37;64-45;61-46;60-45;62-45,60-45,1.32,97,3,922.262817232
GEMS217,2018_Mar_23_1057,Jerry,SF,orientation,8,6,9,13-9;3-9;17-12;2-25,2,SimpleHill,3-9,22,33,selected,60-45,58-45;64-43;62-50;63-48;67-46;58-49,67-46,1.31,93,-4,927.126481749
GEMS217,2018_Mar_23_1057,Jerry,SF,orientation,8,6,9,13-9;3-9;17-12;2-25,2,SimpleHill,3-9,22,34,selected,67-46,65-45;61-46;61-41;70-45;67-45;67-53,67-45,1.25,93,0,931.923556422
GEMS217,2018_Mar_23_1057,Jerry,SF,orientation,8,6,9,13-9;3-9;17-12;2-25,2,SimpleHill,3-9,22,35,selected,67-45,69-50;66-52;64-42;60-48;66-42;70-41,60-48,1.47,97,4,936.951811645
GEMS217,2018_Mar_23_1057,Jerry,SF,orientation,8,6,9,13-9;3-9;17-12;2-25,2,SimpleHill,3-9,22,36,selected,60-48,58-46;52-48;56-47;57-41;60-52;57-50,58-46,2.06,98,1,942.56488359
GEMS217,2018_Mar_23_1057,Jerry,SF,orientation,8,6,9,13-9;3-9;17-12;2-25,2,SimpleHill,3-9,22,37,selected,58-46,60-46;57-40;52-51;54-47;60-49;65-43,65-43,1.5,94,-4,947.617489545
GEMS217,2018_Mar_23_1057,Jerry,SF,orientation,8,6,9,13-9;3-9;17-12;2-25,2,SimpleHill,3-9,22,38,selected,65-43,65-49;63-36;68-36;62-42;69-43;70-49,69-43,1.33,91,-3,952.504896938
GEMS217,2018_Mar_23_1057,Jerry,SF,orientation,8,6,9,13-9;3-9;17-12;2-25,2,SimpleHill,3-9,22,39,selected,69-43,68-37;64-42;68-42;63-44;64-44;62-40,64-44,0.23,95,4,956.276282251
GEMS217,2018_Mar_23_1057,Jerry,SF,orientation,8,6,9,13-9;3-9;17-12;2-25,3,SimpleHill,17-12,49,0,selected,17-12,18-19;11-8;13-12;22-7;15-16;22-10,13-12,6.83,43,-6,976.892453334
GEMS217,2018_Mar_23_1057,Jerry,SF,orientation,8,6,9,13-9;3-9;17-12;2-25,3,SimpleHill,17-12,49,1,selected,13-12,18-10;8-7;15-17;13-12;16-10;14-10,13-12,3.26,43,0,983.790299591
GEMS217,2018_Mar_23_1057,Jerry,SF,orientation,8,6,9,13-9;3-9;17-12;2-25,3,SimpleHill,17-12,49,2,selected,13-12,13-5;13-18;18-12;12-12;19-7;17-18,13-18,0.8,52,9,988.138579012
GEMS217,2018_Mar_23_1057,Jerry,SF,orientation,8,6,9,13-9;3-9;17-12;2-25,3,SimpleHill,17-12,49,3,selected,13-18,18-21;10-16;16-16;7-14;17-17;15-19,7-14,4.0,37,-15,995.756097046
GEMS217,2018_Mar_23_1057,Jerry,SF,orientation,8,6,9,13-9;3-9;17-12;2-25,3,SimpleHill,17-12,49,4,selected,7-14,4-20;7-13;11-15;5-17;11-19;1-18,5-17,0.88,37,0,1000.17321976
GEMS217,2018_Mar_23_1057,Jerry,SF,orientation,8,6,9,13-9;3-9;17-12;2-25,3,SimpleHill,17-12,49,5,selected,5-17,1-16;5-15;11-15;6-15;5-16;9-20,11-15,1.02,45,8,1004.74595811
GEMS217,2018_Mar_23_1057,Jerry,SF,orientation,8,6,9,13-9;3-9;17-12;2-25,3,SimpleHill,17-12,49,6,selected,11-15,16-13;17-15;15-15;14-15;15-12;17-16,15-15,0.66,51,6,1008.94745422
GEMS217,2018_Mar_23_1057,Jerry,SF,orientation,8,6,9,13-9;3-9;17-12;2-25,3,SimpleHill,17-12,49,7,selected,15-15,17-18;23-15;13-9;13-11;14-12;14-18,13-9,0.7,39,-12,1013.19793956
GEMS217,2018_Mar_23_1057,Jerry,SF,orientation,8,6,9,13-9;3-9;17-12;2-25,3,SimpleHill,17-12,49,8,selected,13-9,19-6;16-15;14-4;10-12;7-13;11-9,10-12,2.05,39,0,1018.79479817
GEMS217,2018_Mar_23_1057,Jerry,SF,orientation,8,6,9,13-9;3-9;17-12;2-25,3,SimpleHill,17-12,49,9,selected,10-12,10-9;17-13;3-14;5-15;6-6;10-5,17-13,1.91,50,11,1024.26285724
GEMS217,2018_Mar_23_1057,Jerry,SF,orientation,8,6,9,13-9;3-9;17-12;2-25,3,SimpleHill,17-12,49,10,selected,17-13,23-9;24-12;20-12;18-6;19-9;21-9,24-12,0.77,57,7,1028.57709897
GEMS217,2018_Mar_23_1057,Jerry,SF,orientation,8,6,9,13-9;3-9;17-12;2-25,3,SimpleHill,17-12,49,11,selected,24-12,25-18;28-17;18-12;31-14;31-12;27-14,31-14,1.25,66,9,1033.38826412
GEMS217,2018_Mar_23_1057,Jerry,SF,orientation,8,6,9,13-9;3-9;17-12;2-25,3,SimpleHill,17-12,49,12,selected,31-14,29-20;36-18;24-13;32-11;27-8;30-16,29-20,4.17,73,7,1041.1045029
GEMS217,2018_Mar_23_1057,Jerry,SF,orientation,8,6,9,13-9;3-9;17-12;2-25,3,SimpleHill,17-12,49,13,selected,29-20,34-14;26-19;29-19;33-21;30-14;29-22,29-22,2.01,75,2,1046.65616218
GEMS217,2018_Mar_23_1057,Jerry,SF,orientation,8,6,9,13-9;3-9;17-12;2-25,3,SimpleHill,17-12,49,14,selected,29-22,31-15;33-21;30-27;34-27;29-27;31-21,30-27,1.72,81,6,1051.94247774
GEMS217,2018_Mar_23_1057,Jerry,SF,orientation,8,6,9,13-9;3-9;17-12;2-25,3,SimpleHill,17-12,49,15,selected,30-27,25-28;27-33;37-27;35-21;34-33;27-28,27-33,1.81,83,2,1057.29462228
GEMS217,2018_Mar_23_1057,Jerry,SF,orientation,8,6,9,13-9;3-9;17-12;2-25,3,SimpleHill,17-12,49,16,selected,27-33,27-35;24-40;22-35;30-36;25-31;25-32,22-35,1.17,79,-4,1062.02504693
GEMS217,2018_Mar_23_1057,Jerry,SF,orientation,8,6,9,13-9;3-9;17-12;2-25,3,SimpleHill,17-12,49,17,selected,22-35,23-29;19-28;26-32;20-37;16-30;18-40,26-32,0.59,82,3,1066.17799939
GEMS217,2018_Mar_23_1057,Jerry,SF,orientation,8,6,9,13-9;3-9;17-12;2-25,3,SimpleHill,17-12,49,18,selected,26-32,27-32;30-37;24-38;21-28;31-27;23-37,31-27,1.36,82,0,1071.07008238
GEMS217,2018_Mar_23_1057,Jerry,SF,orientation,8,6,9,13-9;3-9;17-12;2-25,3,SimpleHill,17-12,49,19,selected,31-27,34-26;36-26;28-31;29-33;34-25;34-32,29-33,0.97,85,3,1075.57103865
GEMS217,2018_Mar_23_1057,Jerry,SF,orientation,8,6,9,13-9;3-9;17-12;2-25,3,SimpleHill,17-12,49,20,selected,29-33,26-30;26-29;25-36;29-35;33-33;30-28,33-33,2.19,88,3,1081.31803482
GEMS217,2018_Mar_23_1057,Jerry,SF,orientation,8,6,9,13-9;3-9;17-12;2-25,3,SimpleHill,17-12,49,21,selected,33-33,32-27;29-30;26-36;29-32;30-30;37-31,37-31,2.56,89,1,1087.43687724
GEMS217,2018_Mar_23_1057,Jerry,SF,orientation,8,6,9,13-9;3-9;17-12;2-25,3,SimpleHill,17-12,49,22,selected,37-31,37-23;40-25;36-32;30-32;43-31;32-26,43-31,2.29,91,2,1093.26762758
GEMS217,2018_Mar_23_1057,Jerry,SF,orientation,8,6,9,13-9;3-9;17-12;2-25,3,SimpleHill,17-12,49,23,selected,43-31,44-31;39-25;48-32;44-38;36-32;46-29,46-29,7.03,90,-1,1103.84176409
GEMS217,2018_Mar_23_1057,Jerry,SF,orientation,8,6,9,13-9;3-9;17-12;2-25,3,SimpleHill,17-12,49,24,selected,46-29,46-27;39-31;47-34;48-30;50-23;48-35,48-35,0.48,95,5,1107.85741119
GEMS217,2018_Mar_23_1057,Jerry,SF,orientation,8,6,9,13-9;3-9;17-12;2-25,3,SimpleHill,17-12,49,25,selected,48-35,45-32;51-33;45-35;48-33;48-36;44-31,48-36,2.33,96,1,1113.72357051
GEMS217,2018_Mar_23_1057,Jerry,SF,orientation,8,6,9,13-9;3-9;17-12;2-25,3,SimpleHill,17-12,49,26,selected,48-36,47-40;42-35;44-40;48-36;55-38;43-33,42-35,0.82,94,-2,1118.08230127
GEMS217,2018_Mar_23_1057,Jerry,SF,orientation,8,6,9,13-9;3-9;17-12;2-25,3,SimpleHill,17-12,49,27,selected,42-35,37-36;40-40;47-36;40-34;39-29;39-40,47-36,2.74,95,1,1124.36417779
GEMS217,2018_Mar_23_1057,Jerry,SF,orientation,8,6,9,13-9;3-9;17-12;2-25,3,SimpleHill,17-12,49,28,selected,47-36,49-38;43-36;50-42;42-39;44-43;41-41,49-38,1.34,97,2,1129.26971811
GEMS217,2018_Mar_23_1057,Jerry,SF,orientation,8,6,9,13-9;3-9;17-12;2-25,3,SimpleHill,17-12,49,29,selected,49-38,51-32;43-34;52-42;53-39;46-31;52-32,53-39,5.26,97,0,1138.09475352
GEMS217,2018_Mar_23_1057,Jerry,SF,orientation,8,6,9,13-9;3-9;17-12;2-25,3,SimpleHill,17-12,49,30,selected,53-39,51-40;54-42;53-39;56-39;57-36;53-41,53-39,0.88,97,0,1142.51756909
GEMS217,2018_Mar_23_1057,Jerry,SF,orientation,8,6,9,13-9;3-9;17-12;2-25,3,SimpleHill,17-12,49,31,selected,53-39,49-40;59-41;52-39;54-46;59-36;49-39,59-36,1.5,94,-3,1147.57458816
GEMS217,2018_Mar_23_1057,Jerry,SF,orientation,8,6,9,13-9;3-9;17-12;2-25,3,SimpleHill,17-12,49,32,selected,59-36,62-33;65-31;63-35;64-41;62-43;58-35,64-41,2.24,94,0,1153.37061037
GEMS217,2018_Mar_23_1057,Jerry,SF,orientation,8,6,9,13-9;3-9;17-12;2-25,3,SimpleHill,17-12,49,33,selected,64-41,66-44;62-34;64-48;57-38;66-37;60-35,64-48,0.81,96,2,1157.73896889
GEMS217,2018_Mar_23_1057,Jerry,SF,orientation,8,6,9,13-9;3-9;17-12;2-25,3,SimpleHill,17-12,49,34,selected,64-48,67-49;58-53;59-49;70-44;64-47;65-48,64-47,0.68,95,-1,1161.98361413
GEMS217,2018_Mar_23_1057,Jerry,SF,orientation,8,6,9,13-9;3-9;17-12;2-25,3,SimpleHill,17-12,49,35,selected,64-47,61-42;64-43;66-44;59-52;66-43;64-46,64-43,1.65,95,0,1167.18083029
GEMS217,2018_Mar_23_1057,Jerry,SF,orientation,8,6,9,13-9;3-9;17-12;2-25,3,SimpleHill,17-12,49,36,selected,64-43,65-49;62-38;64-49;64-46;58-38;57-42,64-49,0.88,96,1,1171.60261804
GEMS217,2018_Mar_23_1057,Jerry,SF,orientation,8,6,9,13-9;3-9;17-12;2-25,3,SimpleHill,17-12,49,37,selected,64-49,57-48;67-55;66-56;56-49;70-50;65-42,66-56,2.28,94,-2,1177.4351385
GEMS217,2018_Mar_23_1057,Jerry,SF,orientation,8,6,9,13-9;3-9;17-12;2-25,3,SimpleHill,17-12,49,38,selected,66-56,70-51;61-58;69-60;70-54;59-53;67-62,61-58,1.07,96,2,1182.06141843
GEMS217,2018_Mar_23_1057,Jerry,SF,orientation,8,6,9,13-9;3-9;17-12;2-25,3,SimpleHill,17-12,49,39,selected,61-58,54-55;60-58;61-65;61-62;55-53;66-56,66-56,2.99,94,-2,1188.61213023
GEMS217,2018_Mar_23_1057,Jerry,SF,orientation,8,6,9,13-9;3-9;17-12;2-25,4,SimpleHill,2-25,41,0,selected,2-25,10-25;4-31;7-29;8-26;7-31;4-18,4-18,2.99,37,-4,1205.59479721
GEMS217,2018_Mar_23_1057,Jerry,SF,orientation,8,6,9,13-9;3-9;17-12;2-25,4,SimpleHill,2-25,41,1,selected,4-18,12-18;6-24;1-15;1-24;6-11;7-19,6-11,6.01,30,-7,1215.141867
GEMS217,2018_Mar_23_1057,Jerry,SF,orientation,8,6,9,13-9;3-9;17-12;2-25,4,SimpleHill,2-25,41,2,selected,6-11,13-13;2-7;7-7;6-10;1-5;10-12,7-7,1.13,26,-4,1219.8239663
GEMS217,2018_Mar_23_1057,Jerry,SF,orientation,8,6,9,13-9;3-9;17-12;2-25,4,SimpleHill,2-25,41,3,selected,7-7,8-8;7-6;0-8;10-13;11-11;2-1,11-11,2.75,39,13,1226.10779186
GEMS217,2018_Mar_23_1057,Jerry,SF,orientation,8,6,9,13-9;3-9;17-12;2-25,4,SimpleHill,2-25,41,4,selected,11-11,16-14;5-9;9-13;18-11;9-15;18-13,18-11,1.3,49,10,1230.96559484
GEMS217,2018_Mar_23_1057,Jerry,SF,orientation,8,6,9,13-9;3-9;17-12;2-25,4,SimpleHill,2-25,41,5,selected,18-11,17-6;19-5;13-5;22-6;24-8;21-18,22-6,1.33,45,-4,1235.85477234
GEMS217,2018_Mar_23_1057,Jerry,SF,orientation,8,6,9,13-9;3-9;17-12;2-25,4,SimpleHill,2-25,41,6,selected,22-6,21-12;21-6;24-11;26-0;16-9;19-10,21-12,3.64,54,9,1243.06219145
GEMS217,2018_Mar_23_1057,Jerry,SF,orientation,8,6,9,13-9;3-9;17-12;2-25,4,SimpleHill,2-25,41,7,selected,21-12,26-10;22-17;27-14;21-11;26-11;25-15,21-11,2.51,52,-2,1249.12431632
GEMS217,2018_Mar_23_1057,Jerry,SF,orientation,8,6,9,13-9;3-9;17-12;2-25,4,SimpleHill,2-25,41,8,selected,21-11,17-14;23-5;27-14;26-15;25-14;19-15,27-14,2.71,63,11,1255.38686596
GEMS217,2018_Mar_23_1057,Jerry,SF,orientation,8,6,9,13-9;3-9;17-12;2-25,4,SimpleHill,2-25,41,9,selected,27-14,26-17;27-19;23-20;25-13;25-14;23-17,26-17,2.22,66,3,1261.15982677
GEMS217,2018_Mar_23_1057,Jerry,SF,orientation,8,6,9,13-9;3-9;17-12;2-25,4,SimpleHill,2-25,41,10,selected,26-17,24-13;25-21;29-15;29-19;29-14;20-15,24-13,2.09,59,-7,1266.81657408
GEMS217,2018_Mar_23_1057,Jerry,SF,orientation,8,6,9,13-9;3-9;17-12;2-25,4,SimpleHill,2-25,41,11,selected,24-13,25-17;29-18;16-13;23-17;19-14;25-8,19-14,2.81,54,-5,1273.33051716
GEMS217,2018_Mar_23_1057,Jerry,SF,orientation,8,6,9,13-9;3-9;17-12;2-25,4,SimpleHill,2-25,41,12,selected,19-14,15-16;12-12;13-16;25-11;19-6;17-19,17-19,3.37,59,5,1280.24988901
GEMS217,2018_Mar_23_1057,Jerry,SF,orientation,8,6,9,13-9;3-9;17-12;2-25,4,SimpleHill,2-25,41,13,selected,17-19,20-18;20-17;22-19;16-24;19-13;20-13,20-18,1.6,61,2,1285.39511923
GEMS217,2018_Mar_23_1057,Jerry,SF,orientation,8,6,9,13-9;3-9;17-12;2-25,4,SimpleHill,2-25,41,14,selected,20-18,24-21;14-15;20-11;15-24;17-13;15-17,20-11,3.08,51,-10,1292.03269875
GEMS217,2018_Mar_23_1057,Jerry,SF,orientation,8,6,9,13-9;3-9;17-12;2-25,4,SimpleHill,2-25,41,15,selected,20-11,24-15;15-8;19-9;23-4;20-8;17-9,20-8,1.47,46,-5,1297.04340137
GEMS217,2018_Mar_23_1057,Jerry,SF,orientation,8,6,9,13-9;3-9;17-12;2-25,4,SimpleHill,2-25,41,16,selected,20-8,21-14;14-9;20-15;25-14;19-4;26-9,26-9,1.04,54,8,1301.62917741
GEMS217,2018_Mar_23_1057,Jerry,SF,orientation,8,6,9,13-9;3-9;17-12;2-25,4,SimpleHill,2-25,41,17,selected,26-9,28-14;19-12;33-6;28-4;27-9;33-12,33-12,2.22,65,11,1307.39510482
GEMS217,2018_Mar_23_1057,Jerry,SF,orientation,8,6,9,13-9;3-9;17-12;2-25,4,SimpleHill,2-25,41,18,selected,33-12,31-14;25-12;38-15;38-13;34-5;33-17,33-17,1.73,72,7,1312.67605467
GEMS217,2018_Mar_23_1057,Jerry,SF,orientation,8,6,9,13-9;3-9;17-12;2-25,4,SimpleHill,2-25,41,19,selected,33-17,26-17;35-19;36-20;38-15;32-20;35-22,35-22,1.24,79,7,1317.46322023
GEMS217,2018_Mar_23_1057,Jerry,SF,orientation,8,6,9,13-9;3-9;17-12;2-25,4,SimpleHill,2-25,41,20,selected,35-22,29-19;38-22;35-25;33-16;28-21;40-22,38-22,2.01,81,2,1323.02590222
GEMS217,2018_Mar_23_1057,Jerry,SF,orientation,8,6,9,13-9;3-9;17-12;2-25,4,SimpleHill,2-25,41,21,selected,38-22,43-17;41-17;41-26;39-29;36-21;36-23,41-26,6.45,86,5,1333.03375666
GEMS217,2018_Mar_23_1057,Jerry,SF,orientation,8,6,9,13-9;3-9;17-12;2-25,4,SimpleHill,2-25,41,22,selected,41-26,45-27;40-26;40-23;44-28;47-31;48-27,47-31,20.07,92,6,1356.69021845
GEMS217,2018_Mar_23_1057,Jerry,SF,orientation,8,6,9,13-9;3-9;17-12;2-25,4,SimpleHill,2-25,41,23,selected,47-31,52-34;51-27;47-32;42-26;49-24;46-24,47-32,2.18,93,1,1362.4205906
GEMS217,2018_Mar_23_1057,Jerry,SF,orientation,8,6,9,13-9;3-9;17-12;2-25,4,SimpleHill,2-25,41,24,selected,47-32,45-33;46-28;51-33;53-30;51-32;50-32,51-33,0.82,94,1,1366.79975993
GEMS217,2018_Mar_23_1057,Jerry,SF,orientation,8,6,9,13-9;3-9;17-12;2-25,4,SimpleHill,2-25,41,25,selected,51-33,55-28;48-27;52-40;46-33;44-32;46-36,55-28,2.42,89,-5,1372.77205015
GEMS217,2018_Mar_23_1057,Jerry,SF,orientation,8,6,9,13-9;3-9;17-12;2-25,4,SimpleHill,2-25,41,26,selected,55-28,60-22;55-20;61-27;54-30;57-26;60-25,61-27,1.04,87,-2,1377.3562779
GEMS217,2018_Mar_23_1057,Jerry,SF,orientation,8,6,9,13-9;3-9;17-12;2-25,4,SimpleHill,2-25,41,27,selected,61-27,62-33;57-26;56-33;56-23;56-29;63-32,56-29,0.38,90,3,1381.28741796
GEMS217,2018_Mar_23_1057,Jerry,SF,orientation,8,6,9,13-9;3-9;17-12;2-25,4,SimpleHill,2-25,41,28,selected,56-29,49-26;57-31;60-35;53-36;59-25;54-35,59-25,2.19,85,-5,1387.01283188
GEMS217,2018_Mar_23_1057,Jerry,SF,orientation,8,6,9,13-9;3-9;17-12;2-25,4,SimpleHill,2-25,41,29,selected,59-25,55-19;64-20;54-20;61-29;60-19;62-23,61-29,2.25,88,3,1392.82274899
GEMS217,2018_Mar_23_1057,Jerry,SF,orientation,8,6,9,13-9;3-9;17-12;2-25,4,SimpleHill,2-25,41,30,selected,61-29,61-28;59-31;56-35;54-32;66-35;62-31,66-35,1.97,90,2,1398.33891319
GEMS217,2018_Mar_23_1057,Jerry,SF,orientation,8,6,9,13-9;3-9;17-12;2-25,4,SimpleHill,2-25,41,31,selected,66-35,59-33;69-40;65-31;67-35;62-39;61-36,67-35,1.02,89,-1,1402.91546224
GEMS217,2018_Mar_23_1057,Jerry,SF,orientation,8,6,9,13-9;3-9;17-12;2-25,4,SimpleHill,2-25,41,32,selected,67-35,69-36;70-40;65-38;70-28;62-39;68-41,69-36,1.12,88,-1,1407.59420216
GEMS217,2018_Mar_23_1057,Jerry,SF,orientation,8,6,9,13-9;3-9;17-12;2-25,4,SimpleHill,2-25,41,33,selected,69-36,67-43;62-33;68-35;66-43;64-37;65-34,62-33,1.91,91,3,1413.05954684
GEMS217,2018_Mar_23_1057,Jerry,SF,orientation,8,6,9,13-9;3-9;17-12;2-25,4,SimpleHill,2-25,41,34,selected,62-33,59-31;66-35;64-26;59-33;56-34;59-28,59-28,1.29,88,-3,1417.89617697
GEMS217,2018_Mar_23_1057,Jerry,SF,orientation,8,6,9,13-9;3-9;17-12;2-25,4,SimpleHill,2-25,41,35,selected,59-28,65-25;57-22;52-28;57-34;55-22;61-26,55-22,1.79,83,-5,1423.22000803
GEMS217,2018_Mar_23_1057,Jerry,SF,orientation,8,6,9,13-9;3-9;17-12;2-25,4,SimpleHill,2-25,41,36,selected,55-22,60-26;58-15;56-17;52-19;53-16;55-17,58-15,0.85,74,-9,1427.61496529
GEMS217,2018_Mar_23_1057,Jerry,SF,orientation,8,6,9,13-9;3-9;17-12;2-25,4,SimpleHill,2-25,41,37,selected,58-15,62-9;55-20;62-16;61-20;63-13;60-10,62-16,1.4,74,0,1432.56440281
GEMS217,2018_Mar_23_1057,Jerry,SF,orientation,8,6,9,13-9;3-9;17-12;2-25,4,SimpleHill,2-25,41,38,selected,62-16,57-16;56-19;61-9;62-18;66-16;61-10,56-19,1.6,80,6,1437.70353654
GEMS217,2018_Mar_23_1057,Jerry,SF,orientation,8,6,9,13-9;3-9;17-12;2-25,4,SimpleHill,2-25,41,39,selected,56-19,58-18;54-26;61-23;51-19;52-19;59-26,58-18,1.41,78,-2,1442.66921941
