subj_id,date,computer,experimenter,instructions,sight_radius,n_gabors,start_pos_list_ix,start_pos_list,landscape_ix,landscape_name,starting_pos,starting_score,trial,feedback,pos,stims,selected,rt,score,delta,exp_time
GEMS237,2018_Apr_23_1623,George,EG,spatial_frequency,8,6,19,46-37;40-26;32-38;26-20,0,SpatialFrequencyBias,0-0,0,0,training,0-0,7-0;4-2;2-1;0-6;5-3;1-6,7-0,9.25,0,0,335.471183815
GEMS237,2018_Apr_23_1623,George,EG,spatial_frequency,8,6,19,46-37;40-26;32-38;26-20,0,SpatialFrequencyBias,0-0,0,1,training,7-0,6-7;10-1;7-5;13-3;8-5;11-2,11-2,2.43,7,7,347.019310552
GEMS237,2018_Apr_23_1623,George,EG,spatial_frequency,8,6,19,46-37;40-26;32-38;26-20,0,SpatialFrequencyBias,0-0,0,2,training,11-2,17-2;9-7;16-5;11-6;13-4;14-2,9-7,2.84,26,19,356.43394167
GEMS237,2018_Apr_23_1623,George,EG,spatial_frequency,8,6,19,46-37;40-26;32-38;26-20,0,SpatialFrequencyBias,0-0,0,3,training,9-7,9-12;11-11;6-5;16-8;16-7;9-7,16-7,2.03,26,0,363.389229841
GEMS237,2018_Apr_23_1623,George,EG,spatial_frequency,8,6,19,46-37;40-26;32-38;26-20,0,SpatialFrequencyBias,0-0,0,4,training,16-7,16-11;9-4;16-15;22-2;21-7;19-1,16-15,5.18,51,25,373.448834623
GEMS237,2018_Apr_23_1623,George,EG,spatial_frequency,8,6,19,46-37;40-26;32-38;26-20,0,SpatialFrequencyBias,0-0,0,5,training,16-15,15-19;22-11;12-12;12-14;15-20;11-15,12-12,10.52,42,-9,389.279117953
GEMS237,2018_Apr_23_1623,George,EG,spatial_frequency,8,6,19,46-37;40-26;32-38;26-20,0,SpatialFrequencyBias,0-0,0,6,training,12-12,18-12;14-16;16-16;10-11;14-7;13-17,13-17,5.5,56,14,400.891391907
GEMS237,2018_Apr_23_1623,George,EG,spatial_frequency,8,6,19,46-37;40-26;32-38;26-20,0,SpatialFrequencyBias,0-0,0,7,training,13-17,18-17;13-20;18-14;13-10;13-9;16-17,13-20,5.73,64,8,410.083890855
GEMS237,2018_Apr_23_1623,George,EG,spatial_frequency,8,6,19,46-37;40-26;32-38;26-20,0,SpatialFrequencyBias,0-0,0,8,training,13-20,16-21;12-18;14-23;20-19;8-18;15-17,16-21,4.88,66,2,418.853786457
GEMS237,2018_Apr_23_1623,George,EG,spatial_frequency,8,6,19,46-37;40-26;32-38;26-20,0,SpatialFrequencyBias,0-0,0,9,training,16-21,21-23;23-19;13-21;15-18;17-14;14-16,13-21,4.8,66,0,426.923210082
GEMS237,2018_Apr_23_1623,George,EG,spatial_frequency,8,6,19,46-37;40-26;32-38;26-20,0,SpatialFrequencyBias,0-0,0,10,training,13-21,14-14;11-27;12-21;11-14;14-25;10-25,14-25,3.58,75,9,433.246155767
GEMS237,2018_Apr_23_1623,George,EG,spatial_frequency,8,6,19,46-37;40-26;32-38;26-20,0,SpatialFrequencyBias,0-0,0,11,training,14-25,10-22;7-25;15-18;10-21;15-21;21-23,21-23,4.06,70,-5,440.025857728
GEMS237,2018_Apr_23_1623,George,EG,spatial_frequency,8,6,19,46-37;40-26;32-38;26-20,0,SpatialFrequencyBias,0-0,0,12,training,21-23,16-18;20-24;14-22;21-19;20-18;17-17,20-18,3.89,59,-11,446.759237475
GEMS237,2018_Apr_23_1623,George,EG,spatial_frequency,8,6,19,46-37;40-26;32-38;26-20,0,SpatialFrequencyBias,0-0,0,13,training,20-18,26-22;21-25;17-20;15-15;21-13;26-16,21-25,11.81,75,16,461.147875785
GEMS237,2018_Apr_23_1623,George,EG,spatial_frequency,8,6,19,46-37;40-26;32-38;26-20,0,SpatialFrequencyBias,0-0,0,14,training,21-25,19-25;27-30;24-31;18-21;16-28;14-27,24-31,3.79,85,10,467.380479147
GEMS237,2018_Apr_23_1623,George,EG,spatial_frequency,8,6,19,46-37;40-26;32-38;26-20,0,SpatialFrequencyBias,0-0,0,15,training,24-31,22-32;21-36;18-34;20-33;22-27;21-26,21-36,3.78,92,7,473.71439921
GEMS237,2018_Apr_23_1623,George,EG,spatial_frequency,8,6,19,46-37;40-26;32-38;26-20,0,SpatialFrequencyBias,0-0,0,16,training,21-36,25-31;20-33;26-37;23-33;15-31;26-33,25-31,3.39,85,-7,479.658986362
GEMS237,2018_Apr_23_1623,George,EG,spatial_frequency,8,6,19,46-37;40-26;32-38;26-20,0,SpatialFrequencyBias,0-0,0,17,training,25-31,29-37;25-29;23-35;19-27;24-38;21-34,24-38,2.68,94,9,485.455044421
GEMS237,2018_Apr_23_1623,George,EG,spatial_frequency,8,6,19,46-37;40-26;32-38;26-20,0,SpatialFrequencyBias,0-0,0,18,training,24-38,24-35;25-42;19-39;23-44;29-34;24-32,25-42,3.19,97,3,491.150145562
GEMS237,2018_Apr_23_1623,George,EG,spatial_frequency,8,6,19,46-37;40-26;32-38;26-20,0,SpatialFrequencyBias,0-0,0,19,training,25-42,27-48;21-46;20-36;20-44;26-47;28-45,27-48,1.81,99,2,496.104242989
GEMS237,2018_Apr_23_1623,George,EG,spatial_frequency,8,6,19,46-37;40-26;32-38;26-20,0,SpatialFrequencyBias,0-0,0,20,training,27-48,31-49;31-53;25-44;22-44;30-47;29-52,29-52,2.86,99,0,502.554759378
GEMS237,2018_Apr_23_1623,George,EG,spatial_frequency,8,6,19,46-37;40-26;32-38;26-20,0,SpatialFrequencyBias,0-0,0,21,training,29-52,33-52;32-52;34-51;29-47;26-53;27-48,26-53,2.36,99,0,507.581780324
GEMS237,2018_Apr_23_1623,George,EG,spatial_frequency,8,6,19,46-37;40-26;32-38;26-20,0,SpatialFrequencyBias,0-0,0,22,training,26-53,31-47;25-56;23-60;22-50;19-51;27-46,23-60,2.69,96,-3,513.071541038
GEMS237,2018_Apr_23_1623,George,EG,spatial_frequency,8,6,19,46-37;40-26;32-38;26-20,0,SpatialFrequencyBias,0-0,0,23,training,23-60,23-54;22-67;22-54;24-53;18-57;25-65,25-65,2.86,91,-5,519.636493449
GEMS237,2018_Apr_23_1623,George,EG,spatial_frequency,8,6,19,46-37;40-26;32-38;26-20,0,SpatialFrequencyBias,0-0,0,24,training,25-65,26-61;29-68;25-60;25-66;29-61;22-64,25-60,1.37,96,5,524.959586056
GEMS237,2018_Apr_23_1623,George,EG,spatial_frequency,8,6,19,46-37;40-26;32-38;26-20,0,SpatialFrequencyBias,0-0,0,25,training,25-60,22-58;23-59;22-63;22-55;19-58;30-57,22-55,1.72,99,3,529.239449184
GEMS237,2018_Apr_23_1623,George,EG,spatial_frequency,8,6,19,46-37;40-26;32-38;26-20,0,SpatialFrequencyBias,0-0,0,26,training,22-55,28-59;20-60;21-52;28-52;19-52;15-54,21-52,2.87,99,0,534.78667166
GEMS237,2018_Apr_23_1623,George,EG,spatial_frequency,8,6,19,46-37;40-26;32-38;26-20,0,SpatialFrequencyBias,0-0,0,27,training,21-52,25-49;13-52;27-53;18-51;18-59;25-56,18-51,1.64,99,0,538.927096967
GEMS237,2018_Apr_23_1623,George,EG,spatial_frequency,8,6,19,46-37;40-26;32-38;26-20,0,SpatialFrequencyBias,0-0,0,28,training,18-51,17-56;13-54;22-57;21-51;19-56;23-49,13-54,2.8,99,0,544.977586789
GEMS237,2018_Apr_23_1623,George,EG,spatial_frequency,8,6,19,46-37;40-26;32-38;26-20,0,SpatialFrequencyBias,0-0,0,29,training,13-54,9-60;11-61;20-51;13-47;19-50;14-55,13-47,0.9,99,0,548.504268596
GEMS237,2018_Apr_23_1623,George,EG,spatial_frequency,8,6,19,46-37;40-26;32-38;26-20,1,SimpleHill,46-37,96,0,selected,46-37,49-38;44-33;51-32;50-37;51-43;51-39,51-43,1.97,99,3,566.159243237
GEMS237,2018_Apr_23_1623,George,EG,spatial_frequency,8,6,19,46-37;40-26;32-38;26-20,1,SimpleHill,46-37,96,1,selected,51-43,46-39;52-44;51-38;57-40;57-46;49-48,57-40,1.88,97,-2,571.593076075
GEMS237,2018_Apr_23_1623,George,EG,spatial_frequency,8,6,19,46-37;40-26;32-38;26-20,1,SimpleHill,46-37,96,2,selected,57-40,51-42;53-39;56-34;55-45;51-43;59-42,51-42,3.7,98,1,578.846361266
GEMS237,2018_Apr_23_1623,George,EG,spatial_frequency,8,6,19,46-37;40-26;32-38;26-20,1,SimpleHill,46-37,96,3,selected,51-42,48-47;55-48;44-42;45-37;57-46;44-41,57-46,2.41,98,0,584.803151633
GEMS237,2018_Apr_23_1623,George,EG,spatial_frequency,8,6,19,46-37;40-26;32-38;26-20,1,SimpleHill,46-37,96,4,selected,57-46,55-43;51-48;63-47;59-41;63-45;56-44,56-44,1.33,98,0,589.695563995
GEMS237,2018_Apr_23_1623,George,EG,spatial_frequency,8,6,19,46-37;40-26;32-38;26-20,1,SimpleHill,46-37,96,5,selected,56-44,56-52;55-47;57-37;58-38;51-40;63-43,55-47,1.26,99,1,594.512494658
GEMS237,2018_Apr_23_1623,George,EG,spatial_frequency,8,6,19,46-37;40-26;32-38;26-20,1,SimpleHill,46-37,96,6,selected,55-47,60-45;49-46;56-49;58-53;58-48;56-42,58-53,1.51,98,-1,599.554071819
GEMS237,2018_Apr_23_1623,George,EG,spatial_frequency,8,6,19,46-37;40-26;32-38;26-20,1,SimpleHill,46-37,96,7,selected,58-53,60-59;56-49;58-54;55-48;63-51;64-56,56-49,3.06,99,1,606.158579044
GEMS237,2018_Apr_23_1623,George,EG,spatial_frequency,8,6,19,46-37;40-26;32-38;26-20,1,SimpleHill,46-37,96,8,selected,56-49,57-52;58-44;53-47;53-42;52-52;54-56,57-52,1.03,98,-1,610.752376928
GEMS237,2018_Apr_23_1623,George,EG,spatial_frequency,8,6,19,46-37;40-26;32-38;26-20,1,SimpleHill,46-37,96,9,selected,57-52,60-58;61-54;55-49;53-46;57-60;60-51,53-46,1.04,99,1,615.369399138
GEMS237,2018_Apr_23_1623,George,EG,spatial_frequency,8,6,19,46-37;40-26;32-38;26-20,1,SimpleHill,46-37,96,10,selected,53-46,55-45;55-48;48-48;56-46;55-53;53-53,48-48,0.77,99,0,619.710522247
GEMS237,2018_Apr_23_1623,George,EG,spatial_frequency,8,6,19,46-37;40-26;32-38;26-20,1,SimpleHill,46-37,96,11,selected,48-48,45-54;48-48;48-56;49-41;47-52;53-45,47-52,0.88,99,0,624.177396334
GEMS237,2018_Apr_23_1623,George,EG,spatial_frequency,8,6,19,46-37;40-26;32-38;26-20,1,SimpleHill,46-37,96,12,selected,47-52,51-53;43-57;42-57;51-58;49-54;44-58,51-58,2.5,98,-1,630.235734189
GEMS237,2018_Apr_23_1623,George,EG,spatial_frequency,8,6,19,46-37;40-26;32-38;26-20,1,SimpleHill,46-37,96,13,selected,51-58,55-61;57-60;49-62;58-61;43-58;56-54,57-60,0.83,97,-1,634.643459946
GEMS237,2018_Apr_23_1623,George,EG,spatial_frequency,8,6,19,46-37;40-26;32-38;26-20,1,SimpleHill,46-37,96,14,selected,57-60,60-64;60-61;52-60;54-56;59-61;57-56,52-60,4.65,97,0,642.85776969
GEMS237,2018_Apr_23_1623,George,EG,spatial_frequency,8,6,19,46-37;40-26;32-38;26-20,1,SimpleHill,46-37,96,15,selected,52-60,58-63;48-55;53-63;49-57;45-57;48-59,45-57,1.53,98,1,647.965358288
GEMS237,2018_Apr_23_1623,George,EG,spatial_frequency,8,6,19,46-37;40-26;32-38;26-20,1,SimpleHill,46-37,96,16,selected,45-57,43-51;46-60;47-61;45-64;39-54;40-60,43-51,0.96,99,1,652.496225947
GEMS237,2018_Apr_23_1623,George,EG,spatial_frequency,8,6,19,46-37;40-26;32-38;26-20,1,SimpleHill,46-37,96,17,selected,43-51,38-52;42-56;42-45;37-55;45-48;40-55,42-56,1.01,98,-1,657.076392043
GEMS237,2018_Apr_23_1623,George,EG,spatial_frequency,8,6,19,46-37;40-26;32-38;26-20,1,SimpleHill,46-37,96,18,selected,42-56,44-61;40-63;49-56;44-59;35-55;42-60,35-55,5.35,95,-3,665.990042236
GEMS237,2018_Apr_23_1623,George,EG,spatial_frequency,8,6,19,46-37;40-26;32-38;26-20,1,SimpleHill,46-37,96,19,selected,35-55,34-58;40-54;34-53;38-58;32-58;38-49,34-58,5.17,93,-2,674.744289466
GEMS237,2018_Apr_23_1623,George,EG,spatial_frequency,8,6,19,46-37;40-26;32-38;26-20,1,SimpleHill,46-37,96,20,selected,34-58,27-60;42-58;35-63;27-58;33-53;30-55,42-58,3.64,97,4,681.945514461
GEMS237,2018_Apr_23_1623,George,EG,spatial_frequency,8,6,19,46-37;40-26;32-38;26-20,1,SimpleHill,46-37,96,21,selected,42-58,46-62;47-63;41-65;45-58;41-56;44-63,41-65,5.66,93,-4,691.173989587
GEMS237,2018_Apr_23_1623,George,EG,spatial_frequency,8,6,19,46-37;40-26;32-38;26-20,1,SimpleHill,46-37,96,22,selected,41-65,44-70;44-61;42-64;43-64;41-58;37-60,37-60,3.3,94,1,698.027591671
GEMS237,2018_Apr_23_1623,George,EG,spatial_frequency,8,6,19,46-37;40-26;32-38;26-20,1,SimpleHill,46-37,96,23,selected,37-60,38-54;42-64;44-60;34-67;31-60;44-63,42-64,5.3,94,0,706.893553493
GEMS237,2018_Apr_23_1623,George,EG,spatial_frequency,8,6,19,46-37;40-26;32-38;26-20,1,SimpleHill,46-37,96,24,selected,42-64,45-69;38-68;37-66;38-64;39-70;36-68,38-64,1.34,93,-1,711.78180273
GEMS237,2018_Apr_23_1623,George,EG,spatial_frequency,8,6,19,46-37;40-26;32-38;26-20,1,SimpleHill,46-37,96,25,selected,38-64,32-62;34-64;35-68;45-62;36-66;43-66,34-64,1.74,90,-3,717.07717499
GEMS237,2018_Apr_23_1623,George,EG,spatial_frequency,8,6,19,46-37;40-26;32-38;26-20,1,SimpleHill,46-37,96,26,selected,34-64,35-64;31-60;39-67;36-64;29-60;35-57,35-57,0.92,94,4,721.545975715
GEMS237,2018_Apr_23_1623,George,EG,spatial_frequency,8,6,19,46-37;40-26;32-38;26-20,1,SimpleHill,46-37,96,27,selected,35-57,35-64;30-61;30-59;39-58;36-55;32-50,30-59,1.22,90,-4,726.325767622
GEMS237,2018_Apr_23_1623,George,EG,spatial_frequency,8,6,19,46-37;40-26;32-38;26-20,1,SimpleHill,46-37,96,28,selected,30-59,26-57;34-59;34-64;27-63;30-65;31-54,30-65,6.6,87,-3,736.472723141
GEMS237,2018_Apr_23_1623,George,EG,spatial_frequency,8,6,19,46-37;40-26;32-38;26-20,1,SimpleHill,46-37,96,29,selected,30-65,29-66;27-62;35-61;23-67;23-65;32-62,29-66,1.63,86,-1,741.660090362
GEMS237,2018_Apr_23_1623,George,EG,spatial_frequency,8,6,19,46-37;40-26;32-38;26-20,1,SimpleHill,46-37,96,30,selected,29-66,30-61;27-60;23-65;29-62;35-69;31-64,29-62,0.51,88,2,745.731054914
GEMS237,2018_Apr_23_1623,George,EG,spatial_frequency,8,6,19,46-37;40-26;32-38;26-20,1,SimpleHill,46-37,96,31,selected,29-62,30-63;29-61;26-58;28-69;26-68;30-55,26-58,2.15,87,-1,751.458534392
GEMS237,2018_Apr_23_1623,George,EG,spatial_frequency,8,6,19,46-37;40-26;32-38;26-20,1,SimpleHill,46-37,96,32,selected,26-58,25-55;28-60;27-52;25-60;31-55;19-56,31-55,2.21,92,5,757.24917168
GEMS237,2018_Apr_23_1623,George,EG,spatial_frequency,8,6,19,46-37;40-26;32-38;26-20,1,SimpleHill,46-37,96,33,selected,31-55,27-52;38-55;31-53;25-55;36-55;34-57,34-57,4.58,93,1,765.40224417
GEMS237,2018_Apr_23_1623,George,EG,spatial_frequency,8,6,19,46-37;40-26;32-38;26-20,1,SimpleHill,46-37,96,34,selected,34-57,38-60;32-64;28-60;32-53;31-62;33-50,32-64,4.19,89,-4,773.166003275
GEMS237,2018_Apr_23_1623,George,EG,spatial_frequency,8,6,19,46-37;40-26;32-38;26-20,1,SimpleHill,46-37,96,35,selected,32-64,37-60;29-66;29-65;27-67;39-67;31-60,29-65,3.03,86,-3,779.754885495
GEMS237,2018_Apr_23_1623,George,EG,spatial_frequency,8,6,19,46-37;40-26;32-38;26-20,1,SimpleHill,46-37,96,36,selected,29-65,36-64;29-59;25-60;25-62;29-64;30-69,25-62,1.05,84,-2,784.381039629
GEMS237,2018_Apr_23_1623,George,EG,spatial_frequency,8,6,19,46-37;40-26;32-38;26-20,1,SimpleHill,46-37,96,37,selected,25-62,23-65;25-69;21-68;25-60;23-64;30-68,23-64,6.77,81,-3,794.716411633
GEMS237,2018_Apr_23_1623,George,EG,spatial_frequency,8,6,19,46-37;40-26;32-38;26-20,1,SimpleHill,46-37,96,38,selected,23-64,18-69;23-65;28-59;26-69;28-67;28-60,18-69,0.3,72,-9,798.587203974
GEMS237,2018_Apr_23_1623,George,EG,spatial_frequency,8,6,19,46-37;40-26;32-38;26-20,1,SimpleHill,46-37,96,39,selected,18-69,22-69;14-69;22-65;19-67;13-70;25-68,25-68,3.43,81,9,805.588516995
GEMS237,2018_Apr_23_1623,George,EG,spatial_frequency,8,6,19,46-37;40-26;32-38;26-20,2,SimpleHill,40-26,86,0,selected,40-26,37-32;45-28;43-29;35-20;45-29;40-28,40-28,1.83,88,2,819.187113708
GEMS237,2018_Apr_23_1623,George,EG,spatial_frequency,8,6,19,46-37;40-26;32-38;26-20,2,SimpleHill,40-26,86,1,selected,40-28,40-36;42-29;34-23;33-25;35-25;44-31,40-36,1.4,94,6,824.149182723
GEMS237,2018_Apr_23_1623,George,EG,spatial_frequency,8,6,19,46-37;40-26;32-38;26-20,2,SimpleHill,40-26,86,2,selected,40-36,44-39;39-43;44-37;40-35;35-39;34-34,44-39,2.73,96,2,830.443452584
GEMS237,2018_Apr_23_1623,George,EG,spatial_frequency,8,6,19,46-37;40-26;32-38;26-20,2,SimpleHill,40-26,86,3,selected,44-39,47-45;47-41;48-37;51-42;39-37;44-36,44-36,0.6,95,-1,834.600667713
GEMS237,2018_Apr_23_1623,George,EG,spatial_frequency,8,6,19,46-37;40-26;32-38;26-20,2,SimpleHill,40-26,86,4,selected,44-36,42-31;49-41;47-34;41-43;45-34;49-36,45-34,0.43,94,-1,838.56736847
GEMS237,2018_Apr_23_1623,George,EG,spatial_frequency,8,6,19,46-37;40-26;32-38;26-20,2,SimpleHill,40-26,86,5,selected,45-34,41-29;45-34;50-38;43-28;50-39;46-27,41-29,0.52,89,-5,842.640751322
GEMS237,2018_Apr_23_1623,George,EG,spatial_frequency,8,6,19,46-37;40-26;32-38;26-20,2,SimpleHill,40-26,86,6,selected,41-29,34-32;49-29;43-24;35-26;46-31;37-31,49-29,1.56,91,2,847.781344037
GEMS237,2018_Apr_23_1623,George,EG,spatial_frequency,8,6,19,46-37;40-26;32-38;26-20,2,SimpleHill,40-26,86,7,selected,49-29,46-24;53-35;53-32;47-24;51-22;47-30,53-32,1.38,93,2,852.741875647
GEMS237,2018_Apr_23_1623,George,EG,spatial_frequency,8,6,19,46-37;40-26;32-38;26-20,2,SimpleHill,40-26,86,8,selected,53-32,53-28;51-35;55-35;48-30;51-39;49-32,48-30,2.29,91,-2,858.603057525
GEMS237,2018_Apr_23_1623,George,EG,spatial_frequency,8,6,19,46-37;40-26;32-38;26-20,2,SimpleHill,40-26,86,9,selected,48-30,55-33;41-30;48-35;51-25;50-23;46-33,55-33,0.65,93,2,862.800131238
GEMS237,2018_Apr_23_1623,George,EG,spatial_frequency,8,6,19,46-37;40-26;32-38;26-20,2,SimpleHill,40-26,86,10,selected,55-33,56-29;52-29;59-27;52-39;52-28;54-28,54-28,0.56,90,-3,866.908310407
GEMS237,2018_Apr_23_1623,George,EG,spatial_frequency,8,6,19,46-37;40-26;32-38;26-20,2,SimpleHill,40-26,86,11,selected,54-28,54-20;51-35;50-26;54-33;56-28;60-28,50-26,0.3,88,-2,870.763876579
GEMS237,2018_Apr_23_1623,George,EG,spatial_frequency,8,6,19,46-37;40-26;32-38;26-20,2,SimpleHill,40-26,86,12,selected,50-26,53-24;50-23;48-23;52-25;44-24;46-30,50-23,2.07,85,-3,876.400225345
GEMS237,2018_Apr_23_1623,George,EG,spatial_frequency,8,6,19,46-37;40-26;32-38;26-20,2,SimpleHill,40-26,86,13,selected,50-23,46-25;50-28;50-16;48-21;51-27;52-27,46-25,0.56,87,2,880.502577226
GEMS237,2018_Apr_23_1623,George,EG,spatial_frequency,8,6,19,46-37;40-26;32-38;26-20,2,SimpleHill,40-26,86,14,selected,46-25,48-31;47-26;51-29;53-23;44-30;42-19,53-23,0.38,85,-2,884.447344911
GEMS237,2018_Apr_23_1623,George,EG,spatial_frequency,8,6,19,46-37;40-26;32-38;26-20,2,SimpleHill,40-26,86,15,selected,53-23,54-30;47-23;50-16;52-20;46-20;58-24,58-24,0.36,85,0,888.361064884
GEMS237,2018_Apr_23_1623,George,EG,spatial_frequency,8,6,19,46-37;40-26;32-38;26-20,2,SimpleHill,40-26,86,16,selected,58-24,56-25;60-20;65-23;56-23;58-27;57-30,65-23,0.42,80,-5,892.357032357
GEMS237,2018_Apr_23_1623,George,EG,spatial_frequency,8,6,19,46-37;40-26;32-38;26-20,2,SimpleHill,40-26,86,17,selected,65-23,70-17;66-20;69-23;68-25;68-24;59-24,59-24,3.27,84,4,899.194644849
GEMS237,2018_Apr_23_1623,George,EG,spatial_frequency,8,6,19,46-37;40-26;32-38;26-20,2,SimpleHill,40-26,86,18,selected,59-24,59-23;59-29;56-20;54-20;54-21;57-17,57-17,7.66,77,-7,910.422778117
GEMS237,2018_Apr_23_1623,George,EG,spatial_frequency,8,6,19,46-37;40-26;32-38;26-20,2,SimpleHill,40-26,86,19,selected,57-17,54-16;49-17;61-21;61-19;60-14;53-11,49-17,2.98,78,1,916.975168809
GEMS237,2018_Apr_23_1623,George,EG,spatial_frequency,8,6,19,46-37;40-26;32-38;26-20,2,SimpleHill,40-26,86,20,selected,49-17,52-10;51-15;44-12;46-15;48-17;45-13,48-17,4.54,78,0,925.091119508
GEMS237,2018_Apr_23_1623,George,EG,spatial_frequency,8,6,19,46-37;40-26;32-38;26-20,2,SimpleHill,40-26,86,21,selected,48-17,45-16;43-15;50-12;45-23;52-15;52-19,45-16,6.56,76,-2,935.223442309
GEMS237,2018_Apr_23_1623,George,EG,spatial_frequency,8,6,19,46-37;40-26;32-38;26-20,2,SimpleHill,40-26,86,22,selected,45-16,49-21;51-19;52-18;40-16;50-11;45-17,45-17,5.71,77,1,944.521700845
GEMS237,2018_Apr_23_1623,George,EG,spatial_frequency,8,6,19,46-37;40-26;32-38;26-20,2,SimpleHill,40-26,86,23,selected,45-17,46-12;38-18;46-20;40-12;45-13;45-15,38-18,7.88,76,-1,955.97748596
GEMS237,2018_Apr_23_1623,George,EG,spatial_frequency,8,6,19,46-37;40-26;32-38;26-20,2,SimpleHill,40-26,86,24,selected,38-18,38-25;33-15;43-17;31-17;37-23;42-15,38-25,4.77,84,8,964.349331246
GEMS237,2018_Apr_23_1623,George,EG,spatial_frequency,8,6,19,46-37;40-26;32-38;26-20,2,SimpleHill,40-26,86,25,selected,38-25,40-29;31-23;39-28;37-32;34-21;43-25,43-25,9.43,86,2,977.378553789
GEMS237,2018_Apr_23_1623,George,EG,spatial_frequency,8,6,19,46-37;40-26;32-38;26-20,2,SimpleHill,40-26,86,26,selected,43-25,41-32;45-19;45-24;50-24;46-32;40-29,46-32,3.53,93,7,984.507832188
GEMS237,2018_Apr_23_1623,George,EG,spatial_frequency,8,6,19,46-37;40-26;32-38;26-20,2,SimpleHill,40-26,86,27,selected,46-32,53-33;43-25;50-35;40-27;52-28;43-34,53-33,12.9,94,1,1000.97502605
GEMS237,2018_Apr_23_1623,George,EG,spatial_frequency,8,6,19,46-37;40-26;32-38;26-20,2,SimpleHill,40-26,86,28,selected,53-33,52-27;55-30;57-35;54-30;55-32;61-33,52-27,4.16,89,-5,1008.69047292
GEMS237,2018_Apr_23_1623,George,EG,spatial_frequency,8,6,19,46-37;40-26;32-38;26-20,2,SimpleHill,40-26,86,29,selected,52-27,50-27;54-30;55-29;55-25;58-28;53-28,55-25,9.27,87,-2,1021.54482434
GEMS237,2018_Apr_23_1623,George,EG,spatial_frequency,8,6,19,46-37;40-26;32-38;26-20,2,SimpleHill,40-26,86,30,selected,55-25,55-28;50-21;61-25;50-26;54-31;52-23,54-31,7.61,92,5,1032.71511814
GEMS237,2018_Apr_23_1623,George,EG,spatial_frequency,8,6,19,46-37;40-26;32-38;26-20,2,SimpleHill,40-26,86,31,selected,54-31,50-26;61-33;48-26;59-35;48-34;55-36,48-26,3.42,88,-4,1039.70436014
GEMS237,2018_Apr_23_1623,George,EG,spatial_frequency,8,6,19,46-37;40-26;32-38;26-20,2,SimpleHill,40-26,86,32,selected,48-26,43-21;43-32;43-26;55-26;48-25;46-26,55-26,2.3,87,-1,1045.55922595
GEMS237,2018_Apr_23_1623,George,EG,spatial_frequency,8,6,19,46-37;40-26;32-38;26-20,2,SimpleHill,40-26,86,33,selected,55-26,49-21;52-26;59-27;61-31;56-23;52-27,56-23,3.0,84,-3,1052.1299205
GEMS237,2018_Apr_23_1623,George,EG,spatial_frequency,8,6,19,46-37;40-26;32-38;26-20,2,SimpleHill,40-26,86,34,selected,56-23,54-30;60-22;59-22;52-24;59-26;55-18,54-30,4.12,91,7,1059.81010789
GEMS237,2018_Apr_23_1623,George,EG,spatial_frequency,8,6,19,46-37;40-26;32-38;26-20,2,SimpleHill,40-26,86,35,selected,54-30,48-32;50-26;50-35;60-27;60-29;51-34,50-26,7.81,88,-3,1071.19204282
GEMS237,2018_Apr_23_1623,George,EG,spatial_frequency,8,6,19,46-37;40-26;32-38;26-20,2,SimpleHill,40-26,86,36,selected,50-26,51-30;53-23;49-31;50-28;53-22;55-30,50-28,12.42,90,2,1087.18833358
GEMS237,2018_Apr_23_1623,George,EG,spatial_frequency,8,6,19,46-37;40-26;32-38;26-20,2,SimpleHill,40-26,86,37,selected,50-28,44-25;49-33;50-28;47-22;53-28;51-23,44-25,10.14,86,-4,1100.91286789
GEMS237,2018_Apr_23_1623,George,EG,spatial_frequency,8,6,19,46-37;40-26;32-38;26-20,2,SimpleHill,40-26,86,38,selected,44-25,45-29;51-26;39-19;40-21;50-23;40-25,39-19,5.36,78,-8,1109.81372814
GEMS237,2018_Apr_23_1623,George,EG,spatial_frequency,8,6,19,46-37;40-26;32-38;26-20,2,SimpleHill,40-26,86,39,selected,39-19,37-18;45-21;33-14;38-15;37-22;36-25,36-25,2.84,83,5,1116.23354027
GEMS237,2018_Apr_23_1623,George,EG,spatial_frequency,8,6,19,46-37;40-26;32-38;26-20,3,SimpleHill,32-38,90,0,selected,32-38,35-41;33-41;34-40;37-44;37-39;33-31,35-41,2.12,93,3,1128.25886793
GEMS237,2018_Apr_23_1623,George,EG,spatial_frequency,8,6,19,46-37;40-26;32-38;26-20,3,SimpleHill,32-38,90,1,selected,35-41,33-36;34-41;31-41;41-45;41-41;35-33,35-33,3.07,89,-4,1134.89238387
GEMS237,2018_Apr_23_1623,George,EG,spatial_frequency,8,6,19,46-37;40-26;32-38;26-20,3,SimpleHill,32-38,90,2,selected,35-33,29-33;38-38;33-30;40-29;35-37;31-32,38-38,4.59,94,5,1143.03794699
GEMS237,2018_Apr_23_1623,George,EG,spatial_frequency,8,6,19,46-37;40-26;32-38;26-20,3,SimpleHill,32-38,90,3,selected,38-38,44-42;42-34;35-33;38-41;39-31;39-36,39-31,11.48,90,-4,1158.08559279
GEMS237,2018_Apr_23_1623,George,EG,spatial_frequency,8,6,19,46-37;40-26;32-38;26-20,3,SimpleHill,32-38,90,4,selected,39-31,35-34;42-35;39-32;36-30;44-37;43-26,35-34,3.18,90,0,1164.84978082
GEMS237,2018_Apr_23_1623,George,EG,spatial_frequency,8,6,19,46-37;40-26;32-38;26-20,3,SimpleHill,32-38,90,5,selected,35-34,39-33;40-37;41-31;41-32;35-41;35-40,39-33,3.46,91,1,1171.87840671
GEMS237,2018_Apr_23_1623,George,EG,spatial_frequency,8,6,19,46-37;40-26;32-38;26-20,3,SimpleHill,32-38,90,6,selected,39-33,39-30;46-30;44-36;37-33;33-35;36-31,44-36,6.9,95,4,1182.34272133
GEMS237,2018_Apr_23_1623,George,EG,spatial_frequency,8,6,19,46-37;40-26;32-38;26-20,3,SimpleHill,32-38,90,7,selected,44-36,47-43;39-35;47-41;44-32;50-34;44-42,50-34,4.89,94,-1,1190.81068982
GEMS237,2018_Apr_23_1623,George,EG,spatial_frequency,8,6,19,46-37;40-26;32-38;26-20,3,SimpleHill,32-38,90,8,selected,50-34,46-36;49-31;50-29;47-39;46-40;52-37,49-31,1.83,92,-2,1196.22833909
GEMS237,2018_Apr_23_1623,George,EG,spatial_frequency,8,6,19,46-37;40-26;32-38;26-20,3,SimpleHill,32-38,90,9,selected,49-31,53-28;50-33;53-25;53-35;43-36;48-31,53-28,2.85,90,-2,1202.61579978
GEMS237,2018_Apr_23_1623,George,EG,spatial_frequency,8,6,19,46-37;40-26;32-38;26-20,3,SimpleHill,32-38,90,10,selected,53-28,55-24;49-32;49-29;53-34;56-35;49-27,49-32,5.06,93,3,1211.23553477
GEMS237,2018_Apr_23_1623,George,EG,spatial_frequency,8,6,19,46-37;40-26;32-38;26-20,3,SimpleHill,32-38,90,11,selected,49-32,46-25;48-38;43-27;47-26;46-27;55-36,46-27,4.31,89,-4,1219.11723267
GEMS237,2018_Apr_23_1623,George,EG,spatial_frequency,8,6,19,46-37;40-26;32-38;26-20,3,SimpleHill,32-38,90,12,selected,46-27,51-28;48-21;50-27;49-27;52-29;49-23,51-28,2.91,90,1,1225.58483497
GEMS237,2018_Apr_23_1623,George,EG,spatial_frequency,8,6,19,46-37;40-26;32-38;26-20,3,SimpleHill,32-38,90,13,selected,51-28,44-29;57-23;51-24;46-31;48-26;49-21,46-31,3.47,92,2,1232.62262735
GEMS237,2018_Apr_23_1623,George,EG,spatial_frequency,8,6,19,46-37;40-26;32-38;26-20,3,SimpleHill,32-38,90,14,selected,46-31,52-36;43-36;49-26;41-32;45-34;43-31,49-26,8.9,88,-4,1245.09222703
GEMS237,2018_Apr_23_1623,George,EG,spatial_frequency,8,6,19,46-37;40-26;32-38;26-20,3,SimpleHill,32-38,90,15,selected,49-26,44-20;45-20;56-25;41-26;55-26;49-28,49-28,1.99,90,2,1250.65493879
GEMS237,2018_Apr_23_1623,George,EG,spatial_frequency,8,6,19,46-37;40-26;32-38;26-20,3,SimpleHill,32-38,90,16,selected,49-28,48-22;52-32;48-24;56-28;42-29;41-28,42-29,2.84,89,-1,1257.0776865
GEMS237,2018_Apr_23_1623,George,EG,spatial_frequency,8,6,19,46-37;40-26;32-38;26-20,3,SimpleHill,32-38,90,17,selected,42-29,47-28;39-32;39-23;35-26;42-33;48-27,47-28,0.78,90,1,1261.42741274
GEMS237,2018_Apr_23_1623,George,EG,spatial_frequency,8,6,19,46-37;40-26;32-38;26-20,3,SimpleHill,32-38,90,18,selected,47-28,50-31;47-23;49-32;50-32;54-29;52-24,49-32,1.13,93,3,1266.1109707
GEMS237,2018_Apr_23_1623,George,EG,spatial_frequency,8,6,19,46-37;40-26;32-38;26-20,3,SimpleHill,32-38,90,19,selected,49-32,56-31;44-35;49-35;51-31;47-28;49-29,49-29,2.57,91,-2,1272.228051
GEMS237,2018_Apr_23_1623,George,EG,spatial_frequency,8,6,19,46-37;40-26;32-38;26-20,3,SimpleHill,32-38,90,20,selected,49-29,50-30;49-32;45-26;48-23;48-34;56-29,50-30,6.79,92,1,1282.5749233
GEMS237,2018_Apr_23_1623,George,EG,spatial_frequency,8,6,19,46-37;40-26;32-38;26-20,3,SimpleHill,32-38,90,21,selected,50-30,50-36;54-32;45-34;54-24;43-29;51-29,45-34,2.31,94,2,1288.43190716
GEMS237,2018_Apr_23_1623,George,EG,spatial_frequency,8,6,19,46-37;40-26;32-38;26-20,3,SimpleHill,32-38,90,22,selected,45-34,41-34;53-34;52-31;42-30;45-33;46-37,53-34,3.87,94,0,1295.87434825
GEMS237,2018_Apr_23_1623,George,EG,spatial_frequency,8,6,19,46-37;40-26;32-38;26-20,3,SimpleHill,32-38,90,23,selected,53-34,57-34;49-28;45-34;47-31;52-38;47-30,57-34,3.03,93,-1,1302.47546377
GEMS237,2018_Apr_23_1623,George,EG,spatial_frequency,8,6,19,46-37;40-26;32-38;26-20,3,SimpleHill,32-38,90,24,selected,57-34,51-30;55-38;54-31;61-39;61-38;57-36,57-36,5.18,95,2,1311.22399863
GEMS237,2018_Apr_23_1623,George,EG,spatial_frequency,8,6,19,46-37;40-26;32-38;26-20,3,SimpleHill,32-38,90,25,selected,57-36,59-34;61-36;52-31;55-43;51-31;59-29,59-29,0.5,89,-6,1315.29719167
GEMS237,2018_Apr_23_1623,George,EG,spatial_frequency,8,6,19,46-37;40-26;32-38;26-20,3,SimpleHill,32-38,90,26,selected,59-29,53-29;56-26;66-30;58-22;57-28;58-23,58-23,0.52,84,-5,1319.406769
GEMS237,2018_Apr_23_1623,George,EG,spatial_frequency,8,6,19,46-37;40-26;32-38;26-20,3,SimpleHill,32-38,90,27,selected,58-23,62-18;53-27;55-25;59-26;62-22;55-16,62-18,2.07,76,-8,1325.04445351
GEMS237,2018_Apr_23_1623,George,EG,spatial_frequency,8,6,19,46-37;40-26;32-38;26-20,3,SimpleHill,32-38,90,28,selected,62-18,64-14;62-12;65-22;67-18;61-25;67-22,61-25,1.46,85,9,1330.07446637
GEMS237,2018_Apr_23_1623,George,EG,spatial_frequency,8,6,19,46-37;40-26;32-38;26-20,3,SimpleHill,32-38,90,29,selected,61-25,60-19;57-21;61-23;68-25;58-19;63-26,63-26,1.72,85,0,1335.35762517
GEMS237,2018_Apr_23_1623,George,EG,spatial_frequency,8,6,19,46-37;40-26;32-38;26-20,3,SimpleHill,32-38,90,30,selected,63-26,67-28;66-22;65-25;69-31;68-26;61-23,68-26,2.15,82,-3,1341.08222253
GEMS237,2018_Apr_23_1623,George,EG,spatial_frequency,8,6,19,46-37;40-26;32-38;26-20,3,SimpleHill,32-38,90,31,selected,68-26,62-21;68-31;64-24;65-30;69-20;64-32,69-20,4.41,74,-8,1349.04791276
GEMS237,2018_Apr_23_1623,George,EG,spatial_frequency,8,6,19,46-37;40-26;32-38;26-20,3,SimpleHill,32-38,90,32,selected,69-20,63-16;70-21;63-21;66-27;64-18;69-25,69-25,1.75,80,6,1354.38012993
GEMS237,2018_Apr_23_1623,George,EG,spatial_frequency,8,6,19,46-37;40-26;32-38;26-20,3,SimpleHill,32-38,90,33,selected,69-25,64-30;70-22;69-24;64-19;63-30;66-24,64-30,2.32,88,8,1360.27016272
GEMS237,2018_Apr_23_1623,George,EG,spatial_frequency,8,6,19,46-37;40-26;32-38;26-20,3,SimpleHill,32-38,90,34,selected,64-30,66-36;67-27;60-27;68-24;65-35;64-38,64-38,5.08,93,5,1368.93347898
GEMS237,2018_Apr_23_1623,George,EG,spatial_frequency,8,6,19,46-37;40-26;32-38;26-20,3,SimpleHill,32-38,90,35,selected,64-38,68-35;62-35;63-36;60-35;62-34;63-39,63-39,5.76,94,1,1378.25919506
GEMS237,2018_Apr_23_1623,George,EG,spatial_frequency,8,6,19,46-37;40-26;32-38;26-20,3,SimpleHill,32-38,90,36,selected,63-39,66-39;62-33;69-44;67-35;66-42;56-41,56-41,5.76,97,3,1387.57635155
GEMS237,2018_Apr_23_1623,George,EG,spatial_frequency,8,6,19,46-37;40-26;32-38;26-20,3,SimpleHill,32-38,90,37,selected,56-41,51-41;61-36;52-47;50-42;60-36;57-39,57-39,4.29,96,-1,1395.45737598
GEMS237,2018_Apr_23_1623,George,EG,spatial_frequency,8,6,19,46-37;40-26;32-38;26-20,3,SimpleHill,32-38,90,38,selected,57-39,54-39;63-34;58-33;50-38;58-42;59-44,50-38,2.03,97,1,1401.05656134
GEMS237,2018_Apr_23_1623,George,EG,spatial_frequency,8,6,19,46-37;40-26;32-38;26-20,3,SimpleHill,32-38,90,39,selected,50-38,55-39;55-42;52-36;45-36;56-39;46-36,46-36,5.0,95,-2,1409.62490417
GEMS237,2018_Apr_23_1623,George,EG,spatial_frequency,8,6,19,46-37;40-26;32-38;26-20,4,SimpleHill,26-20,70,0,selected,26-20,33-18;27-15;31-16;30-21;27-18;27-20,27-20,3.58,71,1,1422.40378606
GEMS237,2018_Apr_23_1623,George,EG,spatial_frequency,8,6,19,46-37;40-26;32-38;26-20,4,SimpleHill,26-20,70,1,selected,27-20,31-26;27-20;25-23;20-19;32-20;24-13,31-26,1.2,81,10,1427.17378185
GEMS237,2018_Apr_23_1623,George,EG,spatial_frequency,8,6,19,46-37;40-26;32-38;26-20,4,SimpleHill,26-20,70,2,selected,31-26,31-22;33-27;30-26;36-32;35-21;34-19,36-32,1.58,89,8,1432.31861611
GEMS237,2018_Apr_23_1623,George,EG,spatial_frequency,8,6,19,46-37;40-26;32-38;26-20,4,SimpleHill,26-20,70,3,selected,36-32,40-36;35-36;29-32;33-27;38-37;33-37,29-32,2.87,84,-5,1438.75561018
GEMS237,2018_Apr_23_1623,George,EG,spatial_frequency,8,6,19,46-37;40-26;32-38;26-20,4,SimpleHill,26-20,70,4,selected,29-32,23-36;29-25;25-33;31-30;30-33;24-34,23-36,1.56,81,-3,1443.87785487
GEMS237,2018_Apr_23_1623,George,EG,spatial_frequency,8,6,19,46-37;40-26;32-38;26-20,4,SimpleHill,26-20,70,5,selected,23-36,18-34;22-40;17-37;17-39;26-43;30-39,26-43,0.45,87,6,1447.90352214
GEMS237,2018_Apr_23_1623,George,EG,spatial_frequency,8,6,19,46-37;40-26;32-38;26-20,4,SimpleHill,26-20,70,6,selected,26-43,31-48;21-40;32-48;26-35;33-43;19-44,19-44,1.55,80,-7,1453.00879647
GEMS237,2018_Apr_23_1623,George,EG,spatial_frequency,8,6,19,46-37;40-26;32-38;26-20,4,SimpleHill,26-20,70,7,selected,19-44,20-49;16-51;24-42;22-50;15-38;14-42,14-42,4.29,72,-8,1460.87109995
GEMS237,2018_Apr_23_1623,George,EG,spatial_frequency,8,6,19,46-37;40-26;32-38;26-20,4,SimpleHill,26-20,70,8,selected,14-42,19-41;7-42;18-43;17-46;19-44;7-39,19-41,1.21,79,7,1465.65093603
GEMS237,2018_Apr_23_1623,George,EG,spatial_frequency,8,6,19,46-37;40-26;32-38;26-20,4,SimpleHill,26-20,70,9,selected,19-41,20-44;19-45;20-46;23-36;17-47;17-39,17-39,5.15,75,-4,1474.38378314
GEMS237,2018_Apr_23_1623,George,EG,spatial_frequency,8,6,19,46-37;40-26;32-38;26-20,4,SimpleHill,26-20,70,10,selected,17-39,14-41;22-38;14-42;15-42;23-41;22-45,14-41,6.23,72,-3,1484.17656153
GEMS237,2018_Apr_23_1623,George,EG,spatial_frequency,8,6,19,46-37;40-26;32-38;26-20,4,SimpleHill,26-20,70,11,selected,14-41,17-44;15-44;14-39;12-36;17-36;7-41,17-44,2.32,77,5,1490.05080383
GEMS237,2018_Apr_23_1623,George,EG,spatial_frequency,8,6,19,46-37;40-26;32-38;26-20,4,SimpleHill,26-20,70,12,selected,17-44,11-46;14-39;15-46;20-44;24-45;11-39,15-46,4.88,75,-2,1498.50454868
GEMS237,2018_Apr_23_1623,George,EG,spatial_frequency,8,6,19,46-37;40-26;32-38;26-20,4,SimpleHill,26-20,70,13,selected,15-46,13-46;14-44;8-47;14-50;19-49;14-51,14-51,8.43,74,-1,1510.50520231
GEMS237,2018_Apr_23_1623,George,EG,spatial_frequency,8,6,19,46-37;40-26;32-38;26-20,4,SimpleHill,26-20,70,14,selected,14-51,18-51;7-54;14-45;20-49;8-48;11-47,8-48,1.61,64,-10,1515.68429161
GEMS237,2018_Apr_23_1623,George,EG,spatial_frequency,8,6,19,46-37;40-26;32-38;26-20,4,SimpleHill,26-20,70,15,selected,8-48,9-52;7-55;8-51;11-54;2-48;11-50,11-50,3.03,69,5,1522.30239797
GEMS237,2018_Apr_23_1623,George,EG,spatial_frequency,8,6,19,46-37;40-26;32-38;26-20,4,SimpleHill,26-20,70,16,selected,11-50,9-51;7-50;17-55;11-46;18-50;14-57,14-57,1.9,73,4,1527.76369477
GEMS237,2018_Apr_23_1623,George,EG,spatial_frequency,8,6,19,46-37;40-26;32-38;26-20,4,SimpleHill,26-20,70,17,selected,14-57,14-64;16-56;19-56;11-51;13-57;11-54,14-64,0.93,70,-3,1532.25601686
GEMS237,2018_Apr_23_1623,George,EG,spatial_frequency,8,6,19,46-37;40-26;32-38;26-20,4,SimpleHill,26-20,70,18,selected,14-64,9-60;12-63;19-66;16-66;7-62;19-63,7-62,2.04,60,-10,1537.87743907
GEMS237,2018_Apr_23_1623,George,EG,spatial_frequency,8,6,19,46-37;40-26;32-38;26-20,4,SimpleHill,26-20,70,19,selected,7-62,6-64;0-62;6-63;2-65;1-62;1-60,0-62,3.8,47,-13,1545.23428289
GEMS237,2018_Apr_23_1623,George,EG,spatial_frequency,8,6,19,46-37;40-26;32-38;26-20,4,SimpleHill,26-20,70,20,selected,0-62,7-63;5-65;3-59;7-59;2-57;2-67,2-57,1.51,52,5,1550.31736295
GEMS237,2018_Apr_23_1623,George,EG,spatial_frequency,8,6,19,46-37;40-26;32-38;26-20,4,SimpleHill,26-20,70,21,selected,2-57,0-52;2-51;4-57;8-55;1-54;7-55,0-52,6.06,49,-3,1559.94247358
GEMS237,2018_Apr_23_1623,George,EG,spatial_frequency,8,6,19,46-37;40-26;32-38;26-20,4,SimpleHill,26-20,70,22,selected,0-52,3-54;7-53;6-47;3-55;5-50;3-57,7-53,1.37,62,13,1564.8794883
GEMS237,2018_Apr_23_1623,George,EG,spatial_frequency,8,6,19,46-37;40-26;32-38;26-20,4,SimpleHill,26-20,70,23,selected,7-53,7-48;0-53;4-55;9-58;6-51;2-57,2-57,1.25,52,-10,1569.67986665
GEMS237,2018_Apr_23_1623,George,EG,spatial_frequency,8,6,19,46-37;40-26;32-38;26-20,4,SimpleHill,26-20,70,24,selected,2-57,5-60;0-56;2-49;1-64;7-61;1-58,2-49,1.33,53,1,1574.57770234
GEMS237,2018_Apr_23_1623,George,EG,spatial_frequency,8,6,19,46-37;40-26;32-38;26-20,4,SimpleHill,26-20,70,25,selected,2-49,2-56;2-53;4-50;4-47;7-46;4-43,2-56,0.68,53,0,1578.84658021
GEMS237,2018_Apr_23_1623,George,EG,spatial_frequency,8,6,19,46-37;40-26;32-38;26-20,4,SimpleHill,26-20,70,26,selected,2-56,7-52;7-54;6-58;1-51;7-51;5-60,7-54,0.9,62,9,1583.30794902
GEMS237,2018_Apr_23_1623,George,EG,spatial_frequency,8,6,19,46-37;40-26;32-38;26-20,4,SimpleHill,26-20,70,27,selected,7-54,6-61;7-51;14-57;11-58;6-56;14-51,11-58,0.95,68,6,1587.84077469
GEMS237,2018_Apr_23_1623,George,EG,spatial_frequency,8,6,19,46-37;40-26;32-38;26-20,4,SimpleHill,26-20,70,28,selected,11-58,4-55;8-55;8-65;11-58;12-58;11-53,12-58,0.89,69,1,1592.30075238
GEMS237,2018_Apr_23_1623,George,EG,spatial_frequency,8,6,19,46-37;40-26;32-38;26-20,4,SimpleHill,26-20,70,29,selected,12-58,17-63;18-53;14-52;14-56;15-65;16-54,18-53,1.26,79,10,1597.12931649
GEMS237,2018_Apr_23_1623,George,EG,spatial_frequency,8,6,19,46-37;40-26;32-38;26-20,4,SimpleHill,26-20,70,30,selected,18-53,17-53;20-54;23-52;12-50;19-53;14-47,17-53,1.32,78,-1,1602.02974814
GEMS237,2018_Apr_23_1623,George,EG,spatial_frequency,8,6,19,46-37;40-26;32-38;26-20,4,SimpleHill,26-20,70,31,selected,17-53,17-50;14-58;25-53;18-59;16-46;16-50,16-50,0.32,76,-2,1605.9265973
GEMS237,2018_Apr_23_1623,George,EG,spatial_frequency,8,6,19,46-37;40-26;32-38;26-20,4,SimpleHill,26-20,70,32,selected,16-50,21-48;10-51;15-45;21-56;13-48;14-46,21-56,1.55,82,6,1611.05626333
GEMS237,2018_Apr_23_1623,George,EG,spatial_frequency,8,6,19,46-37;40-26;32-38;26-20,4,SimpleHill,26-20,70,33,selected,21-56,13-56;24-59;27-60;26-51;15-55;18-50,13-56,1.56,71,-11,1616.15074414
GEMS237,2018_Apr_23_1623,George,EG,spatial_frequency,8,6,19,46-37;40-26;32-38;26-20,4,SimpleHill,26-20,70,34,selected,13-56,12-55;12-53;12-63;17-56;14-57;13-59,12-63,1.29,67,-4,1620.99725713
GEMS237,2018_Apr_23_1623,George,EG,spatial_frequency,8,6,19,46-37;40-26;32-38;26-20,4,SimpleHill,26-20,70,35,selected,12-63,10-66;10-69;18-62;5-63;16-68;8-67,8-67,1.36,58,-9,1625.93270659
GEMS237,2018_Apr_23_1623,George,EG,spatial_frequency,8,6,19,46-37;40-26;32-38;26-20,4,SimpleHill,26-20,70,36,selected,8-67,0-67;6-68;11-63;6-62;7-69;5-61,0-67,1.11,44,-14,1630.60099069
GEMS237,2018_Apr_23_1623,George,EG,spatial_frequency,8,6,19,46-37;40-26;32-38;26-20,4,SimpleHill,26-20,70,37,selected,0-67,4-64;5-67;1-63;0-65;2-64;5-70,1-63,2.31,48,4,1636.47914484
GEMS237,2018_Apr_23_1623,George,EG,spatial_frequency,8,6,19,46-37;40-26;32-38;26-20,4,SimpleHill,26-20,70,38,selected,1-63,2-69;5-60;1-70;4-59;0-68;0-62,5-60,1.97,57,9,1642.00844981
GEMS237,2018_Apr_23_1623,George,EG,spatial_frequency,8,6,19,46-37;40-26;32-38;26-20,4,SimpleHill,26-20,70,39,selected,5-60,6-62;4-67;9-61;0-62;4-57;3-63,4-57,1.27,56,-1,1646.8416956
