subj_id,date,computer,experimenter,instructions,sight_radius,n_gabors,start_pos_list_ix,start_pos_list,landscape_ix,landscape_name,starting_pos,starting_score,trial,feedback,pos,stims,selected,rt,score,delta,exp_time
GEMS223,2018_Apr_16_1543,Kramer,EG,orientation,8,6,12,44-9;29-35;28-16;53-17,0,OrientationBias,0-0,0,0,training,0-0,7-3;7-1;5-2;4-3;3-4;0-4,4-3,6.22,15,15,188.229692292
GEMS223,2018_Apr_16_1543,Kramer,EG,orientation,8,6,12,44-9;29-35;28-16;53-17,0,OrientationBias,0-0,0,1,training,4-3,0-6;0-2;4-7;9-8;11-5;12-3,11-5,7.2,39,24,202.881454705
GEMS223,2018_Apr_16_1543,Kramer,EG,orientation,8,6,12,44-9;29-35;28-16;53-17,0,OrientationBias,0-0,0,2,training,11-5,8-0;13-7;5-10;15-8;10-8;6-7,13-7,8.15,45,6,219.183628741
GEMS223,2018_Apr_16_1543,Kramer,EG,orientation,8,6,12,44-9;29-35;28-16;53-17,0,OrientationBias,0-0,0,3,training,13-7,15-6;10-14;14-11;16-1;11-1;18-7,10-14,8.94,36,-9,231.805399768
GEMS223,2018_Apr_16_1543,Kramer,EG,orientation,8,6,12,44-9;29-35;28-16;53-17,0,OrientationBias,0-0,0,4,training,10-14,12-11;12-10;17-14;5-17;12-12;13-15,17-14,3.17,56,20,240.498535737
GEMS223,2018_Apr_16_1543,Kramer,EG,orientation,8,6,12,44-9;29-35;28-16;53-17,0,OrientationBias,0-0,0,5,training,17-14,14-16;11-11;11-14;17-18;12-12;20-11,17-18,2.96,56,0,246.287700094
GEMS223,2018_Apr_16_1543,Kramer,EG,orientation,8,6,12,44-9;29-35;28-16;53-17,0,OrientationBias,0-0,0,6,training,17-18,11-14;18-21;19-17;10-15;9-18;20-23,19-17,8.89,61,5,258.096050795
GEMS223,2018_Apr_16_1543,Kramer,EG,orientation,8,6,12,44-9;29-35;28-16;53-17,0,OrientationBias,0-0,0,7,training,19-17,24-20;24-19;25-13;22-20;17-21;17-16,25-13,6.17,75,14,267.224744622
GEMS223,2018_Apr_16_1543,Kramer,EG,orientation,8,6,12,44-9;29-35;28-16;53-17,0,OrientationBias,0-0,0,8,training,25-13,23-9;31-11;25-14;27-14;24-20;25-7,25-7,4.88,75,0,274.757100052
GEMS223,2018_Apr_16_1543,Kramer,EG,orientation,8,6,12,44-9;29-35;28-16;53-17,0,OrientationBias,0-0,0,9,training,25-7,18-5;29-7;25-12;26-10;22-12;30-7,30-7,5.79,84,9,283.350234964
GEMS223,2018_Apr_16_1543,Kramer,EG,orientation,8,6,12,44-9;29-35;28-16;53-17,0,OrientationBias,0-0,0,10,training,30-7,34-4;37-6;27-5;31-10;25-12;32-5,37-6,6.98,93,9,293.272532511
GEMS223,2018_Apr_16_1543,Kramer,EG,orientation,8,6,12,44-9;29-35;28-16;53-17,0,OrientationBias,0-0,0,11,training,37-6,35-12;31-6;40-10;34-0;37-1;37-5,40-10,11.06,96,3,307.040133197
GEMS223,2018_Apr_16_1543,Kramer,EG,orientation,8,6,12,44-9;29-35;28-16;53-17,0,OrientationBias,0-0,0,12,training,40-10,43-6;40-11;43-12;33-10;42-15;48-10,43-12,2.23,98,2,312.365335007
GEMS223,2018_Apr_16_1543,Kramer,EG,orientation,8,6,12,44-9;29-35;28-16;53-17,0,OrientationBias,0-0,0,13,training,43-12,41-10;37-8;42-18;40-13;41-6;37-7,42-18,11.07,97,-1,326.701918987
GEMS223,2018_Apr_16_1543,Kramer,EG,orientation,8,6,12,44-9;29-35;28-16;53-17,0,OrientationBias,0-0,0,14,training,42-18,42-16;44-12;39-16;40-21;43-20;46-17,40-21,11.55,96,-1,341.700266989
GEMS223,2018_Apr_16_1543,Kramer,EG,orientation,8,6,12,44-9;29-35;28-16;53-17,0,OrientationBias,0-0,0,15,training,40-21,34-26;42-16;41-23;37-19;35-23;36-17,41-23,12.93,96,0,358.930645239
GEMS223,2018_Apr_16_1543,Kramer,EG,orientation,8,6,12,44-9;29-35;28-16;53-17,0,OrientationBias,0-0,0,16,training,41-23,47-20;42-24;46-17;44-16;38-25;34-20,47-20,10.94,99,3,373.056494405
GEMS223,2018_Apr_16_1543,Kramer,EG,orientation,8,6,12,44-9;29-35;28-16;53-17,0,OrientationBias,0-0,0,17,training,47-20,46-21;48-27;45-22;45-26;54-20;49-26,45-26,5.98,99,0,381.989432786
GEMS223,2018_Apr_16_1543,Kramer,EG,orientation,8,6,12,44-9;29-35;28-16;53-17,0,OrientationBias,0-0,0,18,training,45-26,48-33;50-21;51-25;50-24;51-23;42-25,50-24,2.5,100,1,387.618190472
GEMS223,2018_Apr_16_1543,Kramer,EG,orientation,8,6,12,44-9;29-35;28-16;53-17,0,OrientationBias,0-0,0,19,training,50-24,49-29;55-24;49-24;50-27;54-29;43-27,49-24,3.84,99,-1,394.257329078
GEMS223,2018_Apr_16_1543,Kramer,EG,orientation,8,6,12,44-9;29-35;28-16;53-17,0,OrientationBias,0-0,0,20,training,49-24,49-30;48-18;46-22;44-25;53-30;44-21,44-25,3.58,98,-1,401.968980156
GEMS223,2018_Apr_16_1543,Kramer,EG,orientation,8,6,12,44-9;29-35;28-16;53-17,0,OrientationBias,0-0,0,21,training,44-25,40-26;39-28;45-32;48-31;41-28;41-30,48-31,6.03,99,1,411.004545313
GEMS223,2018_Apr_16_1543,Kramer,EG,orientation,8,6,12,44-9;29-35;28-16;53-17,0,OrientationBias,0-0,0,22,training,48-31,49-28;47-25;52-31;54-36;47-29;47-26,52-31,7.25,99,0,420.70421373
GEMS223,2018_Apr_16_1543,Kramer,EG,orientation,8,6,12,44-9;29-35;28-16;53-17,0,OrientationBias,0-0,0,23,training,52-31,51-35;44-31;57-27;50-34;56-34;53-27,57-27,5.85,98,-1,429.151156318
GEMS223,2018_Apr_16_1543,Kramer,EG,orientation,8,6,12,44-9;29-35;28-16;53-17,0,OrientationBias,0-0,0,24,training,57-27,63-24;63-23;58-34;56-32;63-27;57-24,57-24,8.14,98,0,441.059224153
GEMS223,2018_Apr_16_1543,Kramer,EG,orientation,8,6,12,44-9;29-35;28-16;53-17,0,OrientationBias,0-0,0,25,training,57-24,52-23;60-18;61-21;62-20;59-24;56-25,52-23,5.21,99,1,449.336679047
GEMS223,2018_Apr_16_1543,Kramer,EG,orientation,8,6,12,44-9;29-35;28-16;53-17,0,OrientationBias,0-0,0,26,training,52-23,58-22;59-20;57-29;56-24;46-19;56-25,58-22,3.07,97,-2,455.181224207
GEMS223,2018_Apr_16_1543,Kramer,EG,orientation,8,6,12,44-9;29-35;28-16;53-17,0,OrientationBias,0-0,0,27,training,58-22,54-20;55-16;60-19;56-19;58-23;60-21,54-20,2.84,99,2,461.090256801
GEMS223,2018_Apr_16_1543,Kramer,EG,orientation,8,6,12,44-9;29-35;28-16;53-17,0,OrientationBias,0-0,0,28,training,54-20,51-25;60-21;47-18;50-25;55-22;49-19,49-19,4.99,99,0,468.472504535
GEMS223,2018_Apr_16_1543,Kramer,EG,orientation,8,6,12,44-9;29-35;28-16;53-17,0,OrientationBias,0-0,0,29,training,49-19,49-16;55-17;46-24;53-19;45-13;51-26,46-24,8.67,99,0,480.84388801
GEMS223,2018_Apr_16_1543,Kramer,EG,orientation,8,6,12,44-9;29-35;28-16;53-17,1,SimpleHill,44-9,65,0,selected,44-9,42-2;44-12;37-10;46-4;39-15;49-13,46-4,5.8,57,-8,508.755317456
GEMS223,2018_Apr_16_1543,Kramer,EG,orientation,8,6,12,44-9;29-35;28-16;53-17,1,SimpleHill,44-9,65,1,selected,46-4,39-6;46-8;49-7;42-2;44-3;51-9,49-7,5.98,63,6,518.317626821
GEMS223,2018_Apr_16_1543,Kramer,EG,orientation,8,6,12,44-9;29-35;28-16;53-17,1,SimpleHill,44-9,65,2,selected,49-7,46-14;42-9;45-3;54-7;54-10;51-2,42-9,3.52,65,2,525.406484498
GEMS223,2018_Apr_16_1543,Kramer,EG,orientation,8,6,12,44-9;29-35;28-16;53-17,1,SimpleHill,44-9,65,3,selected,42-9,39-8;37-10;39-16;43-3;44-9;44-7,39-16,6.62,74,9,535.596278221
GEMS223,2018_Apr_16_1543,Kramer,EG,orientation,8,6,12,44-9;29-35;28-16;53-17,1,SimpleHill,44-9,65,4,selected,39-16,44-15;46-17;40-15;38-22;44-17;46-16,46-17,2.16,77,3,541.30478215
GEMS223,2018_Apr_16_1543,Kramer,EG,orientation,8,6,12,44-9;29-35;28-16;53-17,1,SimpleHill,44-9,65,5,selected,46-17,41-14;39-17;51-14;42-11;42-23;44-24,42-11,3.02,68,-9,547.898005408
GEMS223,2018_Apr_16_1543,Kramer,EG,orientation,8,6,12,44-9;29-35;28-16;53-17,1,SimpleHill,44-9,65,6,selected,42-11,37-16;37-10;45-17;40-6;38-8;41-9,45-17,2.9,77,9,554.356482209
GEMS223,2018_Apr_16_1543,Kramer,EG,orientation,8,6,12,44-9;29-35;28-16;53-17,1,SimpleHill,44-9,65,7,selected,45-17,42-24;39-22;48-20;46-21;41-19;38-20,48-20,2.35,81,4,560.271924015
GEMS223,2018_Apr_16_1543,Kramer,EG,orientation,8,6,12,44-9;29-35;28-16;53-17,1,SimpleHill,44-9,65,8,selected,48-20,46-23;44-21;49-27;46-20;48-16;51-25,46-20,1.15,81,0,565.0074047
GEMS223,2018_Apr_16_1543,Kramer,EG,orientation,8,6,12,44-9;29-35;28-16;53-17,1,SimpleHill,44-9,65,9,selected,46-20,49-13;51-23;50-14;43-25;45-17;46-22,50-14,1.06,74,-7,569.644938361
GEMS223,2018_Apr_16_1543,Kramer,EG,orientation,8,6,12,44-9;29-35;28-16;53-17,1,SimpleHill,44-9,65,10,selected,50-14,50-9;49-21;51-14;45-11;44-10;45-16,51-14,3.07,74,0,576.272261073
GEMS223,2018_Apr_16_1543,Kramer,EG,orientation,8,6,12,44-9;29-35;28-16;53-17,1,SimpleHill,44-9,65,11,selected,51-14,54-12;51-6;45-16;50-7;48-8;56-13,51-6,0.72,61,-13,580.561909249
GEMS223,2018_Apr_16_1543,Kramer,EG,orientation,8,6,12,44-9;29-35;28-16;53-17,1,SimpleHill,44-9,65,12,selected,51-6,46-12;44-6;45-10;55-9;58-9;50-11,45-10,1.38,67,6,585.499823469
GEMS223,2018_Apr_16_1543,Kramer,EG,orientation,8,6,12,44-9;29-35;28-16;53-17,1,SimpleHill,44-9,65,13,selected,45-10,44-12;43-3;45-13;49-8;52-7;51-12,49-8,1.1,64,-3,590.161363428
GEMS223,2018_Apr_16_1543,Kramer,EG,orientation,8,6,12,44-9;29-35;28-16;53-17,1,SimpleHill,44-9,65,14,selected,49-8,53-11;48-8;47-3;51-4;45-3;45-14,45-14,3.33,73,9,597.046183265
GEMS223,2018_Apr_16_1543,Kramer,EG,orientation,8,6,12,44-9;29-35;28-16;53-17,1,SimpleHill,44-9,65,15,selected,45-14,48-12;51-12;44-12;51-11;40-13;46-21,44-12,2.17,70,-3,602.775589234
GEMS223,2018_Apr_16_1543,Kramer,EG,orientation,8,6,12,44-9;29-35;28-16;53-17,1,SimpleHill,44-9,65,16,selected,44-12,46-13;51-15;50-13;39-15;39-16;51-13,39-16,4.03,74,4,610.38728663
GEMS223,2018_Apr_16_1543,Kramer,EG,orientation,8,6,12,44-9;29-35;28-16;53-17,1,SimpleHill,44-9,65,17,selected,39-16,38-23;46-13;44-18;41-14;40-17;33-15,41-14,5.61,72,-2,619.556942374
GEMS223,2018_Apr_16_1543,Kramer,EG,orientation,8,6,12,44-9;29-35;28-16;53-17,1,SimpleHill,44-9,65,18,selected,41-14,35-9;34-16;45-14;48-16;42-17;48-11,48-16,4.61,76,4,627.730711946
GEMS223,2018_Apr_16_1543,Kramer,EG,orientation,8,6,12,44-9;29-35;28-16;53-17,1,SimpleHill,44-9,65,19,selected,48-16,51-19;43-12;51-23;42-18;45-10;44-21,51-23,2.25,85,9,633.551799768
GEMS223,2018_Apr_16_1543,Kramer,EG,orientation,8,6,12,44-9;29-35;28-16;53-17,1,SimpleHill,44-9,65,20,selected,51-23,52-16;57-18;48-30;49-17;45-23;52-26,52-26,2.79,88,3,639.925671642
GEMS223,2018_Apr_16_1543,Kramer,EG,orientation,8,6,12,44-9;29-35;28-16;53-17,1,SimpleHill,44-9,65,21,selected,52-26,50-21;52-18;56-24;52-26;52-20;51-30,56-24,2.55,85,-3,646.043173115
GEMS223,2018_Apr_16_1543,Kramer,EG,orientation,8,6,12,44-9;29-35;28-16;53-17,1,SimpleHill,44-9,65,22,selected,56-24,55-28;63-23;57-19;60-19;57-26;49-24,49-24,1.9,86,1,651.523055782
GEMS223,2018_Apr_16_1543,Kramer,EG,orientation,8,6,12,44-9;29-35;28-16;53-17,1,SimpleHill,44-9,65,23,selected,49-24,48-29;48-31;43-23;52-30;54-23;56-25,43-23,1.09,84,-2,656.171745948
GEMS223,2018_Apr_16_1543,Kramer,EG,orientation,8,6,12,44-9;29-35;28-16;53-17,1,SimpleHill,44-9,65,24,selected,43-23,39-25;39-28;48-26;41-24;45-17;49-24,48-26,1.88,88,4,661.627573023
GEMS223,2018_Apr_16_1543,Kramer,EG,orientation,8,6,12,44-9;29-35;28-16;53-17,1,SimpleHill,44-9,65,25,selected,48-26,50-25;46-24;50-26;48-27;54-23;54-29,50-26,4.86,88,0,670.069517688
GEMS223,2018_Apr_16_1543,Kramer,EG,orientation,8,6,12,44-9;29-35;28-16;53-17,1,SimpleHill,44-9,65,26,selected,50-26,54-21;57-29;49-31;46-26;45-26;56-22,56-22,2.18,83,-5,675.812645062
GEMS223,2018_Apr_16_1543,Kramer,EG,orientation,8,6,12,44-9;29-35;28-16;53-17,1,SimpleHill,44-9,65,27,selected,56-22,53-25;53-29;50-25;61-22;50-23;53-23,50-23,5.79,85,2,685.175185982
GEMS223,2018_Apr_16_1543,Kramer,EG,orientation,8,6,12,44-9;29-35;28-16;53-17,1,SimpleHill,44-9,65,28,selected,50-23,55-18;53-30;53-25;57-22;45-25;45-19,45-25,3.1,87,2,691.829647735
GEMS223,2018_Apr_16_1543,Kramer,EG,orientation,8,6,12,44-9;29-35;28-16;53-17,1,SimpleHill,44-9,65,29,selected,45-25,45-20;47-22;49-20;49-19;45-19;50-20,49-20,1.52,81,-6,696.927560508
GEMS223,2018_Apr_16_1543,Kramer,EG,orientation,8,6,12,44-9;29-35;28-16;53-17,1,SimpleHill,44-9,65,30,selected,49-20,56-23;44-21;52-15;44-22;50-25;54-25,50-25,1.19,87,6,701.681293827
GEMS223,2018_Apr_16_1543,Kramer,EG,orientation,8,6,12,44-9;29-35;28-16;53-17,1,SimpleHill,44-9,65,31,selected,50-25,56-30;53-21;50-23;46-22;50-24;53-22,50-23,3.16,85,-2,708.410316645
GEMS223,2018_Apr_16_1543,Kramer,EG,orientation,8,6,12,44-9;29-35;28-16;53-17,1,SimpleHill,44-9,65,32,selected,50-23,45-28;46-22;43-24;52-23;48-24;51-27,48-24,1.43,86,1,713.411368469
GEMS223,2018_Apr_16_1543,Kramer,EG,orientation,8,6,12,44-9;29-35;28-16;53-17,1,SimpleHill,44-9,65,33,selected,48-24,45-30;53-18;44-23;45-18;43-26;41-25,53-18,3.59,79,-7,720.561372454
GEMS223,2018_Apr_16_1543,Kramer,EG,orientation,8,6,12,44-9;29-35;28-16;53-17,1,SimpleHill,44-9,65,34,selected,53-18,58-16;49-17;48-23;59-21;55-23;53-24,55-23,0.27,84,5,724.400457796
GEMS223,2018_Apr_16_1543,Kramer,EG,orientation,8,6,12,44-9;29-35;28-16;53-17,1,SimpleHill,44-9,65,35,selected,55-23,57-20;58-27;50-26;60-22;54-25;54-20,54-25,0.8,87,3,728.780550028
GEMS223,2018_Apr_16_1543,Kramer,EG,orientation,8,6,12,44-9;29-35;28-16;53-17,1,SimpleHill,44-9,65,36,selected,54-25,58-26;48-27;59-29;57-23;50-31;53-27,53-27,1.95,89,2,734.301201275
GEMS223,2018_Apr_16_1543,Kramer,EG,orientation,8,6,12,44-9;29-35;28-16;53-17,1,SimpleHill,44-9,65,37,selected,53-27,54-28;53-22;49-26;49-30;52-32;55-27,52-32,1.0,93,4,738.883957188
GEMS223,2018_Apr_16_1543,Kramer,EG,orientation,8,6,12,44-9;29-35;28-16;53-17,1,SimpleHill,44-9,65,38,selected,52-32,56-31;57-34;50-39;47-28;55-25;55-35,55-25,0.98,87,-6,743.431737555
GEMS223,2018_Apr_16_1543,Kramer,EG,orientation,8,6,12,44-9;29-35;28-16;53-17,1,SimpleHill,44-9,65,39,selected,55-25,53-31;54-19;54-20;56-27;58-24;58-27,53-31,2.44,92,5,749.450669425
GEMS223,2018_Apr_16_1543,Kramer,EG,orientation,8,6,12,44-9;29-35;28-16;53-17,2,SimpleHill,29-35,86,0,selected,29-35,22-34;35-38;25-35;30-34;22-35;31-30,31-30,7.45,84,-2,787.674013643
GEMS223,2018_Apr_16_1543,Kramer,EG,orientation,8,6,12,44-9;29-35;28-16;53-17,2,SimpleHill,29-35,86,1,selected,31-30,29-29;38-31;26-34;32-26;33-28;32-35,32-26,3.95,82,-2,795.188336982
GEMS223,2018_Apr_16_1543,Kramer,EG,orientation,8,6,12,44-9;29-35;28-16;53-17,2,SimpleHill,29-35,86,2,selected,32-26,27-21;35-19;34-20;39-25;33-31;36-22,39-25,1.31,85,3,800.050529161
GEMS223,2018_Apr_16_1543,Kramer,EG,orientation,8,6,12,44-9;29-35;28-16;53-17,2,SimpleHill,29-35,86,3,selected,39-25,33-23;43-27;39-17;38-30;35-26;34-26,38-30,1.23,89,4,804.824060521
GEMS223,2018_Apr_16_1543,Kramer,EG,orientation,8,6,12,44-9;29-35;28-16;53-17,2,SimpleHill,29-35,86,4,selected,38-30,41-31;41-27;42-35;41-25;38-23;40-28,41-25,1.49,85,-4,809.893249793
GEMS223,2018_Apr_16_1543,Kramer,EG,orientation,8,6,12,44-9;29-35;28-16;53-17,2,SimpleHill,29-35,86,5,selected,41-25,44-28;38-19;42-21;43-29;35-30;44-18,44-18,0.92,78,-7,814.371037775
GEMS223,2018_Apr_16_1543,Kramer,EG,orientation,8,6,12,44-9;29-35;28-16;53-17,2,SimpleHill,29-35,86,6,selected,44-18,49-20;43-18;50-14;44-25;52-18;44-13,44-25,1.35,86,8,819.274666568
GEMS223,2018_Apr_16_1543,Kramer,EG,orientation,8,6,12,44-9;29-35;28-16;53-17,2,SimpleHill,29-35,86,7,selected,44-25,48-29;48-20;49-25;43-24;49-19;40-30,49-19,0.64,80,-6,823.460384873
GEMS223,2018_Apr_16_1543,Kramer,EG,orientation,8,6,12,44-9;29-35;28-16;53-17,2,SimpleHill,29-35,86,8,selected,49-19,49-11;56-16;48-12;50-21;44-15;48-13,50-21,0.23,83,3,827.251632072
GEMS223,2018_Apr_16_1543,Kramer,EG,orientation,8,6,12,44-9;29-35;28-16;53-17,2,SimpleHill,29-35,86,9,selected,50-21,51-18;48-27;45-21;50-26;50-14;50-22,45-21,1.19,82,-1,832.012454799
GEMS223,2018_Apr_16_1543,Kramer,EG,orientation,8,6,12,44-9;29-35;28-16;53-17,2,SimpleHill,29-35,86,10,selected,45-21,39-17;48-27;46-23;51-20;49-22;43-21,51-20,0.32,81,-1,835.905463563
GEMS223,2018_Apr_16_1543,Kramer,EG,orientation,8,6,12,44-9;29-35;28-16;53-17,2,SimpleHill,29-35,86,11,selected,51-20,56-15;57-16;49-26;46-24;54-22;50-21,54-22,1.22,84,3,840.680035223
GEMS223,2018_Apr_16_1543,Kramer,EG,orientation,8,6,12,44-9;29-35;28-16;53-17,2,SimpleHill,29-35,86,12,selected,54-22,51-16;52-15;48-23;57-19;53-28;55-23,53-28,1.92,90,6,846.18331313
GEMS223,2018_Apr_16_1543,Kramer,EG,orientation,8,6,12,44-9;29-35;28-16;53-17,2,SimpleHill,29-35,86,13,selected,53-28,57-32;53-27;49-30;54-24;56-29;58-24,54-24,2.34,86,-4,852.086946084
GEMS223,2018_Apr_16_1543,Kramer,EG,orientation,8,6,12,44-9;29-35;28-16;53-17,2,SimpleHill,29-35,86,14,selected,54-24,53-28;60-23;51-26;59-30;53-21;56-27,53-21,2.3,83,-3,857.964039849
GEMS223,2018_Apr_16_1543,Kramer,EG,orientation,8,6,12,44-9;29-35;28-16;53-17,2,SimpleHill,29-35,86,15,selected,53-21,56-14;50-16;49-24;47-20;47-17;52-20,47-20,2.4,81,-2,863.950033242
GEMS223,2018_Apr_16_1543,Kramer,EG,orientation,8,6,12,44-9;29-35;28-16;53-17,2,SimpleHill,29-35,86,16,selected,47-20,44-26;46-14;49-24;47-12;44-14;48-23,44-14,0.79,73,-8,868.304497268
GEMS223,2018_Apr_16_1543,Kramer,EG,orientation,8,6,12,44-9;29-35;28-16;53-17,2,SimpleHill,29-35,86,17,selected,44-14,39-8;44-13;50-14;41-14;41-8;51-13,41-14,1.6,72,-1,873.487779669
GEMS223,2018_Apr_16_1543,Kramer,EG,orientation,8,6,12,44-9;29-35;28-16;53-17,2,SimpleHill,29-35,86,18,selected,41-14,38-15;37-16;39-10;37-19;42-7;35-10,37-19,1.08,77,5,878.136369005
GEMS223,2018_Apr_16_1543,Kramer,EG,orientation,8,6,12,44-9;29-35;28-16;53-17,2,SimpleHill,29-35,86,19,selected,37-19,32-14;33-22;43-19;32-17;37-18;32-19,43-19,5.1,79,2,886.793681182
GEMS223,2018_Apr_16_1543,Kramer,EG,orientation,8,6,12,44-9;29-35;28-16;53-17,2,SimpleHill,29-35,86,20,selected,43-19,37-21;43-11;40-19;39-16;50-18;37-14,50-18,2.83,79,0,893.200087897
GEMS223,2018_Apr_16_1543,Kramer,EG,orientation,8,6,12,44-9;29-35;28-16;53-17,2,SimpleHill,29-35,86,21,selected,50-18,55-21;48-17;56-13;43-21;47-11;49-18,47-11,3.26,69,-10,900.039857917
GEMS223,2018_Apr_16_1543,Kramer,EG,orientation,8,6,12,44-9;29-35;28-16;53-17,2,SimpleHill,29-35,86,22,selected,47-11,42-9;41-15;46-4;52-14;51-15;44-12,52-14,0.92,74,5,904.525179916
GEMS223,2018_Apr_16_1543,Kramer,EG,orientation,8,6,12,44-9;29-35;28-16;53-17,2,SimpleHill,29-35,86,23,selected,52-14,52-9;50-9;56-8;55-13;47-15;50-12,55-13,0.67,72,-2,908.773478544
GEMS223,2018_Apr_16_1543,Kramer,EG,orientation,8,6,12,44-9;29-35;28-16;53-17,2,SimpleHill,29-35,86,24,selected,55-13,55-19;51-7;60-13;50-19;62-11;60-18,50-19,1.89,80,8,914.225111448
GEMS223,2018_Apr_16_1543,Kramer,EG,orientation,8,6,12,44-9;29-35;28-16;53-17,2,SimpleHill,29-35,86,25,selected,50-19,49-15;52-14;49-14;45-15;46-13;51-12,45-15,2.22,75,-5,920.016794933
GEMS223,2018_Apr_16_1543,Kramer,EG,orientation,8,6,12,44-9;29-35;28-16;53-17,2,SimpleHill,29-35,86,26,selected,45-15,44-11;47-11;51-14;48-21;50-9;45-22,45-22,4.12,83,8,927.695912451
GEMS223,2018_Apr_16_1543,Kramer,EG,orientation,8,6,12,44-9;29-35;28-16;53-17,2,SimpleHill,29-35,86,27,selected,45-22,45-30;44-17;48-29;43-15;47-16;38-25,38-25,1.37,84,1,932.649285538
GEMS223,2018_Apr_16_1543,Kramer,EG,orientation,8,6,12,44-9;29-35;28-16;53-17,2,SimpleHill,29-35,86,28,selected,38-25,43-31;33-21;35-24;37-21;35-30;41-29,37-21,2.97,79,-5,939.190529936
GEMS223,2018_Apr_16_1543,Kramer,EG,orientation,8,6,12,44-9;29-35;28-16;53-17,2,SimpleHill,29-35,86,29,selected,37-21,35-27;39-21;38-14;32-26;36-25;36-21,36-21,0.67,79,0,943.429163051
GEMS223,2018_Apr_16_1543,Kramer,EG,orientation,8,6,12,44-9;29-35;28-16;53-17,2,SimpleHill,29-35,86,30,selected,36-21,32-26;29-22;35-23;42-26;41-23;32-16,32-16,3.85,70,-9,950.833015428
GEMS223,2018_Apr_16_1543,Kramer,EG,orientation,8,6,12,44-9;29-35;28-16;53-17,2,SimpleHill,29-35,86,31,selected,32-16,35-16;39-18;34-18;26-12;30-21;37-18,30-21,0.8,75,5,955.186873519
GEMS223,2018_Apr_16_1543,Kramer,EG,orientation,8,6,12,44-9;29-35;28-16;53-17,2,SimpleHill,29-35,86,32,selected,30-21,24-17;25-18;30-17;26-17;29-23;38-21,26-17,0.81,66,-9,959.557905852
GEMS223,2018_Apr_16_1543,Kramer,EG,orientation,8,6,12,44-9;29-35;28-16;53-17,2,SimpleHill,29-35,86,33,selected,26-17,29-16;25-11;29-22;22-18;19-15;21-22,22-18,2.83,63,-3,965.973609654
GEMS223,2018_Apr_16_1543,Kramer,EG,orientation,8,6,12,44-9;29-35;28-16;53-17,2,SimpleHill,29-35,86,34,selected,22-18,17-13;25-12;26-22;21-25;20-23;29-19,29-19,2.12,71,8,971.659515694
GEMS223,2018_Apr_16_1543,Kramer,EG,orientation,8,6,12,44-9;29-35;28-16;53-17,2,SimpleHill,29-35,86,35,selected,29-19,31-19;30-22;35-20;22-16;25-18;35-14,35-20,1.58,77,6,976.78657993
GEMS223,2018_Apr_16_1543,Kramer,EG,orientation,8,6,12,44-9;29-35;28-16;53-17,2,SimpleHill,29-35,86,36,selected,35-20,33-17;32-17;38-17;31-16;41-19;31-19,31-16,3.61,69,-8,983.950737125
GEMS223,2018_Apr_16_1543,Kramer,EG,orientation,8,6,12,44-9;29-35;28-16;53-17,2,SimpleHill,29-35,86,37,selected,31-16,32-14;28-18;38-16;26-22;30-17;27-14,38-16,0.66,74,5,988.176214439
GEMS223,2018_Apr_16_1543,Kramer,EG,orientation,8,6,12,44-9;29-35;28-16;53-17,2,SimpleHill,29-35,86,38,selected,38-16,37-13;32-20;39-17;41-21;39-20;40-14,41-21,2.21,81,7,993.950350453
GEMS223,2018_Apr_16_1543,Kramer,EG,orientation,8,6,12,44-9;29-35;28-16;53-17,2,SimpleHill,29-35,86,39,selected,41-21,37-26;41-17;44-25;47-24;35-22;45-26,47-24,2.22,86,5,999.725167945
GEMS223,2018_Apr_16_1543,Kramer,EG,orientation,8,6,12,44-9;29-35;28-16;53-17,3,SimpleHill,28-16,67,0,selected,28-16,31-13;22-21;25-13;23-13;25-18;22-14,31-13,3.07,65,-2,1012.69000578
GEMS223,2018_Apr_16_1543,Kramer,EG,orientation,8,6,12,44-9;29-35;28-16;53-17,3,SimpleHill,28-16,67,1,selected,31-13,26-9;31-6;32-16;27-14;24-10;37-9,37-9,1.23,63,-2,1017.49215629
GEMS223,2018_Apr_16_1543,Kramer,EG,orientation,8,6,12,44-9;29-35;28-16;53-17,3,SimpleHill,28-16,67,2,selected,37-9,35-3;44-10;35-10;37-17;31-10;39-8,37-17,1.83,74,11,1022.90644529
GEMS223,2018_Apr_16_1543,Kramer,EG,orientation,8,6,12,44-9;29-35;28-16;53-17,3,SimpleHill,28-16,67,3,selected,37-17,31-19;40-16;37-15;30-20;39-17;38-18,39-17,4.51,75,1,1030.97705097
GEMS223,2018_Apr_16_1543,Kramer,EG,orientation,8,6,12,44-9;29-35;28-16;53-17,3,SimpleHill,28-16,67,4,selected,39-17,45-21;39-13;40-14;32-17;37-18;32-20,40-14,0.71,72,-3,1035.25565467
GEMS223,2018_Apr_16_1543,Kramer,EG,orientation,8,6,12,44-9;29-35;28-16;53-17,3,SimpleHill,28-16,67,5,selected,40-14,47-17;44-15;42-12;44-17;42-10;45-9,42-10,2.38,66,-6,1041.22080268
GEMS223,2018_Apr_16_1543,Kramer,EG,orientation,8,6,12,44-9;29-35;28-16;53-17,3,SimpleHill,28-16,67,6,selected,42-10,43-8;44-8;36-6;44-17;35-7;38-13,43-8,2.6,63,-3,1047.39436868
GEMS223,2018_Apr_16_1543,Kramer,EG,orientation,8,6,12,44-9;29-35;28-16;53-17,3,SimpleHill,28-16,67,7,selected,43-8,42-8;38-2;41-1;38-9;44-9;47-6,38-9,3.6,63,0,1054.55486017
GEMS223,2018_Apr_16_1543,Kramer,EG,orientation,8,6,12,44-9;29-35;28-16;53-17,3,SimpleHill,28-16,67,8,selected,38-9,45-6;32-9;45-9;34-11;41-4;45-12,41-4,1.35,56,-7,1059.4764708
GEMS223,2018_Apr_16_1543,Kramer,EG,orientation,8,6,12,44-9;29-35;28-16;53-17,3,SimpleHill,28-16,67,9,selected,41-4,44-5;44-10;35-2;40-9;45-6;48-2,44-5,1.33,58,2,1064.36623383
GEMS223,2018_Apr_16_1543,Kramer,EG,orientation,8,6,12,44-9;29-35;28-16;53-17,3,SimpleHill,28-16,67,10,selected,44-5,50-3;47-10;43-8;40-3;49-9;45-12,40-3,0.64,53,-5,1068.55465403
GEMS223,2018_Apr_16_1543,Kramer,EG,orientation,8,6,12,44-9;29-35;28-16;53-17,3,SimpleHill,28-16,67,11,selected,40-3,44-7;35-6;37-1;42-2;41-3;34-8,42-2,2.29,52,-1,1074.43687856
GEMS223,2018_Apr_16_1543,Kramer,EG,orientation,8,6,12,44-9;29-35;28-16;53-17,3,SimpleHill,28-16,67,12,selected,42-2,49-5;41-0;48-0;36-1;40-4;46-7,48-0,0.83,49,-3,1078.84048959
GEMS223,2018_Apr_16_1543,Kramer,EG,orientation,8,6,12,44-9;29-35;28-16;53-17,3,SimpleHill,28-16,67,13,selected,48-0,45-1;52-0;48-1;47-0;54-2;47-3,47-0,0.88,49,0,1083.27052009
GEMS223,2018_Apr_16_1543,Kramer,EG,orientation,8,6,12,44-9;29-35;28-16;53-17,3,SimpleHill,28-16,67,14,selected,47-0,52-3;49-4;44-1;44-2;51-1;44-5,44-2,0.64,53,4,1087.46189987
GEMS223,2018_Apr_16_1543,Kramer,EG,orientation,8,6,12,44-9;29-35;28-16;53-17,3,SimpleHill,28-16,67,15,selected,44-2,42-3;44-9;43-5;44-7;37-2;40-3,44-7,0.39,62,9,1091.41909358
GEMS223,2018_Apr_16_1543,Kramer,EG,orientation,8,6,12,44-9;29-35;28-16;53-17,3,SimpleHill,28-16,67,16,selected,44-7,49-3;38-3;40-12;45-10;44-6;38-8,45-10,0.18,67,5,1095.15800566
GEMS223,2018_Apr_16_1543,Kramer,EG,orientation,8,6,12,44-9;29-35;28-16;53-17,3,SimpleHill,28-16,67,17,selected,45-10,41-13;37-10;47-4;51-14;49-16;40-14,51-14,0.23,74,7,1098.95874168
GEMS223,2018_Apr_16_1543,Kramer,EG,orientation,8,6,12,44-9;29-35;28-16;53-17,3,SimpleHill,28-16,67,18,selected,51-14,53-14;47-15;51-20;58-15;48-9;57-9,58-15,0.18,74,0,1102.70323617
GEMS223,2018_Apr_16_1543,Kramer,EG,orientation,8,6,12,44-9;29-35;28-16;53-17,3,SimpleHill,28-16,67,19,selected,58-15,60-18;59-12;61-15;56-8;53-16;57-13,56-8,0.33,64,-10,1106.8477416
GEMS223,2018_Apr_16_1543,Kramer,EG,orientation,8,6,12,44-9;29-35;28-16;53-17,3,SimpleHill,28-16,67,20,selected,56-8,50-12;50-9;51-5;52-7;61-4;55-10,52-7,0.18,62,-2,1110.60444314
GEMS223,2018_Apr_16_1543,Kramer,EG,orientation,8,6,12,44-9;29-35;28-16;53-17,3,SimpleHill,28-16,67,21,selected,52-7,52-0;56-5;54-3;56-2;53-11;52-11,56-2,0.18,53,-9,1114.35347174
GEMS223,2018_Apr_16_1543,Kramer,EG,orientation,8,6,12,44-9;29-35;28-16;53-17,3,SimpleHill,28-16,67,22,selected,56-2,63-3;63-5;53-4;64-2;58-7;49-1,64-2,0.45,50,-3,1118.36556835
GEMS223,2018_Apr_16_1543,Kramer,EG,orientation,8,6,12,44-9;29-35;28-16;53-17,3,SimpleHill,28-16,67,23,selected,64-2,58-4;68-3;68-1;67-3;62-7;60-4,60-4,1.42,55,5,1123.35954581
GEMS223,2018_Apr_16_1543,Kramer,EG,orientation,8,6,12,44-9;29-35;28-16;53-17,3,SimpleHill,28-16,67,24,selected,60-4,54-0;66-6;62-4;66-1;60-8;67-3,67-3,0.33,50,-5,1127.25801536
GEMS223,2018_Apr_16_1543,Kramer,EG,orientation,8,6,12,44-9;29-35;28-16;53-17,3,SimpleHill,28-16,67,25,selected,67-3,66-7;65-9;66-10;69-2;66-9;64-1,64-1,1.35,48,-2,1132.18997522
GEMS223,2018_Apr_16_1543,Kramer,EG,orientation,8,6,12,44-9;29-35;28-16;53-17,3,SimpleHill,28-16,67,26,selected,64-1,67-7;59-0;64-8;64-1;64-9;64-3,64-3,3.23,51,3,1138.99997855
GEMS223,2018_Apr_16_1543,Kramer,EG,orientation,8,6,12,44-9;29-35;28-16;53-17,3,SimpleHill,28-16,67,27,selected,64-3,68-8;59-1;65-2;67-10;60-3;59-7,59-7,2.32,61,10,1144.88407978
GEMS223,2018_Apr_16_1543,Kramer,EG,orientation,8,6,12,44-9;29-35;28-16;53-17,3,SimpleHill,28-16,67,28,selected,59-7,53-6;57-7;60-3;59-9;63-12;62-5,62-5,4.27,56,-5,1152.7437125
GEMS223,2018_Apr_16_1543,Kramer,EG,orientation,8,6,12,44-9;29-35;28-16;53-17,3,SimpleHill,28-16,67,29,selected,62-5,68-8;55-4;60-6;67-4;67-6;66-11,55-4,2.58,57,1,1158.89835367
GEMS223,2018_Apr_16_1543,Kramer,EG,orientation,8,6,12,44-9;29-35;28-16;53-17,3,SimpleHill,28-16,67,30,selected,55-4,60-4;49-5;49-7;47-4;59-9;61-2,59-9,13.85,64,7,1176.42011436
GEMS223,2018_Apr_16_1543,Kramer,EG,orientation,8,6,12,44-9;29-35;28-16;53-17,3,SimpleHill,28-16,67,31,selected,59-9,60-16;56-16;56-6;60-4;65-5;57-11,57-11,2.86,68,4,1182.85321999
GEMS223,2018_Apr_16_1543,Kramer,EG,orientation,8,6,12,44-9;29-35;28-16;53-17,3,SimpleHill,28-16,67,32,selected,57-11,62-5;56-15;58-8;64-12;62-7;54-9,54-9,1.41,66,-2,1187.82793236
GEMS223,2018_Apr_16_1543,Kramer,EG,orientation,8,6,12,44-9;29-35;28-16;53-17,3,SimpleHill,28-16,67,33,selected,54-9,51-8;56-15;60-14;53-8;53-11;53-15,51-8,1.55,64,-2,1192.95255621
GEMS223,2018_Apr_16_1543,Kramer,EG,orientation,8,6,12,44-9;29-35;28-16;53-17,3,SimpleHill,28-16,67,34,selected,51-8,53-2;55-14;47-8;49-14;52-10;46-2,53-2,1.84,53,-11,1198.36007109
GEMS223,2018_Apr_16_1543,Kramer,EG,orientation,8,6,12,44-9;29-35;28-16;53-17,3,SimpleHill,28-16,67,35,selected,53-2,58-2;53-2;47-2;46-2;60-1;53-9,60-1,1.92,49,-4,1203.84426476
GEMS223,2018_Apr_16_1543,Kramer,EG,orientation,8,6,12,44-9;29-35;28-16;53-17,3,SimpleHill,28-16,67,36,selected,60-1,58-7;58-8;56-6;57-6;62-6;55-4,56-6,3.15,60,11,1210.55120632
GEMS223,2018_Apr_16_1543,Kramer,EG,orientation,8,6,12,44-9;29-35;28-16;53-17,3,SimpleHill,28-16,67,37,selected,56-6,52-8;50-4;57-3;48-6;59-10;61-6,57-3,0.73,54,-6,1214.8545807
GEMS223,2018_Apr_16_1543,Kramer,EG,orientation,8,6,12,44-9;29-35;28-16;53-17,3,SimpleHill,28-16,67,38,selected,57-3,60-8;64-1;56-5;58-8;61-4;58-9,61-4,1.27,55,1,1219.69400374
GEMS223,2018_Apr_16_1543,Kramer,EG,orientation,8,6,12,44-9;29-35;28-16;53-17,3,SimpleHill,28-16,67,39,selected,61-4,67-4;57-1;66-1;56-8;63-2;65-7,56-8,0.95,64,9,1224.19292871
GEMS223,2018_Apr_16_1543,Kramer,EG,orientation,8,6,12,44-9;29-35;28-16;53-17,4,SimpleHill,53-17,78,0,selected,53-17,52-22;52-18;54-22;47-13;59-12;59-21,47-13,1.97,72,-6,1235.11525506
GEMS223,2018_Apr_16_1543,Kramer,EG,orientation,8,6,12,44-9;29-35;28-16;53-17,4,SimpleHill,53-17,78,1,selected,47-13,42-13;49-15;44-20;46-12;49-7;50-14,46-12,0.63,70,-2,1239.31287313
GEMS223,2018_Apr_16_1543,Kramer,EG,orientation,8,6,12,44-9;29-35;28-16;53-17,4,SimpleHill,53-17,78,2,selected,46-12,45-19;53-11;46-11;42-7;48-17;48-13,46-11,3.28,69,-1,1246.16449009
GEMS223,2018_Apr_16_1543,Kramer,EG,orientation,8,6,12,44-9;29-35;28-16;53-17,4,SimpleHill,53-17,78,3,selected,46-11,52-13;44-16;43-7;53-14;40-14;45-4,53-14,0.85,73,4,1250.5928209
GEMS223,2018_Apr_16_1543,Kramer,EG,orientation,8,6,12,44-9;29-35;28-16;53-17,4,SimpleHill,53-17,78,4,selected,53-14,51-17;47-17;47-9;60-16;58-20;49-8,47-9,3.91,66,-7,1258.05063831
GEMS223,2018_Apr_16_1543,Kramer,EG,orientation,8,6,12,44-9;29-35;28-16;53-17,4,SimpleHill,53-17,78,5,selected,47-9,53-10;44-10;47-4;48-10;44-8;49-3,44-8,1.05,64,-2,1262.68698379
GEMS223,2018_Apr_16_1543,Kramer,EG,orientation,8,6,12,44-9;29-35;28-16;53-17,4,SimpleHill,53-17,78,6,selected,44-8,42-8;42-7;48-4;42-4;40-2;50-6,50-6,2.33,61,-3,1268.584317
GEMS223,2018_Apr_16_1543,Kramer,EG,orientation,8,6,12,44-9;29-35;28-16;53-17,4,SimpleHill,53-17,78,7,selected,50-6,56-1;49-1;47-1;51-5;48-6;52-3,51-5,3.15,59,-2,1275.30443389
GEMS223,2018_Apr_16_1543,Kramer,EG,orientation,8,6,12,44-9;29-35;28-16;53-17,4,SimpleHill,53-17,78,8,selected,51-5,43-5;47-1;52-6;45-2;48-6;47-7,48-6,1.09,61,2,1279.96448318
GEMS223,2018_Apr_16_1543,Kramer,EG,orientation,8,6,12,44-9;29-35;28-16;53-17,4,SimpleHill,53-17,78,9,selected,48-6,44-9;53-1;48-0;46-6;47-10;53-10,46-6,0.94,60,-1,1284.46562191
GEMS223,2018_Apr_16_1543,Kramer,EG,orientation,8,6,12,44-9;29-35;28-16;53-17,4,SimpleHill,53-17,78,10,selected,46-6,54-6;49-1;44-1;49-3;44-5;52-2,52-2,2.09,53,-7,1290.10809748
GEMS223,2018_Apr_16_1543,Kramer,EG,orientation,8,6,12,44-9;29-35;28-16;53-17,4,SimpleHill,53-17,78,11,selected,52-2,50-9;47-5;52-2;45-0;50-0;53-5,50-0,8.5,50,-3,1302.18229139
GEMS223,2018_Apr_16_1543,Kramer,EG,orientation,8,6,12,44-9;29-35;28-16;53-17,4,SimpleHill,53-17,78,12,selected,50-0,55-2;49-1;49-5;46-6;53-4;53-3,46-6,1.21,60,10,1306.95071536
GEMS223,2018_Apr_16_1543,Kramer,EG,orientation,8,6,12,44-9;29-35;28-16;53-17,4,SimpleHill,53-17,78,13,selected,46-6,40-7;40-1;48-13;43-13;42-8;50-0,50-0,1.73,50,-10,1312.24899707
GEMS223,2018_Apr_16_1543,Kramer,EG,orientation,8,6,12,44-9;29-35;28-16;53-17,4,SimpleHill,53-17,78,14,selected,50-0,56-5;53-5;53-4;51-6;47-2;57-1,51-6,1.11,61,11,1316.9334691
GEMS223,2018_Apr_16_1543,Kramer,EG,orientation,8,6,12,44-9;29-35;28-16;53-17,4,SimpleHill,53-17,78,15,selected,51-6,49-7;49-8;51-13;53-1;52-9;51-10,53-1,1.73,51,-10,1322.21283686
GEMS223,2018_Apr_16_1543,Kramer,EG,orientation,8,6,12,44-9;29-35;28-16;53-17,4,SimpleHill,53-17,78,16,selected,53-1,50-8;54-8;51-7;52-3;58-0;47-0,52-3,5.97,55,4,1331.73498678
GEMS223,2018_Apr_16_1543,Kramer,EG,orientation,8,6,12,44-9;29-35;28-16;53-17,4,SimpleHill,53-17,78,17,selected,52-3,48-8;48-2;52-1;56-3;50-3;54-3,50-3,1.13,55,0,1336.42950203
GEMS223,2018_Apr_16_1543,Kramer,EG,orientation,8,6,12,44-9;29-35;28-16;53-17,4,SimpleHill,53-17,78,18,selected,50-3,52-4;47-6;49-7;48-6;48-3;53-2,48-6,1.21,61,6,1341.2014214
GEMS223,2018_Apr_16_1543,Kramer,EG,orientation,8,6,12,44-9;29-35;28-16;53-17,4,SimpleHill,53-17,78,19,selected,48-6,44-3;42-9;45-7;49-6;52-3;50-1,49-6,0.97,61,0,1345.74816531
GEMS223,2018_Apr_16_1543,Kramer,EG,orientation,8,6,12,44-9;29-35;28-16;53-17,4,SimpleHill,53-17,78,20,selected,49-6,55-11;48-0;55-10;53-5;54-12;46-6,53-5,1.82,59,-2,1351.13887757
GEMS223,2018_Apr_16_1543,Kramer,EG,orientation,8,6,12,44-9;29-35;28-16;53-17,4,SimpleHill,53-17,78,21,selected,53-5,53-0;55-3;55-0;58-11;55-11;48-5,55-11,4.5,69,10,1359.1833573
GEMS223,2018_Apr_16_1543,Kramer,EG,orientation,8,6,12,44-9;29-35;28-16;53-17,4,SimpleHill,53-17,78,22,selected,55-11,53-14;55-10;51-14;56-16;53-4;58-7,56-16,1.6,76,7,1364.36214272
GEMS223,2018_Apr_16_1543,Kramer,EG,orientation,8,6,12,44-9;29-35;28-16;53-17,4,SimpleHill,53-17,78,23,selected,56-16,51-20;59-15;56-14;63-18;56-24;51-17,56-24,1.11,85,9,1369.05001349
GEMS223,2018_Apr_16_1543,Kramer,EG,orientation,8,6,12,44-9;29-35;28-16;53-17,4,SimpleHill,53-17,78,24,selected,56-24,56-30;61-22;61-19;50-25;61-25;59-19,50-25,1.83,87,2,1374.46110764
GEMS223,2018_Apr_16_1543,Kramer,EG,orientation,8,6,12,44-9;29-35;28-16;53-17,4,SimpleHill,53-17,78,25,selected,50-25,46-26;53-22;51-22;53-28;54-20;43-27,54-20,2.24,81,-6,1380.24964334
GEMS223,2018_Apr_16_1543,Kramer,EG,orientation,8,6,12,44-9;29-35;28-16;53-17,4,SimpleHill,53-17,78,26,selected,54-20,54-25;49-16;59-21;57-22;54-23;56-27,57-22,0.45,83,2,1384.25667481
GEMS223,2018_Apr_16_1543,Kramer,EG,orientation,8,6,12,44-9;29-35;28-16;53-17,4,SimpleHill,53-17,78,27,selected,57-22,58-17;50-20;56-24;55-19;61-26;51-17,51-17,0.37,78,-5,1388.20169764
GEMS223,2018_Apr_16_1543,Kramer,EG,orientation,8,6,12,44-9;29-35;28-16;53-17,4,SimpleHill,53-17,78,28,selected,51-17,47-13;50-23;48-22;58-16;49-17;56-12,58-16,1.68,75,-3,1393.44002507
GEMS223,2018_Apr_16_1543,Kramer,EG,orientation,8,6,12,44-9;29-35;28-16;53-17,4,SimpleHill,53-17,78,29,selected,58-16,59-11;53-16;57-15;59-22;57-18;55-15,59-22,3.24,82,7,1400.2382983
GEMS223,2018_Apr_16_1543,Kramer,EG,orientation,8,6,12,44-9;29-35;28-16;53-17,4,SimpleHill,53-17,78,30,selected,59-22,62-23;64-24;64-25;59-25;56-19;52-25,59-25,0.67,85,3,1404.46574002
GEMS223,2018_Apr_16_1543,Kramer,EG,orientation,8,6,12,44-9;29-35;28-16;53-17,4,SimpleHill,53-17,78,31,selected,59-25,55-30;56-20;58-23;64-29;66-22;53-30,53-30,1.97,91,6,1410.01954709
GEMS223,2018_Apr_16_1543,Kramer,EG,orientation,8,6,12,44-9;29-35;28-16;53-17,4,SimpleHill,53-17,78,32,selected,53-30,53-35;59-33;56-26;54-28;59-25;48-25,48-25,1.31,87,-4,1414.87314702
GEMS223,2018_Apr_16_1543,Kramer,EG,orientation,8,6,12,44-9;29-35;28-16;53-17,4,SimpleHill,53-17,78,33,selected,48-25,52-25;40-25;55-23;43-27;43-24;53-29,43-24,1.36,85,-2,1419.80850082
GEMS223,2018_Apr_16_1543,Kramer,EG,orientation,8,6,12,44-9;29-35;28-16;53-17,4,SimpleHill,53-17,78,34,selected,43-24,40-31;50-26;40-28;49-21;36-22;44-21,49-21,0.98,83,-2,1424.34454308
GEMS223,2018_Apr_16_1543,Kramer,EG,orientation,8,6,12,44-9;29-35;28-16;53-17,4,SimpleHill,53-17,78,35,selected,49-21,43-16;43-20;47-20;53-22;55-23;49-22,53-22,1.57,84,1,1429.48407556
GEMS223,2018_Apr_16_1543,Kramer,EG,orientation,8,6,12,44-9;29-35;28-16;53-17,4,SimpleHill,53-17,78,36,selected,53-22,50-17;54-26;53-20;58-21;50-25;52-26,58-21,1.21,81,-3,1434.26826024
GEMS223,2018_Apr_16_1543,Kramer,EG,orientation,8,6,12,44-9;29-35;28-16;53-17,4,SimpleHill,53-17,78,37,selected,58-21,53-25;52-23;56-24;54-18;58-17;59-24,59-24,0.97,84,3,1438.80919607
GEMS223,2018_Apr_16_1543,Kramer,EG,orientation,8,6,12,44-9;29-35;28-16;53-17,4,SimpleHill,53-17,78,38,selected,59-24,62-31;63-19;57-28;61-17;61-31;65-25,61-17,4.65,75,-9,1447.02318846
GEMS223,2018_Apr_16_1543,Kramer,EG,orientation,8,6,12,44-9;29-35;28-16;53-17,4,SimpleHill,53-17,78,39,selected,61-17,56-21;57-23;60-12;59-12;65-12;57-21,57-21,2.02,82,7,1452.62865238
