subj_id,date,computer,experimenter,instructions,sight_radius,n_gabors,landscape_ix,landscape_name,starting_pos,starting_score,trial,feedback,pos,stims,selected,rt,score,delta,exp_time
GEMS104,2018_Feb_23_1300,George,PME,orientation,8,6,0,OrientationBias,5-5,10,0,training,5-5,2-10;4-1;4-7;10-1;0-7;10-4,10-1,6.88,16,6,164.829913092
GEMS104,2018_Feb_23_1300,George,PME,orientation,8,6,0,OrientationBias,5-5,10,1,training,10-1,12-6;10-1;3-0;13-3;14-4;11-1,14-4,6.45,22,6,178.626516718
GEMS104,2018_Feb_23_1300,George,PME,orientation,8,6,0,OrientationBias,5-5,10,2,training,14-4,11-10;18-0;14-3;7-2;20-2;10-6,20-2,3.89,31,9,195.198112927
GEMS104,2018_Feb_23_1300,George,PME,orientation,8,6,0,OrientationBias,5-5,10,3,training,20-2,14-7;21-9;16-7;27-4;19-5;17-5,27-4,3.73,40,9,204.745703799
GEMS104,2018_Feb_23_1300,George,PME,orientation,8,6,0,OrientationBias,5-5,10,4,training,27-4,22-10;28-4;33-2;31-4;30-9;25-0,33-2,4.79,44,4,212.2392016
GEMS104,2018_Feb_23_1300,George,PME,orientation,8,6,0,OrientationBias,5-5,10,5,training,33-2,27-7;29-1;35-0;31-2;33-4;27-5,35-0,5.05,45,1,220.06554406
GEMS104,2018_Feb_23_1300,George,PME,orientation,8,6,0,OrientationBias,5-5,10,6,training,35-0,41-5;29-3;33-7;42-1;40-1;40-4,42-1,13.82,47,2,239.726061643
GEMS104,2018_Feb_23_1300,George,PME,orientation,8,6,0,OrientationBias,5-5,10,7,training,42-1,37-2;46-5;38-7;46-1;43-2;41-7,46-1,3.6,50,3,250.177294431
GEMS104,2018_Feb_23_1300,George,PME,orientation,8,6,0,OrientationBias,5-5,10,8,training,46-1,47-4;42-0;50-3;42-2;47-0;43-4,50-3,4.68,51,1,257.435637882
GEMS104,2018_Feb_23_1300,George,PME,orientation,8,6,0,OrientationBias,5-5,10,9,training,50-3,57-1;54-1;53-7;52-8;51-9;52-9,57-1,5.57,48,-3,265.409546182
GEMS104,2018_Feb_23_1300,George,PME,orientation,8,6,0,OrientationBias,5-5,10,10,training,57-1,54-5;54-1;58-2;58-5;63-0;64-2,64-2,4.42,44,-4,275.16497247
GEMS104,2018_Feb_23_1300,George,PME,orientation,8,6,0,OrientationBias,5-5,10,11,training,64-2,65-6;63-7;64-1;61-0;64-9;68-5,61-0,4.3,47,3,288.278301858
GEMS104,2018_Feb_23_1300,George,PME,orientation,8,6,0,OrientationBias,5-5,10,12,training,61-0,66-3;54-3;55-4;66-2;64-5;64-4,55-4,3.99,48,1,295.873057399
GEMS104,2018_Feb_23_1300,George,PME,orientation,8,6,0,OrientationBias,5-5,10,13,training,55-4,62-2;56-1;51-8;54-0;54-2;60-3,51-8,4.82,50,2,306.639537441
GEMS104,2018_Feb_23_1300,George,PME,orientation,8,6,0,OrientationBias,5-5,10,14,training,51-8,59-8;50-13;50-8;55-14;55-8;53-14,50-8,5.74,51,1,314.935063796
GEMS104,2018_Feb_23_1300,George,PME,orientation,8,6,0,OrientationBias,5-5,10,15,training,50-8,53-1;49-7;43-9;54-7;46-13;53-10,43-9,4.32,49,-2,321.611799826
GEMS104,2018_Feb_23_1300,George,PME,orientation,8,6,0,OrientationBias,5-5,10,16,training,43-9,43-12;45-9;44-12;43-7;49-8;47-14,43-7,4.23,49,0,329.961048585
GEMS104,2018_Feb_23_1300,George,PME,orientation,8,6,0,OrientationBias,5-5,10,17,training,43-7,50-9;45-8;50-4;49-12;43-5;37-9,37-9,3.66,46,-3,337.499794341
GEMS104,2018_Feb_23_1300,George,PME,orientation,8,6,0,OrientationBias,5-5,10,18,training,37-9,39-11;39-4;33-9;40-4;39-9;39-7,40-4,5.09,47,1,347.248217325
GEMS104,2018_Feb_23_1300,George,PME,orientation,8,6,0,OrientationBias,5-5,10,19,training,40-4,46-0;36-10;35-2;39-3;35-3;34-7,46-0,7.99,48,1,361.418902486
GEMS104,2018_Feb_23_1300,George,PME,orientation,8,6,0,OrientationBias,5-5,10,20,training,46-0,43-6;42-3;50-3;50-1;54-0;42-1,43-6,3.81,48,0,367.648691446
GEMS104,2018_Feb_23_1300,George,PME,orientation,8,6,0,OrientationBias,5-5,10,21,training,43-6,48-11;39-0;38-9;40-13;41-6;42-7,48-11,2.77,50,2,373.788633323
GEMS104,2018_Feb_23_1300,George,PME,orientation,8,6,0,OrientationBias,5-5,10,22,training,48-11,47-8;45-8;52-15;49-18;44-10;46-13,52-15,2.99,50,0,379.10824984
GEMS104,2018_Feb_23_1300,George,PME,orientation,8,6,0,OrientationBias,5-5,10,23,training,52-15,52-7;58-12;45-12;59-18;56-11;45-13,56-11,5.55,49,-1,387.10693618
GEMS104,2018_Feb_23_1300,George,PME,orientation,8,6,0,OrientationBias,5-5,10,24,training,56-11,49-8;49-11;52-8;53-9;59-17;51-12,59-17,3.54,49,0,394.849860296
GEMS104,2018_Feb_23_1300,George,PME,orientation,8,6,1,SimpleHill,5-5,20,0,selected,5-5,2-10;4-1;4-7;10-1;0-7;10-4,10-4,3.87,26,6,423.954066407
GEMS104,2018_Feb_23_1300,George,PME,orientation,8,6,1,SimpleHill,5-5,20,1,selected,10-4,13-10;13-7;4-0;14-9;12-5;5-6,13-10,4.67,38,12,432.196459009
GEMS104,2018_Feb_23_1300,George,PME,orientation,8,6,1,SimpleHill,5-5,20,2,selected,13-10,11-10;19-14;8-10;7-10;16-5;13-13,19-14,2.79,52,14,438.571200894
GEMS104,2018_Feb_23_1300,George,PME,orientation,8,6,1,SimpleHill,5-5,20,3,selected,19-14,14-17;19-9;22-19;21-14;21-7;16-14,21-14,3.6,57,5,445.749922298
GEMS104,2018_Feb_23_1300,George,PME,orientation,8,6,1,SimpleHill,5-5,20,4,selected,21-14,22-12;23-13;26-14;22-21;15-14;24-7,23-13,5.26,57,0,454.586401126
GEMS104,2018_Feb_23_1300,George,PME,orientation,8,6,1,SimpleHill,5-5,20,5,selected,23-13,19-19;29-11;19-11;29-9;21-10;23-17,29-9,3.29,58,1,461.462720908
GEMS104,2018_Feb_23_1300,George,PME,orientation,8,6,1,SimpleHill,5-5,20,6,selected,29-9,31-2;23-4;31-6;34-15;35-9;24-7,31-6,5.1,52,-6,470.143138641
GEMS104,2018_Feb_23_1300,George,PME,orientation,8,6,1,SimpleHill,5-5,20,7,selected,31-6,32-5;33-2;36-5;34-5;27-3;29-5,34-5,2.06,55,3,475.779253653
GEMS104,2018_Feb_23_1300,George,PME,orientation,8,6,1,SimpleHill,5-5,20,8,selected,34-5,38-3;32-4;37-6;33-0;28-10;26-5,38-3,3.43,51,-4,482.79329259
GEMS104,2018_Feb_23_1300,George,PME,orientation,8,6,1,SimpleHill,5-5,20,9,selected,38-3,43-2;42-3;40-9;30-3;36-9;34-6,40-9,2.54,62,11,488.918092492
GEMS104,2018_Feb_23_1300,George,PME,orientation,8,6,1,SimpleHill,5-5,20,10,selected,40-9,43-3;41-13;37-14;41-7;34-13;35-15,43-3,3.0,53,-9,495.503227973
GEMS104,2018_Feb_23_1300,George,PME,orientation,8,6,1,SimpleHill,5-5,20,11,selected,43-3,46-4;50-3;44-10;40-7;44-5;46-0,44-10,2.05,68,15,501.125936231
GEMS104,2018_Feb_23_1300,George,PME,orientation,8,6,1,SimpleHill,5-5,20,12,selected,44-10,37-12;46-11;40-15;44-10;48-11;41-11,40-15,1.78,73,5,506.479360276
GEMS104,2018_Feb_23_1300,George,PME,orientation,8,6,1,SimpleHill,5-5,20,13,selected,40-15,42-11;37-14;45-16;47-14;40-18;44-20,40-18,2.51,76,3,512.569274898
GEMS104,2018_Feb_23_1300,George,PME,orientation,8,6,1,SimpleHill,5-5,20,14,selected,40-18,35-22;41-16;44-18;38-23;37-23;38-16,38-16,2.65,73,-3,518.793018911
GEMS104,2018_Feb_23_1300,George,PME,orientation,8,6,1,SimpleHill,5-5,20,15,selected,38-16,36-16;38-15;39-22;33-19;38-10;34-12,38-10,2.43,64,-9,524.786931712
GEMS104,2018_Feb_23_1300,George,PME,orientation,8,6,1,SimpleHill,5-5,20,16,selected,38-10,34-8;38-3;42-12;35-13;33-4;36-13,36-13,1.28,68,4,529.643804914
GEMS104,2018_Feb_23_1300,George,PME,orientation,8,6,1,SimpleHill,5-5,20,17,selected,36-13,32-15;36-20;40-13;31-8;39-14;40-17,36-20,1.22,78,10,534.441368498
GEMS104,2018_Feb_23_1300,George,PME,orientation,8,6,1,SimpleHill,5-5,20,18,selected,36-20,34-13;38-15;32-23;36-13;37-16;30-15,36-13,2.96,68,-10,540.959262468
GEMS104,2018_Feb_23_1300,George,PME,orientation,8,6,1,SimpleHill,5-5,20,19,selected,36-13,33-14;40-7;30-17;38-18;37-14;36-8,40-7,1.16,59,-9,545.680417093
GEMS104,2018_Feb_23_1300,George,PME,orientation,8,6,1,SimpleHill,5-5,20,20,selected,40-7,36-10;44-5;40-7;43-3;38-7;35-11,43-3,5.06,53,-6,554.332180467
GEMS104,2018_Feb_23_1300,George,PME,orientation,8,6,1,SimpleHill,5-5,20,21,selected,43-3,43-10;47-9;39-4;46-0;38-0;36-3,38-0,0.95,47,-6,558.860960783
GEMS104,2018_Feb_23_1300,George,PME,orientation,8,6,1,SimpleHill,5-5,20,22,selected,38-0,41-4;46-0;35-0;36-4;41-0;42-5,35-0,1.33,45,-2,563.768075703
GEMS104,2018_Feb_23_1300,George,PME,orientation,8,6,1,SimpleHill,5-5,20,23,selected,35-0,33-4;38-7;30-1;35-7;40-2;31-1,38-7,1.21,59,14,568.562279596
GEMS104,2018_Feb_23_1300,George,PME,orientation,8,6,1,SimpleHill,5-5,20,24,selected,38-7,40-8;36-7;35-3;32-10;34-5;42-10,42-10,2.44,66,7,574.594815078
GEMS104,2018_Feb_23_1300,George,PME,orientation,8,6,1,SimpleHill,5-5,20,25,selected,42-10,44-8;39-14;38-6;39-9;43-8;39-7,43-8,1.97,64,-2,580.156856525
GEMS104,2018_Feb_23_1300,George,PME,orientation,8,6,1,SimpleHill,5-5,20,26,selected,43-8,44-3;49-6;43-8;37-7;44-11;41-11,49-6,1.65,60,-4,585.377378167
GEMS104,2018_Feb_23_1300,George,PME,orientation,8,6,1,SimpleHill,5-5,20,27,selected,49-6,57-6;51-11;43-6;45-5;56-4;41-6,57-6,1.15,59,-1,590.119188681
GEMS104,2018_Feb_23_1300,George,PME,orientation,8,6,1,SimpleHill,5-5,20,28,selected,57-6,51-2;60-12;56-12;59-13;55-3;59-1,60-12,3.43,68,9,597.12828923
GEMS104,2018_Feb_23_1300,George,PME,orientation,8,6,1,SimpleHill,5-5,20,29,selected,60-12,58-5;67-14;62-6;61-17;58-7;58-15,67-14,2.76,66,-2,603.463756727
GEMS104,2018_Feb_23_1300,George,PME,orientation,8,6,1,SimpleHill,5-5,20,30,selected,67-14,74-11;71-20;61-16;68-12;70-14;67-14,74-11,2.33,56,-10,609.37385875
GEMS104,2018_Feb_23_1300,George,PME,orientation,8,6,1,SimpleHill,5-5,20,31,selected,74-11,73-13;74-11;75-4;76-14;76-16;70-12,76-14,2.26,58,2,615.20421517
GEMS104,2018_Feb_23_1300,George,PME,orientation,8,6,1,SimpleHill,5-5,20,32,selected,76-14,78-18;78-10;77-7;77-11;76-17;78-9,78-9,1.96,50,-8,620.762567552
GEMS104,2018_Feb_23_1300,George,PME,orientation,8,6,1,SimpleHill,5-5,20,33,selected,78-9,76-16;71-11;86-9;80-12;74-14;79-3,79-3,4.3,37,-13,628.639571371
GEMS104,2018_Feb_23_1300,George,PME,orientation,8,6,1,SimpleHill,5-5,20,34,selected,79-3,74-3;84-7;82-9;82-2;87-3;77-2,77-2,2.17,37,0,634.387153152
GEMS104,2018_Feb_23_1300,George,PME,orientation,8,6,1,SimpleHill,5-5,20,35,selected,77-2,75-8;84-2;77-7;74-5;79-4;80-9,75-8,3.12,53,16,641.088902809
GEMS104,2018_Feb_23_1300,George,PME,orientation,8,6,1,SimpleHill,5-5,20,36,selected,75-8,69-4;78-4;70-5;76-1;73-13;82-11,69-4,1.38,48,-5,646.044301121
GEMS104,2018_Feb_23_1300,George,PME,orientation,8,6,1,SimpleHill,5-5,20,37,selected,69-4,67-5;62-7;62-5;69-10;65-4;67-3,62-5,1.76,56,8,651.391557304
GEMS104,2018_Feb_23_1300,George,PME,orientation,8,6,1,SimpleHill,5-5,20,38,selected,62-5,62-0;55-7;58-11;67-10;61-5;57-10,58-11,1.39,69,13,656.35392435
GEMS104,2018_Feb_23_1300,George,PME,orientation,8,6,1,SimpleHill,5-5,20,39,selected,58-11,59-14;54-9;58-16;64-12;56-9;59-9,58-16,3.45,73,4,663.384525192
GEMS104,2018_Feb_23_1300,George,PME,orientation,8,6,1,SimpleHill,5-5,20,40,selected,58-16,51-14;64-18;61-23;57-16;54-11;54-15,61-23,0.94,82,9,667.893689601
GEMS104,2018_Feb_23_1300,George,PME,orientation,8,6,1,SimpleHill,5-5,20,41,selected,61-23,60-24;61-28;66-21;57-25;63-19;61-29,66-21,0.55,79,-3,672.019153054
GEMS104,2018_Feb_23_1300,George,PME,orientation,8,6,1,SimpleHill,5-5,20,42,selected,66-21,72-23;63-27;72-21;69-14;62-20;67-21,72-21,0.91,73,-6,676.496238433
GEMS104,2018_Feb_23_1300,George,PME,orientation,8,6,1,SimpleHill,5-5,20,43,selected,72-21,74-24;74-16;76-22;70-25;70-26;71-17,70-26,2.64,81,8,682.722014713
GEMS104,2018_Feb_23_1300,George,PME,orientation,8,6,1,SimpleHill,5-5,20,44,selected,70-26,73-26;73-25;77-23;75-26;76-31;74-20,77-23,2.6,68,-13,688.906044851
GEMS104,2018_Feb_23_1300,George,PME,orientation,8,6,1,SimpleHill,5-5,20,45,selected,77-23,78-25;75-24;72-22;82-20;79-26;74-24,75-24,0.77,71,3,693.25657558
GEMS104,2018_Feb_23_1300,George,PME,orientation,8,6,1,SimpleHill,5-5,20,46,selected,75-24,68-23;70-19;77-22;75-18;75-32;72-29,68-23,1.49,77,6,698.326097429
GEMS104,2018_Feb_23_1300,George,PME,orientation,8,6,1,SimpleHill,5-5,20,47,selected,68-23,71-19;75-25;61-24;70-26;68-15;70-30,61-24,0.84,84,7,702.749529544
GEMS104,2018_Feb_23_1300,George,PME,orientation,8,6,1,SimpleHill,5-5,20,48,selected,61-24,56-23;64-17;64-20;63-29;67-23;57-27,57-27,2.27,88,4,708.583169473
GEMS104,2018_Feb_23_1300,George,PME,orientation,8,6,1,SimpleHill,5-5,20,49,selected,57-27,52-24;57-19;54-25;59-32;53-22;60-32,54-25,0.84,88,0,712.990554391
GEMS104,2018_Feb_23_1300,George,PME,orientation,8,6,2,ReverseSpatialFrequency,5-5,20,0,selected,5-5,2-10;4-1;4-7;10-1;0-7;10-4,10-4,4.87,26,6,740.011631841
GEMS104,2018_Feb_23_1300,George,PME,orientation,8,6,2,ReverseSpatialFrequency,5-5,20,1,selected,10-4,13-10;13-7;4-0;14-9;12-5;5-6,13-10,3.04,38,12,746.62496427
GEMS104,2018_Feb_23_1300,George,PME,orientation,8,6,2,ReverseSpatialFrequency,5-5,20,2,selected,13-10,11-10;19-14;8-10;7-10;16-5;13-13,19-14,2.05,52,14,752.267700715
GEMS104,2018_Feb_23_1300,George,PME,orientation,8,6,2,ReverseSpatialFrequency,5-5,20,3,selected,19-14,14-17;19-9;22-19;21-14;21-7;16-14,22-19,2.43,65,13,758.272940309
GEMS104,2018_Feb_23_1300,George,PME,orientation,8,6,2,ReverseSpatialFrequency,5-5,20,4,selected,22-19,23-17;24-18;27-19;23-26;16-19;25-12,24-18,2.02,66,1,763.869813901
GEMS104,2018_Feb_23_1300,George,PME,orientation,8,6,2,ReverseSpatialFrequency,5-5,20,5,selected,24-18,20-24;30-16;20-16;30-14;22-15;24-22,30-14,3.09,67,1,770.542060634
GEMS104,2018_Feb_23_1300,George,PME,orientation,8,6,2,ReverseSpatialFrequency,5-5,20,6,selected,30-14,32-7;24-9;32-11;35-20;36-14;25-12,36-14,2.39,68,1,776.507262739
GEMS104,2018_Feb_23_1300,George,PME,orientation,8,6,2,ReverseSpatialFrequency,5-5,20,7,selected,36-14,40-17;37-19;40-12;37-16;37-18;37-14,40-12,1.48,67,-1,781.561174317
GEMS104,2018_Feb_23_1300,George,PME,orientation,8,6,2,ReverseSpatialFrequency,5-5,20,8,selected,40-12,34-8;37-7;47-11;34-17;42-12;35-17,47-11,1.22,67,0,786.366706283
GEMS104,2018_Feb_23_1300,George,PME,orientation,8,6,2,ReverseSpatialFrequency,5-5,20,9,selected,47-11,46-13;46-8;49-8;43-5;47-4;43-9,46-13,1.11,70,3,791.030999037
GEMS104,2018_Feb_23_1300,George,PME,orientation,8,6,2,ReverseSpatialFrequency,5-5,20,10,selected,46-13,46-21;47-14;46-15;51-7;53-11;50-13,46-15,1.04,75,5,795.660568158
GEMS104,2018_Feb_23_1300,George,PME,orientation,8,6,2,ReverseSpatialFrequency,5-5,20,11,selected,46-15,54-15;40-19;49-18;44-11;41-11;48-8,49-18,1.04,80,5,800.285311244
GEMS104,2018_Feb_23_1300,George,PME,orientation,8,6,2,ReverseSpatialFrequency,5-5,20,12,selected,49-18,45-24;50-25;45-13;54-24;48-25;55-14,45-13,1.01,70,-10,804.863278893
GEMS104,2018_Feb_23_1300,George,PME,orientation,8,6,2,ReverseSpatialFrequency,5-5,20,13,selected,45-13,48-15;47-12;43-7;46-6;39-15;51-10,51-10,0.72,68,-2,809.147546315
GEMS104,2018_Feb_23_1300,George,PME,orientation,8,6,2,ReverseSpatialFrequency,5-5,20,14,selected,51-10,55-10;49-7;56-7;51-7;54-16;46-16,51-7,0.86,61,-7,813.587584508
GEMS104,2018_Feb_23_1300,George,PME,orientation,8,6,2,ReverseSpatialFrequency,5-5,20,15,selected,51-7,57-11;51-4;46-10;57-10;49-7;55-11,46-10,1.32,65,4,818.481615648
GEMS104,2018_Feb_23_1300,George,PME,orientation,8,6,2,ReverseSpatialFrequency,5-5,20,16,selected,46-10,41-15;46-3;44-3;42-8;45-12;50-16,41-15,1.68,71,6,823.741809553
GEMS104,2018_Feb_23_1300,George,PME,orientation,8,6,2,ReverseSpatialFrequency,5-5,20,17,selected,41-15,42-19;39-21;37-18;36-11;46-21;48-12,39-21,1.13,81,10,828.467096892
GEMS104,2018_Feb_23_1300,George,PME,orientation,8,6,2,ReverseSpatialFrequency,5-5,20,18,selected,39-21,46-18;39-24;32-18;39-26;42-27;32-19,32-18,1.01,71,-10,833.044763655
GEMS104,2018_Feb_23_1300,George,PME,orientation,8,6,2,ReverseSpatialFrequency,5-5,20,19,selected,32-18,25-15;25-18;28-15;29-16;35-24;27-19,35-24,1.48,81,10,838.090896665
GEMS104,2018_Feb_23_1300,George,PME,orientation,8,6,2,ReverseSpatialFrequency,5-5,20,20,selected,35-24,43-24;32-23;30-30;31-26;33-17;40-29,40-29,1.19,90,9,842.868062995
GEMS104,2018_Feb_23_1300,George,PME,orientation,8,6,2,ReverseSpatialFrequency,5-5,20,21,selected,40-29,35-23;36-24;42-32;45-28;41-26;32-29,41-26,1.57,84,-6,847.990538066
GEMS104,2018_Feb_23_1300,George,PME,orientation,8,6,2,ReverseSpatialFrequency,5-5,20,22,selected,41-26,41-28;37-23;43-22;46-21;46-29;45-27,41-28,0.85,89,5,852.408251408
GEMS104,2018_Feb_23_1300,George,PME,orientation,8,6,2,ReverseSpatialFrequency,5-5,20,23,selected,41-28,35-32;39-28;38-25;46-27;40-34;42-26,42-26,1.25,87,-2,857.244139026
GEMS104,2018_Feb_23_1300,George,PME,orientation,8,6,2,ReverseSpatialFrequency,5-5,20,24,selected,42-26,42-20;46-25;37-22;47-31;47-20;49-24,37-22,1.81,81,-6,862.628707431
GEMS104,2018_Feb_23_1300,George,PME,orientation,8,6,2,ReverseSpatialFrequency,5-5,20,25,selected,37-22,38-26;44-20;35-25;35-28;33-25;44-22,35-28,1.38,85,4,867.571865406
GEMS104,2018_Feb_23_1300,George,PME,orientation,8,6,2,ReverseSpatialFrequency,5-5,20,26,selected,35-28,35-22;39-23;29-29;33-28;29-24;32-30,29-24,0.88,75,-10,872.01214879
GEMS104,2018_Feb_23_1300,George,PME,orientation,8,6,2,ReverseSpatialFrequency,5-5,20,27,selected,29-24,29-29;29-16;29-17;23-23;31-22;28-26,29-29,2.78,82,7,878.383486172
GEMS104,2018_Feb_23_1300,George,PME,orientation,8,6,2,ReverseSpatialFrequency,5-5,20,28,selected,29-29,24-26;33-26;30-25;22-30;29-26;34-26,34-26,1.81,83,1,883.777203781
GEMS104,2018_Feb_23_1300,George,PME,orientation,8,6,2,ReverseSpatialFrequency,5-5,20,29,selected,34-26,29-27;33-26;27-27;37-27;29-23;33-19,33-19,2.67,74,-9,890.030840592
GEMS104,2018_Feb_23_1300,George,PME,orientation,8,6,2,ReverseSpatialFrequency,5-5,20,30,selected,33-19,34-16;27-20;31-13;34-22;33-16;27-22,33-16,2.32,69,-5,895.938062102
GEMS104,2018_Feb_23_1300,George,PME,orientation,8,6,2,ReverseSpatialFrequency,5-5,20,31,selected,33-16,35-14;37-22;33-16;33-8;26-14;37-11,37-22,1.46,81,12,900.975006858
GEMS104,2018_Feb_23_1300,George,PME,orientation,8,6,2,ReverseSpatialFrequency,5-5,20,32,selected,37-22,39-17;41-22;43-22;36-20;37-26;42-25,41-22,1.0,81,0,905.563322138
GEMS104,2018_Feb_23_1300,George,PME,orientation,8,6,2,ReverseSpatialFrequency,5-5,20,33,selected,41-22,35-18;45-28;41-19;42-23;37-22;39-21,45-28,1.13,90,9,910.286669396
GEMS104,2018_Feb_23_1300,George,PME,orientation,8,6,2,ReverseSpatialFrequency,5-5,20,34,selected,45-28,48-34;45-33;47-22;50-27;51-31;42-32,45-33,0.54,91,1,914.393269479
GEMS104,2018_Feb_23_1300,George,PME,orientation,8,6,2,ReverseSpatialFrequency,5-5,20,35,selected,45-33,47-28;39-35;51-29;41-33;44-33;51-33,39-35,0.34,91,0,918.319290982
GEMS104,2018_Feb_23_1300,George,PME,orientation,8,6,2,ReverseSpatialFrequency,5-5,20,36,selected,39-35,44-38;44-30;46-32;40-39;38-31;37-31,44-30,0.3,89,-2,922.202012293
GEMS104,2018_Feb_23_1300,George,PME,orientation,8,6,2,ReverseSpatialFrequency,5-5,20,37,selected,44-30,44-27;37-28;39-24;49-36;37-31;46-23,37-28,0.42,84,-5,926.197099514
GEMS104,2018_Feb_23_1300,George,PME,orientation,8,6,2,ReverseSpatialFrequency,5-5,20,38,selected,37-28,30-27;32-33;39-33;39-29;40-35;34-26,40-35,1.74,91,7,931.511809332
GEMS104,2018_Feb_23_1300,George,PME,orientation,8,6,2,ReverseSpatialFrequency,5-5,20,39,selected,40-35,39-30;36-40;41-33;45-41;36-34;37-32,37-32,1.36,88,-3,936.464303125
GEMS104,2018_Feb_23_1300,George,PME,orientation,8,6,2,ReverseSpatialFrequency,5-5,20,40,selected,37-32,38-28;39-26;41-33;43-36;37-39;37-34,41-33,1.41,93,5,941.465611663
GEMS104,2018_Feb_23_1300,George,PME,orientation,8,6,2,ReverseSpatialFrequency,5-5,20,41,selected,41-33,39-33;35-36;37-32;35-28;44-38;41-35,39-33,0.88,90,-3,945.907024974
GEMS104,2018_Feb_23_1300,George,PME,orientation,8,6,2,ReverseSpatialFrequency,5-5,20,42,selected,39-33,45-31;34-32;44-32;42-29;34-36;34-38,45-31,0.87,92,2,950.3557588
GEMS104,2018_Feb_23_1300,George,PME,orientation,8,6,2,ReverseSpatialFrequency,5-5,20,43,selected,45-31,43-33;40-32;50-28;45-23;42-36;52-28,50-28,0.82,88,-4,954.746700887
GEMS104,2018_Feb_23_1300,George,PME,orientation,8,6,2,ReverseSpatialFrequency,5-5,20,44,selected,50-28,46-34;50-27;55-30;50-32;56-25;44-28,55-30,1.01,91,3,959.336451781
GEMS104,2018_Feb_23_1300,George,PME,orientation,8,6,2,ReverseSpatialFrequency,5-5,20,45,selected,55-30,54-33;55-23;57-34;51-33;50-35;57-25,57-25,0.57,87,-4,963.488952168
GEMS104,2018_Feb_23_1300,George,PME,orientation,8,6,2,ReverseSpatialFrequency,5-5,20,46,selected,57-25,61-27;57-19;51-22;62-28;52-22;55-29,57-19,0.68,78,-9,967.738819889
GEMS104,2018_Feb_23_1300,George,PME,orientation,8,6,2,ReverseSpatialFrequency,5-5,20,47,selected,57-19,64-21;56-16;58-15;64-20;52-25;62-15,52-25,1.34,88,10,972.658737869
GEMS104,2018_Feb_23_1300,George,PME,orientation,8,6,2,ReverseSpatialFrequency,5-5,20,48,selected,52-25,54-22;46-28;59-24;55-25;53-26;49-27,53-26,1.3,88,0,977.534510292
GEMS104,2018_Feb_23_1300,George,PME,orientation,8,6,2,ReverseSpatialFrequency,5-5,20,49,selected,53-26,50-21;59-29;53-31;59-24;53-32;47-31,53-32,0.62,91,3,981.736042447
GEMS104,2018_Feb_23_1300,George,PME,orientation,8,6,3,ReverseOrientation,5-5,20,0,selected,5-5,2-10;4-1;4-7;10-1;0-7;10-4,0-7,2.42,11,-9,1005.3969467
GEMS104,2018_Feb_23_1300,George,PME,orientation,8,6,3,ReverseOrientation,5-5,20,1,selected,0-7,0-1;0-6;1-8;1-10;1-2;7-4,0-1,1.57,-1,-12,1010.536669
GEMS104,2018_Feb_23_1300,George,PME,orientation,8,6,3,ReverseOrientation,5-5,20,2,selected,0-1,3-6;4-7;7-0;1-1;5-2;6-1,1-1,2.22,4,5,1016.33814219
GEMS104,2018_Feb_23_1300,George,PME,orientation,8,6,3,ReverseOrientation,5-5,20,3,selected,1-1,6-0;4-0;1-9;6-3;4-6;9-1,1-9,2.45,19,15,1022.37696109
GEMS104,2018_Feb_23_1300,George,PME,orientation,8,6,3,ReverseOrientation,5-5,20,4,selected,1-9,1-6;1-3;6-12;8-12;6-5;2-15,1-6,1.62,11,-8,1027.56891031
GEMS104,2018_Feb_23_1300,George,PME,orientation,8,6,3,ReverseOrientation,5-5,20,5,selected,1-6,3-0;5-6;7-1;8-7;4-13;4-12,5-6,0.67,20,9,1031.80788625
GEMS104,2018_Feb_23_1300,George,PME,orientation,8,6,3,ReverseOrientation,5-5,20,6,selected,5-6,4-6;0-3;1-9;6-11;2-0;3-5,0-3,0.29,4,-16,1035.66964374
GEMS104,2018_Feb_23_1300,George,PME,orientation,8,6,3,ReverseOrientation,5-5,20,7,selected,0-3,0-1;1-3;0-11;7-3;6-3;3-5,1-3,0.27,7,3,1039.52433295
GEMS104,2018_Feb_23_1300,George,PME,orientation,8,6,3,ReverseOrientation,5-5,20,8,selected,1-3,4-0;0-8;8-0;2-10;7-5;6-2,0-8,3.32,13,6,1046.41307296
GEMS104,2018_Feb_23_1300,George,PME,orientation,8,6,3,ReverseOrientation,5-5,20,9,selected,0-8,3-8;1-1;6-10;7-5;7-10;0-6,0-6,1.65,10,-3,1051.64720974
GEMS104,2018_Feb_23_1300,George,PME,orientation,8,6,3,ReverseOrientation,5-5,20,10,selected,0-6,4-0;7-8;1-8;2-3;2-11;7-6,1-8,3.11,17,7,1058.34461062
GEMS104,2018_Feb_23_1300,George,PME,orientation,8,6,3,ReverseOrientation,5-5,20,11,selected,1-8,1-0;2-11;8-9;0-13;1-12;4-11,0-13,1.57,20,3,1063.49976233
GEMS104,2018_Feb_23_1300,George,PME,orientation,8,6,3,ReverseOrientation,5-5,20,12,selected,0-13,1-14;0-17;5-18;2-13;0-18;2-10,2-10,2.07,21,1,1069.15098571
GEMS104,2018_Feb_23_1300,George,PME,orientation,8,6,3,ReverseOrientation,5-5,20,13,selected,2-10,4-10;7-13;8-12;1-10;1-6;4-5,4-5,3.01,15,-6,1075.74237804
GEMS104,2018_Feb_23_1300,George,PME,orientation,8,6,3,ReverseOrientation,5-5,20,14,selected,4-5,1-4;3-1;3-10;1-6;4-9;5-3,1-4,1.52,9,-6,1080.83155357
GEMS104,2018_Feb_23_1300,George,PME,orientation,8,6,3,ReverseOrientation,5-5,20,15,selected,1-4,3-1;6-2;0-0;8-3;7-7;1-2,3-1,1.06,8,-1,1085.47007791
GEMS104,2018_Feb_23_1300,George,PME,orientation,8,6,3,ReverseOrientation,5-5,20,16,selected,3-1,4-3;6-8;7-2;1-4;8-5;3-5,1-4,1.41,9,1,1090.45446828
GEMS104,2018_Feb_23_1300,George,PME,orientation,8,6,3,ReverseOrientation,5-5,20,17,selected,1-4,7-2;9-4;3-2;6-3;8-7;6-7,6-7,4.11,24,15,1098.1347743
GEMS104,2018_Feb_23_1300,George,PME,orientation,8,6,3,ReverseOrientation,5-5,20,18,selected,6-7,0-6;2-6;8-6;9-1;1-3;10-8,8-6,1.68,25,1,1103.39082941
GEMS104,2018_Feb_23_1300,George,PME,orientation,8,6,3,ReverseOrientation,5-5,20,19,selected,8-6,2-7;3-11;12-10;4-11;12-1;5-12,12-10,0.86,39,14,1107.82663919
GEMS104,2018_Feb_23_1300,George,PME,orientation,8,6,3,ReverseOrientation,5-5,20,20,selected,12-10,10-4;12-7;16-9;11-14;8-10;6-9,16-9,0.93,41,2,1112.32134758
GEMS104,2018_Feb_23_1300,George,PME,orientation,8,6,3,ReverseOrientation,5-5,20,21,selected,16-9,20-4;14-13;16-16;16-2;14-7;11-12,16-16,0.74,52,11,1116.6472968
GEMS104,2018_Feb_23_1300,George,PME,orientation,8,6,3,ReverseOrientation,5-5,20,22,selected,16-16,14-16;16-15;17-22;11-19;16-10;12-12,17-22,0.66,61,9,1120.87514312
GEMS104,2018_Feb_23_1300,George,PME,orientation,8,6,3,ReverseOrientation,5-5,20,23,selected,17-22,13-20;17-15;21-24;14-25;12-16;15-25,21-24,0.58,69,8,1125.04466699
GEMS104,2018_Feb_23_1300,George,PME,orientation,8,6,3,ReverseOrientation,5-5,20,24,selected,21-24,17-26;21-31;25-24;16-19;24-25;25-28,25-24,0.67,71,2,1129.27630448
GEMS104,2018_Feb_23_1300,George,PME,orientation,8,6,3,ReverseOrientation,5-5,20,25,selected,25-24,23-17;27-19;21-27;25-17;26-20;19-19,27-19,1.54,70,-1,1134.3983359
GEMS104,2018_Feb_23_1300,George,PME,orientation,8,6,3,ReverseOrientation,5-5,20,26,selected,27-19,24-20;31-13;21-23;29-24;28-20;27-14,21-23,0.75,68,-2,1138.72267154
GEMS104,2018_Feb_23_1300,George,PME,orientation,8,6,3,ReverseOrientation,5-5,20,27,selected,21-23,23-29;25-27;21-19;21-26;22-30;17-26,25-27,2.99,76,8,1145.30930026
GEMS104,2018_Feb_23_1300,George,PME,orientation,8,6,3,ReverseOrientation,5-5,20,28,selected,25-27,22-32;27-22;19-31;26-29;19-32;26-30,27-22,1.35,72,-4,1150.2313987
GEMS104,2018_Feb_23_1300,George,PME,orientation,8,6,3,ReverseOrientation,5-5,20,29,selected,27-22,31-20;24-15;24-20;32-20;22-16;25-29,32-20,2.97,74,2,1156.78087396
GEMS104,2018_Feb_23_1300,George,PME,orientation,8,6,3,ReverseOrientation,5-5,20,30,selected,32-20,31-26;36-23;36-26;39-17;36-15;29-21,36-26,1.12,83,9,1161.48381724
GEMS104,2018_Feb_23_1300,George,PME,orientation,8,6,3,ReverseOrientation,5-5,20,31,selected,36-26,36-28;38-28;37-33;38-21;40-22;34-33,37-33,2.63,88,5,1167.69636346
GEMS104,2018_Feb_23_1300,George,PME,orientation,8,6,3,ReverseOrientation,5-5,20,32,selected,37-33,41-36;31-37;31-35;40-37;37-38;32-28,40-37,1.62,92,4,1172.89236218
GEMS104,2018_Feb_23_1300,George,PME,orientation,8,6,3,ReverseOrientation,5-5,20,33,selected,40-37,38-31;39-31;39-42;39-33;34-32;39-41,39-42,0.92,96,4,1177.3821405
GEMS104,2018_Feb_23_1300,George,PME,orientation,8,6,3,ReverseOrientation,5-5,20,34,selected,39-42,39-42;38-46;40-45;38-35;42-46;33-43,40-45,0.71,98,2,1181.67956021
GEMS104,2018_Feb_23_1300,George,PME,orientation,8,6,3,ReverseOrientation,5-5,20,35,selected,40-45,45-43;34-43;37-48;40-40;46-40;36-48,37-48,1.28,97,-1,1186.54240089
GEMS104,2018_Feb_23_1300,George,PME,orientation,8,6,3,ReverseOrientation,5-5,20,36,selected,37-48,42-49;34-47;39-45;39-46;40-42;32-42,39-45,1.52,96,-1,1191.63286159
GEMS104,2018_Feb_23_1300,George,PME,orientation,8,6,3,ReverseOrientation,5-5,20,37,selected,39-45,35-43;45-48;36-42;44-41;40-51;44-42,44-42,2.12,97,1,1197.31749046
GEMS104,2018_Feb_23_1300,George,PME,orientation,8,6,3,ReverseOrientation,5-5,20,38,selected,44-42,40-42;48-37;41-39;47-37;50-43;41-35,48-37,1.18,94,-3,1202.09306497
GEMS104,2018_Feb_23_1300,George,PME,orientation,8,6,3,ReverseOrientation,5-5,20,39,selected,48-37,52-40;55-36;42-34;46-31;51-30;50-32,46-31,1.6,90,-4,1207.26216664
GEMS104,2018_Feb_23_1300,George,PME,orientation,8,6,3,ReverseOrientation,5-5,20,40,selected,46-31,46-35;44-24;45-27;52-34;49-35;52-30,45-27,1.2,89,-1,1212.04392085
GEMS104,2018_Feb_23_1300,George,PME,orientation,8,6,3,ReverseOrientation,5-5,20,41,selected,45-27,39-23;49-33;45-24;46-28;41-27;43-26,49-33,2.38,93,4,1218.00202394
GEMS104,2018_Feb_23_1300,George,PME,orientation,8,6,3,ReverseOrientation,5-5,20,42,selected,49-33,52-39;49-38;51-27;54-32;55-36;46-37,54-32,1.67,93,0,1223.25619915
GEMS104,2018_Feb_23_1300,George,PME,orientation,8,6,3,ReverseOrientation,5-5,20,43,selected,54-32,56-27;48-34;60-28;50-32;53-32;60-32,60-28,1.19,88,-5,1228.01626646
GEMS104,2018_Feb_23_1300,George,PME,orientation,8,6,3,ReverseOrientation,5-5,20,44,selected,60-28,65-31;65-23;67-25;61-32;59-24;58-24,61-32,4.53,89,1,1236.11398526
GEMS104,2018_Feb_23_1300,George,PME,orientation,8,6,3,ReverseOrientation,5-5,20,45,selected,61-32,61-29;54-30;56-26;66-38;54-33;63-25,56-26,1.04,86,-3,1240.71521243
GEMS104,2018_Feb_23_1300,George,PME,orientation,8,6,3,ReverseOrientation,5-5,20,46,selected,56-26,49-25;51-31;58-31;58-27;59-33;53-24,58-31,0.82,91,5,1245.09437543
GEMS104,2018_Feb_23_1300,George,PME,orientation,8,6,3,ReverseOrientation,5-5,20,47,selected,58-31,57-26;54-36;59-29;63-37;54-30;55-28,59-29,1.03,88,-3,1249.71447686
GEMS104,2018_Feb_23_1300,George,PME,orientation,8,6,3,ReverseOrientation,5-5,20,48,selected,59-29,60-25;61-23;63-30;65-33;59-36;59-31,59-36,2.46,95,7,1255.74682924
GEMS104,2018_Feb_23_1300,George,PME,orientation,8,6,3,ReverseOrientation,5-5,20,49,selected,59-36,57-36;53-39;55-35;53-31;62-41;59-38,55-35,1.34,93,-2,1260.66629173
GEMS104,2018_Feb_23_1300,George,PME,orientation,8,6,4,ReverseBoth,5-5,20,0,selected,5-5,2-10;4-1;4-7;10-1;0-7;10-4,10-4,3.24,26,6,1283.78306916
GEMS104,2018_Feb_23_1300,George,PME,orientation,8,6,4,ReverseBoth,5-5,20,1,selected,10-4,13-10;13-7;4-0;14-9;12-5;5-6,13-7,1.46,34,8,1288.81663213
GEMS104,2018_Feb_23_1300,George,PME,orientation,8,6,4,ReverseBoth,5-5,20,2,selected,13-7,11-7;19-11;8-7;7-7;16-3;13-11,19-11,1.09,51,17,1293.47860454
GEMS104,2018_Feb_23_1300,George,PME,orientation,8,6,4,ReverseBoth,5-5,20,3,selected,19-11,14-14;19-6;22-16;21-11;21-4;16-11,19-6,1.35,41,-10,1298.40545156
GEMS104,2018_Feb_23_1300,George,PME,orientation,8,6,4,ReverseBoth,5-5,20,4,selected,19-6,17-9;14-6;18-10;16-1;20-13;21-7,21-7,1.4,47,6,1303.39710611
GEMS104,2018_Feb_23_1300,George,PME,orientation,8,6,4,ReverseBoth,5-5,20,5,selected,21-7,25-5;15-9;28-7;24-7;20-0;27-5,27-5,1.26,48,1,1308.24986932
GEMS104,2018_Feb_23_1300,George,PME,orientation,8,6,4,ReverseBoth,5-5,20,6,selected,27-5,24-2;25-9;30-0;35-5;28-10;34-2,28-10,2.15,57,9,1313.97316569
GEMS104,2018_Feb_23_1300,George,PME,orientation,8,6,4,ReverseBoth,5-5,20,7,selected,28-10,32-15;29-16;35-8;33-7;31-14;28-7,28-7,1.96,52,-5,1319.51595581
GEMS104,2018_Feb_23_1300,George,PME,orientation,8,6,4,ReverseBoth,5-5,20,8,selected,28-7,22-10;24-8;31-9;22-12;26-0;27-0,24-8,1.52,50,-2,1324.60950188
GEMS104,2018_Feb_23_1300,George,PME,orientation,8,6,4,ReverseBoth,5-5,20,9,selected,24-8,26-12;23-1;21-10;23-5;24-3;22-13,26-12,2.07,58,8,1330.23376611
GEMS104,2018_Feb_23_1300,George,PME,orientation,8,6,4,ReverseBoth,5-5,20,10,selected,26-12,28-14;27-9;19-14;32-16;30-11;26-14,30-11,2.46,61,3,1336.26578688
GEMS104,2018_Feb_23_1300,George,PME,orientation,8,6,4,ReverseBoth,5-5,20,11,selected,30-11,33-8;29-10;27-18;35-8;26-7;33-15,26-7,2.21,49,-12,1342.04663556
GEMS104,2018_Feb_23_1300,George,PME,orientation,8,6,4,ReverseBoth,5-5,20,12,selected,26-7,32-7;30-13;20-6;32-8;20-10;28-9,20-6,1.8,44,-5,1347.43004779
GEMS104,2018_Feb_23_1300,George,PME,orientation,8,6,4,ReverseBoth,5-5,20,13,selected,20-6,24-5;21-5;15-12;23-3;26-10;17-11,21-5,1.14,42,-2,1352.1414127
GEMS104,2018_Feb_23_1300,George,PME,orientation,8,6,4,ReverseBoth,5-5,20,14,selected,21-5,25-11;24-2;25-5;19-8;20-0;23-5,20-0,1.99,30,-12,1357.70165747
GEMS104,2018_Feb_23_1300,George,PME,orientation,8,6,4,ReverseBoth,5-5,20,15,selected,20-0,26-0;13-1;22-5;25-4;16-4;22-4,13-1,1.74,22,-8,1363.00910503
GEMS104,2018_Feb_23_1300,George,PME,orientation,8,6,4,ReverseBoth,5-5,20,16,selected,13-1,13-0;14-3;9-5;17-5;11-4;14-0,13-0,3.72,20,-2,1370.30839855
GEMS104,2018_Feb_23_1300,George,PME,orientation,8,6,4,ReverseBoth,5-5,20,17,selected,13-0,16-4;16-0;14-7;13-8;13-6;11-3,16-0,2.96,25,5,1376.84797335
GEMS104,2018_Feb_23_1300,George,PME,orientation,8,6,4,ReverseBoth,5-5,20,18,selected,16-0,22-2;17-0;20-5;17-7;19-3;12-0,20-5,4.81,42,17,1385.23484578
GEMS104,2018_Feb_23_1300,George,PME,orientation,8,6,4,ReverseBoth,5-5,20,19,selected,20-5,22-12;23-10;16-3;23-0;19-5;19-8,16-3,0.97,32,-10,1389.77707318
GEMS104,2018_Feb_23_1300,George,PME,orientation,8,6,4,ReverseBoth,5-5,20,20,selected,16-3,20-6;21-1;14-8;22-8;14-10;13-6,14-8,2.21,37,5,1395.56930851
GEMS104,2018_Feb_23_1300,George,PME,orientation,8,6,4,ReverseBoth,5-5,20,21,selected,14-8,14-8;15-14;19-7;12-13;8-4;15-5,15-14,1.28,49,12,1400.42852159
GEMS104,2018_Feb_23_1300,George,PME,orientation,8,6,4,ReverseBoth,5-5,20,22,selected,15-14,15-7;21-10;12-9;8-13;17-12;15-13,12-9,2.7,38,-11,1406.70125543
GEMS104,2018_Feb_23_1300,George,PME,orientation,8,6,4,ReverseBoth,5-5,20,23,selected,12-9,13-10;19-12;15-9;17-4;19-9;17-15,19-12,0.62,49,11,1410.8829681
GEMS104,2018_Feb_23_1300,George,PME,orientation,8,6,4,ReverseBoth,5-5,20,24,selected,19-12,20-5;24-6;19-17;22-13;22-18;18-10,24-6,1.16,47,-2,1415.61577217
GEMS104,2018_Feb_23_1300,George,PME,orientation,8,6,4,ReverseBoth,5-5,20,25,selected,24-6,22-11;24-3;27-1;28-9;27-5;24-0,24-3,0.66,43,-4,1419.85733221
GEMS104,2018_Feb_23_1300,George,PME,orientation,8,6,4,ReverseBoth,5-5,20,26,selected,24-3,26-10;21-1;18-3;29-0;26-4;25-10,21-1,0.45,35,-8,1423.87827523
GEMS104,2018_Feb_23_1300,George,PME,orientation,8,6,4,ReverseBoth,5-5,20,27,selected,21-1,16-3;24-8;19-5;15-2;18-0;23-6,19-5,1.44,39,4,1428.9054418
GEMS104,2018_Feb_23_1300,George,PME,orientation,8,6,4,ReverseBoth,5-5,20,28,selected,19-5,16-8;20-2;25-4;17-7;12-7;15-6,12-7,1.95,33,-6,1434.4320855
GEMS104,2018_Feb_23_1300,George,PME,orientation,8,6,4,ReverseBoth,5-5,20,29,selected,12-7,6-3;15-3;16-9;14-7;10-2;13-6,6-3,1.54,16,-17,1439.5368985
GEMS104,2018_Feb_23_1300,George,PME,orientation,8,6,4,ReverseBoth,5-5,20,30,selected,6-3,4-2;6-1;9-10;9-3;5-0;9-0,9-3,2.52,21,5,1445.6438955
GEMS104,2018_Feb_23_1300,George,PME,orientation,8,6,4,ReverseBoth,5-5,20,31,selected,9-3,16-6;5-9;3-3;8-1;4-7;8-4,16-6,1.14,39,18,1450.35996578
GEMS104,2018_Feb_23_1300,George,PME,orientation,8,6,4,ReverseBoth,5-5,20,32,selected,16-6,14-3;9-8;15-6;18-6;23-9;18-10,14-3,3.35,27,-12,1457.29136611
GEMS104,2018_Feb_23_1300,George,PME,orientation,8,6,4,ReverseBoth,5-5,20,33,selected,14-3,10-8;14-10;16-5;9-9;11-3;12-1,14-10,1.44,42,15,1462.30192596
GEMS104,2018_Feb_23_1300,George,PME,orientation,8,6,4,ReverseBoth,5-5,20,34,selected,14-10,8-13;20-8;12-16;19-15;12-14;20-6,20-8,0.92,47,5,1466.80724126
GEMS104,2018_Feb_23_1300,George,PME,orientation,8,6,4,ReverseBoth,5-5,20,35,selected,20-8,21-14;25-11;24-6;13-11;22-7;16-5,25-11,0.75,58,11,1471.13426504
GEMS104,2018_Feb_23_1300,George,PME,orientation,8,6,4,ReverseBoth,5-5,20,36,selected,25-11,28-6;31-12;20-10;23-4;20-16;32-8,31-12,0.76,61,3,1475.46918358
GEMS104,2018_Feb_23_1300,George,PME,orientation,8,6,4,ReverseBoth,5-5,20,37,selected,31-12,36-16;34-15;34-16;32-8;24-12;30-14,34-15,2.66,69,8,1481.69652031
GEMS104,2018_Feb_23_1300,George,PME,orientation,8,6,4,ReverseBoth,5-5,20,38,selected,34-15,27-16;39-15;32-12;37-14;37-15;31-11,39-15,0.69,73,4,1485.96501229
GEMS104,2018_Feb_23_1300,George,PME,orientation,8,6,4,ReverseBoth,5-5,20,39,selected,39-15,40-14;41-15;40-16;31-15;43-9;46-16,31-15,1.52,68,-5,1491.04646399
GEMS104,2018_Feb_23_1300,George,PME,orientation,8,6,4,ReverseBoth,5-5,20,40,selected,31-15,34-11;28-17;33-20;31-13;28-12;36-14,33-20,1.41,75,7,1496.01957013
GEMS104,2018_Feb_23_1300,George,PME,orientation,8,6,4,ReverseBoth,5-5,20,41,selected,33-20,30-21;26-21;37-17;26-18;26-23;31-14,37-17,1.04,73,-2,1500.6397327
GEMS104,2018_Feb_23_1300,George,PME,orientation,8,6,4,ReverseBoth,5-5,20,42,selected,37-17,39-16;40-15;44-14;32-23;36-21;33-14,40-15,0.61,73,0,1504.81688949
GEMS104,2018_Feb_23_1300,George,PME,orientation,8,6,4,ReverseBoth,5-5,20,43,selected,40-15,45-20;36-14;35-14;45-19;42-19;42-16,36-14,0.92,68,-5,1509.32085367
GEMS104,2018_Feb_23_1300,George,PME,orientation,8,6,4,ReverseBoth,5-5,20,44,selected,36-14,40-14;38-12;31-20;36-9;33-13;33-12,31-20,0.66,75,7,1513.56654195
