subj_id,date,computer,experimenter,instructions,sight_radius,n_gabors,landscape_ix,landscape_name,starting_pos,starting_score,trial,feedback,pos,stims,selected,rt,score,delta,exp_time
GEMS124,2018_Mar_07_1202,Jerry,sf,spatial_frequency,8,6,0,SpatialFrequencyBias,0-0,0,0,training,0-0,0-1;4-6;6-2;6-4;3-5;0-6,3-5,5.66,19,19,109.905951583
GEMS124,2018_Mar_07_1202,Jerry,sf,spatial_frequency,8,6,0,SpatialFrequencyBias,0-0,0,1,training,3-5,6-8;10-7;7-7;10-8;7-1;0-3,10-8,2.44,29,10,118.673014856
GEMS124,2018_Mar_07_1202,Jerry,sf,spatial_frequency,8,6,0,SpatialFrequencyBias,0-0,0,2,training,10-8,14-7;4-11;7-1;10-16;5-13;11-4,10-16,2.93,53,24,127.160774343
GEMS124,2018_Mar_07_1202,Jerry,sf,spatial_frequency,8,6,0,SpatialFrequencyBias,0-0,0,3,training,10-16,7-20;8-11;12-9;14-22;9-23;15-19,12-9,2.29,32,-21,132.609433202
GEMS124,2018_Mar_07_1202,Jerry,sf,spatial_frequency,8,6,0,SpatialFrequencyBias,0-0,0,4,training,12-9,15-8;18-12;8-7;16-13;15-6;10-9,18-12,1.94,42,10,139.549839265
GEMS124,2018_Mar_07_1202,Jerry,sf,spatial_frequency,8,6,0,SpatialFrequencyBias,0-0,0,5,training,18-12,18-18;17-7;18-10;17-18;12-8;25-12,18-18,2.3,59,17,145.571471784
GEMS124,2018_Mar_07_1202,Jerry,sf,spatial_frequency,8,6,0,SpatialFrequencyBias,0-0,0,6,training,18-18,17-23;15-16;10-18;14-12;24-14;23-17,14-12,3.4,42,-17,152.264772848
GEMS124,2018_Mar_07_1202,Jerry,sf,spatial_frequency,8,6,0,SpatialFrequencyBias,0-0,0,7,training,14-12,11-13;9-17;9-6;17-10;14-20;10-13,14-20,2.8,64,22,160.353721544
GEMS124,2018_Mar_07_1202,Jerry,sf,spatial_frequency,8,6,0,SpatialFrequencyBias,0-0,0,8,training,14-20,17-16;9-26;8-22;19-22;14-19;13-13,17-16,2.92,53,-11,165.792250103
GEMS124,2018_Mar_07_1202,Jerry,sf,spatial_frequency,8,6,0,SpatialFrequencyBias,0-0,0,9,training,17-16,22-20;12-11;12-19;13-17;11-19;19-21,13-17,2.94,56,3,173.087831892
GEMS124,2018_Mar_07_1202,Jerry,sf,spatial_frequency,8,6,0,SpatialFrequencyBias,0-0,0,10,training,13-17,9-20;17-21;17-20;21-17;15-20;8-18,9-20,2.11,64,8,177.986276657
GEMS124,2018_Mar_07_1202,Jerry,sf,spatial_frequency,8,6,0,SpatialFrequencyBias,0-0,0,11,training,9-20,7-15;8-13;12-23;9-21;14-21;6-25,7-15,1.89,51,-13,183.276191202
GEMS124,2018_Mar_07_1202,Jerry,sf,spatial_frequency,8,6,0,SpatialFrequencyBias,0-0,0,12,training,7-15,13-12;14-18;9-18;3-15;6-21;10-18,14-18,2.4,59,8,189.262861893
GEMS124,2018_Mar_07_1202,Jerry,sf,spatial_frequency,8,6,0,SpatialFrequencyBias,0-0,0,13,training,14-18,15-13;9-23;17-18;11-23;11-17;19-16,15-13,5.81,45,-14,198.115803531
GEMS124,2018_Mar_07_1202,Jerry,sf,spatial_frequency,8,6,0,SpatialFrequencyBias,0-0,0,14,training,15-13,18-20;8-10;16-9;14-6;8-13;17-16,17-16,2.48,53,8,203.535988525
GEMS124,2018_Mar_07_1202,Jerry,sf,spatial_frequency,8,6,0,SpatialFrequencyBias,0-0,0,15,training,17-16,20-13;20-16;20-14;21-17;15-16;22-10,21-17,3.39,56,3,209.531029646
GEMS124,2018_Mar_07_1202,Jerry,sf,spatial_frequency,8,6,0,SpatialFrequencyBias,0-0,0,16,training,21-17,15-21;26-21;22-10;19-23;27-21;19-18,19-23,3.09,70,14,215.979251578
GEMS124,2018_Mar_07_1202,Jerry,sf,spatial_frequency,8,6,0,SpatialFrequencyBias,0-0,0,17,training,19-23,11-23;13-24;23-19;26-23;24-25;25-20,11-23,2.9,70,0,221.705604155
GEMS124,2018_Mar_07_1202,Jerry,sf,spatial_frequency,8,6,0,SpatialFrequencyBias,0-0,0,18,training,11-23,10-23;12-16;8-25;14-16;12-29;5-18,5-18,2.68,59,-11,227.168428725
GEMS124,2018_Mar_07_1202,Jerry,sf,spatial_frequency,8,6,0,SpatialFrequencyBias,0-0,0,19,training,5-18,2-25;6-22;10-23;6-20;6-23;11-13,6-23,7.34,70,11,236.85191606
GEMS124,2018_Mar_07_1202,Jerry,sf,spatial_frequency,8,6,0,SpatialFrequencyBias,0-0,0,20,training,6-23,4-29;1-25;5-22;1-20;11-25;13-21,1-20,2.02,64,-6,242.199511666
GEMS124,2018_Mar_07_1202,Jerry,sf,spatial_frequency,8,6,0,SpatialFrequencyBias,0-0,0,21,training,1-20,4-16;4-17;2-19;3-14;0-24;7-18,2-19,1.67,61,-3,246.681730666
GEMS124,2018_Mar_07_1202,Jerry,sf,spatial_frequency,8,6,0,SpatialFrequencyBias,0-0,0,22,training,2-19,2-14;3-14;2-20;9-19;6-16;8-14,9-19,2.22,61,0,251.599861464
GEMS124,2018_Mar_07_1202,Jerry,sf,spatial_frequency,8,6,0,SpatialFrequencyBias,0-0,0,23,training,9-19,4-25;3-22;11-24;6-16;10-19;12-19,10-19,2.25,61,0,256.815713233
GEMS124,2018_Mar_07_1202,Jerry,sf,spatial_frequency,8,6,0,SpatialFrequencyBias,0-0,0,24,training,10-19,8-20;15-13;8-22;14-15;5-15;5-24,8-20,1.41,64,3,261.345026541
GEMS124,2018_Mar_07_1202,Jerry,sf,spatial_frequency,8,6,0,SpatialFrequencyBias,0-0,0,25,training,8-20,2-22;6-14;8-15;16-20;8-19;8-22,2-22,2.0,68,4,267.863057534
GEMS124,2018_Mar_07_1202,Jerry,sf,spatial_frequency,8,6,0,SpatialFrequencyBias,0-0,0,26,training,2-22,6-21;0-25;5-20;6-17;2-19;3-29,0-25,1.43,75,7,272.190810261
GEMS124,2018_Mar_07_1202,Jerry,sf,spatial_frequency,8,6,0,SpatialFrequencyBias,0-0,0,27,training,0-25,6-25;4-29;2-29;0-19;3-24;4-24,2-29,1.48,82,7,278.474472111
GEMS124,2018_Mar_07_1202,Jerry,sf,spatial_frequency,8,6,0,SpatialFrequencyBias,0-0,0,28,training,2-29,4-30;3-28;3-25;5-30;0-23;1-24,3-25,1.6,75,-7,282.753190766
GEMS124,2018_Mar_07_1202,Jerry,sf,spatial_frequency,8,6,0,SpatialFrequencyBias,0-0,0,29,training,3-25,4-20;1-18;1-30;4-22;8-22;9-27,1-30,3.0,84,9,289.84058125
GEMS124,2018_Mar_07_1202,Jerry,sf,spatial_frequency,8,6,1,SimpleHill,0-0,0,0,selected,0-0,6-0;3-4;2-1;4-5;0-2;6-3,4-5,2.32,17,17,309.110479746
GEMS124,2018_Mar_07_1202,Jerry,sf,spatial_frequency,8,6,1,SimpleHill,0-0,0,1,selected,4-5,1-8;1-3;7-12;5-12;7-6;0-7,5-12,1.88,30,13,314.54310163
GEMS124,2018_Mar_07_1202,Jerry,sf,spatial_frequency,8,6,1,SimpleHill,0-0,0,2,selected,5-12,2-11;4-14;4-6;7-17;2-18;9-7,7-17,1.81,41,11,319.90614556
GEMS124,2018_Mar_07_1202,Jerry,sf,spatial_frequency,8,6,1,SimpleHill,0-0,0,3,selected,7-17,7-9;13-14;3-11;2-22;9-24;2-18,2-22,0.66,38,-3,324.135114096
GEMS124,2018_Mar_07_1202,Jerry,sf,spatial_frequency,8,6,1,SimpleHill,0-0,0,4,selected,2-22,8-17;4-21;8-23;3-25;2-28;9-22,8-17,1.56,42,4,329.264061921
GEMS124,2018_Mar_07_1202,Jerry,sf,spatial_frequency,8,6,1,SimpleHill,0-0,0,5,selected,8-17,5-22;4-21;6-11;12-15;13-14;13-22,12-15,2.09,46,4,334.938183658
GEMS124,2018_Mar_07_1202,Jerry,sf,spatial_frequency,8,6,1,SimpleHill,0-0,0,6,selected,12-15,13-11;13-9;9-11;12-19;10-12;17-16,12-19,2.36,51,5,340.858429631
GEMS124,2018_Mar_07_1202,Jerry,sf,spatial_frequency,8,6,1,SimpleHill,0-0,0,7,selected,12-19,7-14;7-17;18-15;6-21;20-19;8-19,7-14,1.94,37,-14,346.377594393
GEMS124,2018_Mar_07_1202,Jerry,sf,spatial_frequency,8,6,1,SimpleHill,0-0,0,8,selected,7-14,1-17;12-20;9-12;3-12;10-20;10-16,12-20,2.12,53,16,352.067916992
GEMS124,2018_Mar_07_1202,Jerry,sf,spatial_frequency,8,6,1,SimpleHill,0-0,0,9,selected,12-20,5-17;10-20;17-23;18-22;17-24;18-24,18-22,1.45,63,10,357.087833173
GEMS124,2018_Mar_07_1202,Jerry,sf,spatial_frequency,8,6,1,SimpleHill,0-0,0,10,selected,18-22,21-26;13-19;22-21;13-22;11-22;18-16,13-22,0.99,56,-7,361.650834338
GEMS124,2018_Mar_07_1202,Jerry,sf,spatial_frequency,8,6,1,SimpleHill,0-0,0,11,selected,13-22,9-23;18-16;9-27;17-16;11-22;15-25,18-16,3.24,56,0,368.483657497
GEMS124,2018_Mar_07_1202,Jerry,sf,spatial_frequency,8,6,1,SimpleHill,0-0,0,12,selected,18-16,13-10;14-11;23-22;24-12;26-16;22-22,24-12,3.06,57,1,375.119249651
GEMS124,2018_Mar_07_1202,Jerry,sf,spatial_frequency,8,6,1,SimpleHill,0-0,0,13,selected,24-12,21-18;25-8;20-10;27-10;25-10;24-7,25-10,2.7,55,-2,381.40059915
GEMS124,2018_Mar_07_1202,Jerry,sf,spatial_frequency,8,6,1,SimpleHill,0-0,0,14,selected,25-10,28-13;31-7;23-17;31-10;21-14;22-6,28-13,1.13,62,7,386.10863505
GEMS124,2018_Mar_07_1202,Jerry,sf,spatial_frequency,8,6,1,SimpleHill,0-0,0,15,selected,28-13,30-15;30-13;28-21;26-18;22-9;29-14,26-18,1.85,68,6,391.523787864
GEMS124,2018_Mar_07_1202,Jerry,sf,spatial_frequency,8,6,1,SimpleHill,0-0,0,16,selected,26-18,31-22;28-12;25-24;22-20;29-23;23-19,28-12,2.72,61,-7,397.831157715
GEMS124,2018_Mar_07_1202,Jerry,sf,spatial_frequency,8,6,1,SimpleHill,0-0,0,17,selected,28-12,32-12;35-9;32-11;31-6;34-17;31-18,34-17,2.44,73,12,403.850286147
GEMS124,2018_Mar_07_1202,Jerry,sf,spatial_frequency,8,6,1,SimpleHill,0-0,0,18,selected,34-17,39-19;40-16;37-13;30-22;32-18;36-24,37-13,1.79,69,-4,409.213638006
GEMS124,2018_Mar_07_1202,Jerry,sf,spatial_frequency,8,6,1,SimpleHill,0-0,0,19,selected,37-13,40-18;39-13;37-9;43-11;42-7;31-15,39-13,2.17,70,1,414.952502374
GEMS124,2018_Mar_07_1202,Jerry,sf,spatial_frequency,8,6,1,SimpleHill,0-0,0,20,selected,39-13,41-15;38-11;34-16;38-13;46-10;34-9,38-13,4.99,69,-1,423.508348503
GEMS124,2018_Mar_07_1202,Jerry,sf,spatial_frequency,8,6,1,SimpleHill,0-0,0,21,selected,38-13,33-10;34-17;42-9;36-10;39-9;36-11,34-17,1.07,73,4,428.149433452
GEMS124,2018_Mar_07_1202,Jerry,sf,spatial_frequency,8,6,1,SimpleHill,0-0,0,22,selected,34-17,41-20;36-19;37-18;37-13;27-20;37-17,36-19,1.1,76,3,432.837662323
GEMS124,2018_Mar_07_1202,Jerry,sf,spatial_frequency,8,6,1,SimpleHill,0-0,0,23,selected,36-19,41-17;31-17;33-22;40-13;40-23;38-16,31-17,0.75,71,-5,437.161489751
GEMS124,2018_Mar_07_1202,Jerry,sf,spatial_frequency,8,6,1,SimpleHill,0-0,0,24,selected,31-17,29-13;28-22;35-16;36-15;33-22;38-15,35-16,1.67,72,1,442.417897611
GEMS124,2018_Mar_07_1202,Jerry,sf,spatial_frequency,8,6,1,SimpleHill,0-0,0,25,selected,35-16,35-9;41-13;30-10;33-12;38-17;42-16,33-12,3.55,65,-7,449.554667867
GEMS124,2018_Mar_07_1202,Jerry,sf,spatial_frequency,8,6,1,SimpleHill,0-0,0,26,selected,33-12,40-14;38-8;30-18;34-7;38-9;35-17,30-18,0.93,71,6,454.075984614
GEMS124,2018_Mar_07_1202,Jerry,sf,spatial_frequency,8,6,1,SimpleHill,0-0,0,27,selected,30-18,32-17;35-16;36-19;30-14;34-20;31-13,36-19,0.86,76,5,458.513827853
GEMS124,2018_Mar_07_1202,Jerry,sf,spatial_frequency,8,6,1,SimpleHill,0-0,0,28,selected,36-19,35-15;41-22;32-23;33-22;43-17;41-19,33-22,1.36,78,2,463.457765502
GEMS124,2018_Mar_07_1202,Jerry,sf,spatial_frequency,8,6,1,SimpleHill,0-0,0,29,selected,33-22,32-19;37-24;37-26;38-27;31-24;31-16,32-19,0.87,74,-4,467.891333581
GEMS124,2018_Mar_07_1202,Jerry,sf,spatial_frequency,8,6,1,SimpleHill,0-0,0,30,selected,32-19,27-17;36-22;35-18;32-24;27-14;28-20,27-17,1.62,67,-7,473.102427809
GEMS124,2018_Mar_07_1202,Jerry,sf,spatial_frequency,8,6,1,SimpleHill,0-0,0,31,selected,27-17,29-11;32-12;24-14;32-20;23-19;29-13,32-20,0.75,75,8,477.429117827
GEMS124,2018_Mar_07_1202,Jerry,sf,spatial_frequency,8,6,1,SimpleHill,0-0,0,32,selected,32-20,29-22;28-17;24-20;32-16;37-25;39-22,32-16,1.38,70,-5,482.371208219
GEMS124,2018_Mar_07_1202,Jerry,sf,spatial_frequency,8,6,1,SimpleHill,0-0,0,33,selected,32-16,39-15;33-15;28-19;37-12;34-18;27-15,28-19,1.09,71,1,487.029472554
GEMS124,2018_Mar_07_1202,Jerry,sf,spatial_frequency,8,6,1,SimpleHill,0-0,0,34,selected,28-19,23-17;31-12;27-19;32-25;28-19;23-14,31-12,1.65,63,-8,492.256737876
GEMS124,2018_Mar_07_1202,Jerry,sf,spatial_frequency,8,6,1,SimpleHill,0-0,0,35,selected,31-12,35-7;33-16;34-14;35-13;35-17;27-13,35-17,1.54,73,10,497.373378129
GEMS124,2018_Mar_07_1202,Jerry,sf,spatial_frequency,8,6,1,SimpleHill,0-0,0,36,selected,35-17,33-21;40-14;36-20;38-11;38-10;39-14,39-14,0.81,71,-2,501.765242904
GEMS124,2018_Mar_07_1202,Jerry,sf,spatial_frequency,8,6,1,SimpleHill,0-0,0,37,selected,39-14,36-16;43-20;39-16;45-10;38-7;46-13,36-16,2.15,72,1,507.492768301
GEMS124,2018_Mar_07_1202,Jerry,sf,spatial_frequency,8,6,1,SimpleHill,0-0,0,38,selected,36-16,36-18;32-13;34-14;40-17;36-23;38-18,40-17,1.71,76,4,512.761075294
GEMS124,2018_Mar_07_1202,Jerry,sf,spatial_frequency,8,6,1,SimpleHill,0-0,0,39,selected,40-17,38-20;44-19;34-14;40-9;39-14;36-13,34-14,1.98,68,-8,518.30505718
GEMS124,2018_Mar_07_1202,Jerry,sf,spatial_frequency,8,6,2,SimpleHill,0-0,0,0,selected,0-0,7-2;0-3;3-7;1-4;1-2;5-5,0-3,1.87,5,5,541.255022818
GEMS124,2018_Mar_07_1202,Jerry,sf,spatial_frequency,8,6,2,SimpleHill,0-0,0,1,selected,0-3,0-8;5-2;7-1;6-6;5-8;0-1,5-2,0.77,13,8,545.594126999
GEMS124,2018_Mar_07_1202,Jerry,sf,spatial_frequency,8,6,2,SimpleHill,0-0,0,2,selected,5-2,10-4;4-9;6-8;8-2;6-3;4-2,10-4,2.79,25,12,551.960644257
GEMS124,2018_Mar_07_1202,Jerry,sf,spatial_frequency,8,6,2,SimpleHill,0-0,0,3,selected,10-4,3-6;10-5;5-9;14-5;13-7;12-1,3-6,2.66,17,-8,558.172903303
GEMS124,2018_Mar_07_1202,Jerry,sf,spatial_frequency,8,6,2,SimpleHill,0-0,0,4,selected,3-6,1-3;1-8;7-0;10-5;0-2;5-12,10-5,0.62,27,10,562.384051307
GEMS124,2018_Mar_07_1202,Jerry,sf,spatial_frequency,8,6,2,SimpleHill,0-0,0,5,selected,10-5,14-11;6-1;15-4;4-8;13-7;5-4,15-4,1.45,33,6,567.425864723
GEMS124,2018_Mar_07_1202,Jerry,sf,spatial_frequency,8,6,2,SimpleHill,0-0,0,6,selected,15-4,12-5;11-6;20-0;9-1;14-1;15-5,11-6,1.65,30,-3,572.641923912
GEMS124,2018_Mar_07_1202,Jerry,sf,spatial_frequency,8,6,2,SimpleHill,0-0,0,7,selected,11-6,7-11;13-12;14-9;9-8;13-0;14-8,13-0,1.78,22,-8,577.974497878
GEMS124,2018_Mar_07_1202,Jerry,sf,spatial_frequency,8,6,2,SimpleHill,0-0,0,8,selected,13-0,12-0;9-5;9-1;16-6;17-3;12-5,9-5,1.53,25,3,583.081221654
GEMS124,2018_Mar_07_1202,Jerry,sf,spatial_frequency,8,6,2,SimpleHill,0-0,0,9,selected,9-5,8-7;7-0;7-1;11-6;3-1;12-4,7-0,0.46,13,-12,587.115120132
GEMS124,2018_Mar_07_1202,Jerry,sf,spatial_frequency,8,6,2,SimpleHill,0-0,0,10,selected,7-0,7-8;13-2;1-0;11-5;12-4;6-0,12-4,1.43,28,15,592.131596275
GEMS124,2018_Mar_07_1202,Jerry,sf,spatial_frequency,8,6,2,SimpleHill,0-0,0,11,selected,12-4,14-4;16-1;17-10;14-10;9-8;6-4,9-8,0.91,31,3,596.609224181
GEMS124,2018_Mar_07_1202,Jerry,sf,spatial_frequency,8,6,2,SimpleHill,0-0,0,12,selected,9-8,3-5;9-3;11-6;7-15;9-7;12-15,9-7,1.97,29,-2,602.149091272
GEMS124,2018_Mar_07_1202,Jerry,sf,spatial_frequency,8,6,2,SimpleHill,0-0,0,13,selected,9-7,12-0;10-6;9-3;7-7;4-10;2-7,9-3,1.26,22,-7,606.977637029
GEMS124,2018_Mar_07_1202,Jerry,sf,spatial_frequency,8,6,2,SimpleHill,0-0,0,14,selected,9-3,2-4;13-2;10-3;16-4;5-7;4-3,16-4,1.35,34,12,611.902898857
GEMS124,2018_Mar_07_1202,Jerry,sf,spatial_frequency,8,6,2,SimpleHill,0-0,0,15,selected,16-4,16-1;14-9;20-9;14-4;20-6;9-3,14-4,0.67,31,-3,616.143516854
GEMS124,2018_Mar_07_1202,Jerry,sf,spatial_frequency,8,6,2,SimpleHill,0-0,0,16,selected,14-4,15-7;19-6;12-5;11-4;18-9;8-4,11-4,0.5,27,-4,620.20610494
GEMS124,2018_Mar_07_1202,Jerry,sf,spatial_frequency,8,6,2,SimpleHill,0-0,0,17,selected,11-4,15-5;6-0;13-11;14-2;9-4;12-0,14-2,0.62,28,1,624.401711473
GEMS124,2018_Mar_07_1202,Jerry,sf,spatial_frequency,8,6,2,SimpleHill,0-0,0,18,selected,14-2,14-6;20-2;9-5;18-8;16-2;10-5,18-8,1.35,44,16,629.334613598
GEMS124,2018_Mar_07_1202,Jerry,sf,spatial_frequency,8,6,2,SimpleHill,0-0,0,19,selected,18-8,22-3;11-9;16-11;19-8;17-7;20-11,19-8,0.69,45,1,633.614073909
GEMS124,2018_Mar_07_1202,Jerry,sf,spatial_frequency,8,6,2,SimpleHill,0-0,0,20,selected,19-8,12-6;19-3;16-15;18-5;19-8;24-7,18-5,0.93,39,-6,638.105195652
GEMS124,2018_Mar_07_1202,Jerry,sf,spatial_frequency,8,6,2,SimpleHill,0-0,0,21,selected,18-5,13-1;24-9;15-7;23-2;22-3;21-8,15-7,1.14,38,-1,642.816127753
GEMS124,2018_Mar_07_1202,Jerry,sf,spatial_frequency,8,6,2,SimpleHill,0-0,0,22,selected,15-7,10-4;10-9;16-9;10-5;19-7;13-5,10-5,2.46,27,-11,648.864825727
GEMS124,2018_Mar_07_1202,Jerry,sf,spatial_frequency,8,6,2,SimpleHill,0-0,0,23,selected,10-5,15-5;8-2;5-2;15-0;7-3;15-6,15-5,1.64,35,8,654.042077813
GEMS124,2018_Mar_07_1202,Jerry,sf,spatial_frequency,8,6,2,SimpleHill,0-0,0,24,selected,15-5,21-9;16-1;9-0;11-9;11-4;17-12,11-4,1.28,27,-8,658.898925544
GEMS124,2018_Mar_07_1202,Jerry,sf,spatial_frequency,8,6,2,SimpleHill,0-0,0,25,selected,11-4,18-1;15-3;12-7;5-2;13-8;8-3,12-7,1.52,34,7,663.99024965
GEMS124,2018_Mar_07_1202,Jerry,sf,spatial_frequency,8,6,2,SimpleHill,0-0,0,26,selected,12-7,18-10;15-4;6-6;16-10;10-1;13-3,18-10,1.77,47,13,669.341210713
GEMS124,2018_Mar_07_1202,Jerry,sf,spatial_frequency,8,6,2,SimpleHill,0-0,0,27,selected,18-10,20-15;19-12;16-14;23-14;25-13;17-3,16-14,1.65,50,3,674.568958414
GEMS124,2018_Mar_07_1202,Jerry,sf,spatial_frequency,8,6,2,SimpleHill,0-0,0,28,selected,16-14,22-17;9-11;19-21;20-10;12-20;18-11,20-10,1.14,50,0,679.28366345
GEMS124,2018_Mar_07_1202,Jerry,sf,spatial_frequency,8,6,2,SimpleHill,0-0,0,29,selected,20-10,24-16;14-6;20-17;23-16;23-15;20-15,14-6,1.46,35,-15,684.321822046
GEMS124,2018_Mar_07_1202,Jerry,sf,spatial_frequency,8,6,2,SimpleHill,0-0,0,30,selected,14-6,16-5;19-5;18-8;19-10;16-3;9-1,18-8,1.15,44,9,689.04403166
GEMS124,2018_Mar_07_1202,Jerry,sf,spatial_frequency,8,6,2,SimpleHill,0-0,0,31,selected,18-8,21-7;18-7;12-12;18-2;24-4;15-7,12-12,1.75,42,-2,694.379842085
GEMS124,2018_Mar_07_1202,Jerry,sf,spatial_frequency,8,6,2,SimpleHill,0-0,0,32,selected,12-12,9-17;5-9;18-7;14-16;7-9;15-17,14-16,2.16,50,8,700.098320697
GEMS124,2018_Mar_07_1202,Jerry,sf,spatial_frequency,8,6,2,SimpleHill,0-0,0,33,selected,14-16,19-13;17-23;16-13;19-15;16-19;13-20,19-13,1.83,53,3,705.502172951
GEMS124,2018_Mar_07_1202,Jerry,sf,spatial_frequency,8,6,2,SimpleHill,0-0,0,34,selected,19-13,18-18;19-14;17-12;13-17;17-13;22-20,19-14,1.42,54,1,710.507657422
GEMS124,2018_Mar_07_1202,Jerry,sf,spatial_frequency,8,6,2,SimpleHill,0-0,0,35,selected,19-14,23-18;22-21;19-11;24-12;19-15;19-22,19-15,1.06,56,2,715.146030224
GEMS124,2018_Mar_07_1202,Jerry,sf,spatial_frequency,8,6,2,SimpleHill,0-0,0,36,selected,19-15,25-13;21-16;22-16;15-9;20-15;17-13,15-9,3.49,41,-15,722.209085645
GEMS124,2018_Mar_07_1202,Jerry,sf,spatial_frequency,8,6,2,SimpleHill,0-0,0,37,selected,15-9,9-8;16-5;17-4;8-6;15-16;15-14,9-8,0.93,31,-10,726.732183709
GEMS124,2018_Mar_07_1202,Jerry,sf,spatial_frequency,8,6,2,SimpleHill,0-0,0,38,selected,9-8,9-2;6-13;12-2;2-11;10-4;13-7,2-11,1.41,23,-8,731.722939426
GEMS124,2018_Mar_07_1202,Jerry,sf,spatial_frequency,8,6,2,SimpleHill,0-0,0,39,selected,2-11,5-5;3-6;5-7;2-5;3-17;0-15,3-17,1.85,34,11,737.138015738
GEMS124,2018_Mar_07_1202,Jerry,sf,spatial_frequency,8,6,3,SimpleHill,0-0,0,0,selected,0-0,0-1;1-7;4-6;6-1;6-3;5-6,0-1,1.17,1,1,750.015560036
GEMS124,2018_Mar_07_1202,Jerry,sf,spatial_frequency,8,6,3,SimpleHill,0-0,0,1,selected,0-1,2-1;6-0;5-6;7-4;3-0;1-8,2-1,0.39,5,4,753.992123794
GEMS124,2018_Mar_07_1202,Jerry,sf,spatial_frequency,8,6,3,SimpleHill,0-0,0,2,selected,2-1,7-2;5-8;6-4;0-8;2-6;4-1,0-8,1.88,14,9,759.435532489
GEMS124,2018_Mar_07_1202,Jerry,sf,spatial_frequency,8,6,3,SimpleHill,0-0,0,3,selected,0-8,5-5;3-10;1-15;6-5;2-11;4-13,1-15,1.74,27,13,764.744872192
GEMS124,2018_Mar_07_1202,Jerry,sf,spatial_frequency,8,6,3,SimpleHill,0-0,0,4,selected,1-15,0-22;2-12;7-11;7-18;1-20;8-15,7-11,1.6,32,5,769.930702127
GEMS124,2018_Mar_07_1202,Jerry,sf,spatial_frequency,8,6,3,SimpleHill,0-0,0,5,selected,7-11,12-15;8-12;3-7;14-9;6-10;9-15,9-15,2.08,41,9,775.586898021
GEMS124,2018_Mar_07_1202,Jerry,sf,spatial_frequency,8,6,3,SimpleHill,0-0,0,6,selected,9-15,4-18;5-20;9-17;7-10;3-13;5-21,7-10,1.21,31,-10,780.364887025
GEMS124,2018_Mar_07_1202,Jerry,sf,spatial_frequency,8,6,3,SimpleHill,0-0,0,7,selected,7-10,11-8;5-3;7-12;7-9;14-7;3-13,7-12,1.75,34,3,785.696969008
GEMS124,2018_Mar_07_1202,Jerry,sf,spatial_frequency,8,6,3,SimpleHill,0-0,0,8,selected,7-12,7-17;10-16;13-17;6-18;6-16;7-8,13-17,0.92,50,16,790.198780894
GEMS124,2018_Mar_07_1202,Jerry,sf,spatial_frequency,8,6,3,SimpleHill,0-0,0,9,selected,13-17,17-20;19-17;11-19;9-23;14-17;8-23,11-19,0.61,50,0,794.38716197
GEMS124,2018_Mar_07_1202,Jerry,sf,spatial_frequency,8,6,3,SimpleHill,0-0,0,10,selected,11-19,13-26;17-23;4-21;15-13;8-26;10-19,15-13,1.4,48,-2,799.37244986
GEMS124,2018_Mar_07_1202,Jerry,sf,spatial_frequency,8,6,3,SimpleHill,0-0,0,11,selected,15-13,15-5;11-12;9-18;14-19;16-6;9-10,9-18,1.42,45,-3,804.359452808
GEMS124,2018_Mar_07_1202,Jerry,sf,spatial_frequency,8,6,3,SimpleHill,0-0,0,12,selected,9-18,6-11;5-23;16-21;5-15;6-21;16-20,6-11,1.13,30,-15,809.059858653
GEMS124,2018_Mar_07_1202,Jerry,sf,spatial_frequency,8,6,3,SimpleHill,0-0,0,13,selected,6-11,9-13;13-10;10-10;4-10;0-11;5-7,4-10,1.09,25,-5,813.728214557
GEMS124,2018_Mar_07_1202,Jerry,sf,spatial_frequency,8,6,3,SimpleHill,0-0,0,14,selected,4-10,3-13;11-13;3-12;0-11;4-8;12-10,11-13,1.03,42,17,818.326472996
GEMS124,2018_Mar_07_1202,Jerry,sf,spatial_frequency,8,6,3,SimpleHill,0-0,0,15,selected,11-13,18-16;7-12;9-7;14-6;10-16;8-12,9-7,1.18,29,-13,823.085768253
GEMS124,2018_Mar_07_1202,Jerry,sf,spatial_frequency,8,6,3,SimpleHill,0-0,0,16,selected,9-7,9-13;15-2;12-7;8-1;8-12;3-3,8-1,0.53,16,-13,827.191115949
GEMS124,2018_Mar_07_1202,Jerry,sf,spatial_frequency,8,6,3,SimpleHill,0-0,0,17,selected,8-1,15-2;13-5;12-0;14-6;2-1;14-0,13-5,1.41,32,16,832.175263989
GEMS124,2018_Mar_07_1202,Jerry,sf,spatial_frequency,8,6,3,SimpleHill,0-0,0,18,selected,13-5,13-5;17-11;7-2;21-5;10-5;20-4,21-5,0.87,42,10,836.607948291
GEMS124,2018_Mar_07_1202,Jerry,sf,spatial_frequency,8,6,3,SimpleHill,0-0,0,19,selected,21-5,16-1;25-3;23-5;25-11;20-7;23-4,25-11,1.1,57,15,841.298696934
GEMS124,2018_Mar_07_1202,Jerry,sf,spatial_frequency,8,6,3,SimpleHill,0-0,0,20,selected,25-11,25-12;28-13;31-16;23-16;18-10;23-14,28-13,1.65,62,5,846.52449719
GEMS124,2018_Mar_07_1202,Jerry,sf,spatial_frequency,8,6,3,SimpleHill,0-0,0,21,selected,28-13,28-10;22-14;26-9;30-9;31-8;23-10,30-9,1.24,58,-4,851.338114454
GEMS124,2018_Mar_07_1202,Jerry,sf,spatial_frequency,8,6,3,SimpleHill,0-0,0,22,selected,30-9,25-7;33-4;25-10;37-6;25-9;34-7,25-10,1.3,55,-3,856.224611751
GEMS124,2018_Mar_07_1202,Jerry,sf,spatial_frequency,8,6,3,SimpleHill,0-0,0,23,selected,25-10,22-3;29-13;30-13;31-11;32-9;25-14,22-3,0.97,40,-15,860.767110966
GEMS124,2018_Mar_07_1202,Jerry,sf,spatial_frequency,8,6,3,SimpleHill,0-0,0,24,selected,22-3,19-0;27-3;15-6;27-6;18-7;29-0,27-6,0.83,50,10,865.17675178
GEMS124,2018_Mar_07_1202,Jerry,sf,spatial_frequency,8,6,3,SimpleHill,0-0,0,25,selected,27-6,29-13;20-5;33-9;31-3;32-9;26-12,31-3,0.51,48,-2,869.255244962
GEMS124,2018_Mar_07_1202,Jerry,sf,spatial_frequency,8,6,3,SimpleHill,0-0,0,26,selected,31-3,24-2;27-3;35-7;31-3;38-6;31-1,38-6,1.54,58,10,874.374963549
GEMS124,2018_Mar_07_1202,Jerry,sf,spatial_frequency,8,6,3,SimpleHill,0-0,0,27,selected,38-6,40-0;44-8;35-11;39-5;44-10;39-1,44-8,0.64,64,6,878.594430768
GEMS124,2018_Mar_07_1202,Jerry,sf,spatial_frequency,8,6,3,SimpleHill,0-0,0,28,selected,44-8,45-4;50-13;46-9;44-2;43-1;39-7,46-9,0.3,66,2,882.461460334
GEMS124,2018_Mar_07_1202,Jerry,sf,spatial_frequency,8,6,3,SimpleHill,0-0,0,29,selected,46-9,40-5;47-4;47-10;40-14;47-8;43-3,43-3,0.22,54,-12,886.257799624
GEMS124,2018_Mar_07_1202,Jerry,sf,spatial_frequency,8,6,3,SimpleHill,0-0,0,30,selected,43-3,40-3;49-2;43-4;45-10;46-9;44-9,45-10,0.36,67,13,890.196702851
GEMS124,2018_Mar_07_1202,Jerry,sf,spatial_frequency,8,6,3,SimpleHill,0-0,0,31,selected,45-10,48-12;44-11;44-3;49-14;42-8;39-15,48-12,0.29,71,4,894.059815761
GEMS124,2018_Mar_07_1202,Jerry,sf,spatial_frequency,8,6,3,SimpleHill,0-0,0,32,selected,48-12,45-5;46-7;42-14;49-6;42-9;46-10,42-9,0.45,65,-6,898.089223976
GEMS124,2018_Mar_07_1202,Jerry,sf,spatial_frequency,8,6,3,SimpleHill,0-0,0,33,selected,42-9,40-16;46-12;45-2;43-9;42-6;39-11,46-12,0.93,70,5,902.586219744
GEMS124,2018_Mar_07_1202,Jerry,sf,spatial_frequency,8,6,3,SimpleHill,0-0,0,34,selected,46-12,45-12;51-14;40-12;44-14;47-8;49-5,40-12,0.42,69,-1,906.590803155
GEMS124,2018_Mar_07_1202,Jerry,sf,spatial_frequency,8,6,3,SimpleHill,0-0,0,35,selected,40-12,40-15;44-14;33-15;45-15;42-8;37-15,37-15,0.59,72,3,910.753525903
GEMS124,2018_Mar_07_1202,Jerry,sf,spatial_frequency,8,6,3,SimpleHill,0-0,0,36,selected,37-15,31-16;34-10;36-9;31-10;35-14;33-13,31-10,0.49,60,-12,914.889547462
GEMS124,2018_Mar_07_1202,Jerry,sf,spatial_frequency,8,6,3,SimpleHill,0-0,0,37,selected,31-10,31-10;26-7;35-12;36-6;25-11;28-10,31-10,0.28,60,0,918.750401797
GEMS124,2018_Mar_07_1202,Jerry,sf,spatial_frequency,8,6,3,SimpleHill,0-0,0,38,selected,31-10,32-16;25-15;26-14;29-7;24-7;24-13,32-16,1.15,70,10,923.473768226
GEMS124,2018_Mar_07_1202,Jerry,sf,spatial_frequency,8,6,3,SimpleHill,0-0,0,39,selected,32-16,35-21;36-20;31-12;31-18;37-11;26-16,37-11,0.82,66,-4,927.859721846
GEMS124,2018_Mar_07_1202,Jerry,sf,spatial_frequency,8,6,4,SimpleHill,0-0,0,0,selected,0-0,1-4;3-6;4-2;5-1;7-3;2-0,4-2,1.56,11,11,942.369678495
GEMS124,2018_Mar_07_1202,Jerry,sf,spatial_frequency,8,6,4,SimpleHill,0-0,0,1,selected,4-2,5-3;3-8;1-4;5-1;11-4;1-1,1-1,0.34,3,-8,946.269827115
GEMS124,2018_Mar_07_1202,Jerry,sf,spatial_frequency,8,6,4,SimpleHill,0-0,0,2,selected,1-1,0-0;7-4;2-7;4-6;3-6;6-7,7-4,0.24,20,17,950.069125343
GEMS124,2018_Mar_07_1202,Jerry,sf,spatial_frequency,8,6,4,SimpleHill,0-0,0,3,selected,7-4,7-1;1-2;4-7;8-9;10-2;0-2,8-9,0.49,31,11,954.138703937
GEMS124,2018_Mar_07_1202,Jerry,sf,spatial_frequency,8,6,4,SimpleHill,0-0,0,4,selected,8-9,4-7;5-10;3-3;10-15;13-4;1-9,4-7,0.79,20,-11,958.497041861
GEMS124,2018_Mar_07_1202,Jerry,sf,spatial_frequency,8,6,4,SimpleHill,0-0,0,5,selected,4-7,11-4;9-5;1-10;6-3;3-8;4-1,3-8,0.5,20,0,962.581569115
GEMS124,2018_Mar_07_1202,Jerry,sf,spatial_frequency,8,6,4,SimpleHill,0-0,0,6,selected,3-8,2-13;5-4;10-8;6-11;5-14;3-5,10-8,0.42,32,12,966.583838253
GEMS124,2018_Mar_07_1202,Jerry,sf,spatial_frequency,8,6,4,SimpleHill,0-0,0,7,selected,10-8,14-10;7-15;5-10;14-3;7-14;11-12,11-12,0.86,40,8,971.025809411
GEMS124,2018_Mar_07_1202,Jerry,sf,spatial_frequency,8,6,4,SimpleHill,0-0,0,8,selected,11-12,5-15;10-7;9-13;14-9;16-14;5-14,14-9,1.19,40,0,975.799009184
GEMS124,2018_Mar_07_1202,Jerry,sf,spatial_frequency,8,6,4,SimpleHill,0-0,0,9,selected,14-9,19-12;16-14;11-2;8-6;13-10;14-6,16-14,0.69,50,10,980.071971289
GEMS124,2018_Mar_07_1202,Jerry,sf,spatial_frequency,8,6,4,SimpleHill,0-0,0,10,selected,16-14,22-18;17-11;19-16;19-12;11-11;15-20,17-11,0.46,47,-3,984.107852743
GEMS124,2018_Mar_07_1202,Jerry,sf,spatial_frequency,8,6,4,SimpleHill,0-0,0,11,selected,17-11,23-9;12-8;17-11;24-9;20-4;22-15,20-4,0.56,39,-8,988.249971432
GEMS124,2018_Mar_07_1202,Jerry,sf,spatial_frequency,8,6,4,SimpleHill,0-0,0,12,selected,20-4,19-9;25-9;16-8;25-8;24-0;18-7,16-8,0.25,41,2,992.081989557
GEMS124,2018_Mar_07_1202,Jerry,sf,spatial_frequency,8,6,4,SimpleHill,0-0,0,13,selected,16-8,19-12;12-11;14-13;20-2;17-7;17-4,17-4,0.43,35,-6,996.08620422
GEMS124,2018_Mar_07_1202,Jerry,sf,spatial_frequency,8,6,4,SimpleHill,0-0,0,14,selected,17-4,13-2;14-2;15-3;16-5;13-3;18-6,16-5,0.5,36,1,1000.13178769
GEMS124,2018_Mar_07_1202,Jerry,sf,spatial_frequency,8,6,4,SimpleHill,0-0,0,15,selected,16-5,17-5;15-2;13-2;13-6;12-2;15-8,17-5,0.34,37,1,1004.05582132
GEMS124,2018_Mar_07_1202,Jerry,sf,spatial_frequency,8,6,4,SimpleHill,0-0,0,16,selected,17-5,18-1;11-6;18-3;20-3;14-4;20-9,18-3,1.28,35,-2,1008.89842076
GEMS124,2018_Mar_07_1202,Jerry,sf,spatial_frequency,8,6,4,SimpleHill,0-0,0,17,selected,18-3,15-4;18-7;13-6;12-8;19-7;12-5,15-4,1.98,33,-2,1014.44945205
GEMS124,2018_Mar_07_1202,Jerry,sf,spatial_frequency,8,6,4,SimpleHill,0-0,0,18,selected,15-4,18-8;12-3;13-9;17-10;10-5;14-2,10-5,1.21,27,-6,1019.22833411
GEMS124,2018_Mar_07_1202,Jerry,sf,spatial_frequency,8,6,4,SimpleHill,0-0,0,19,selected,10-5,3-8;17-8;16-3;14-0;10-1;7-0,17-8,0.96,42,15,1023.76072799
GEMS124,2018_Mar_07_1202,Jerry,sf,spatial_frequency,8,6,4,SimpleHill,0-0,0,20,selected,17-8,23-4;16-5;21-12;11-10;22-14;23-5,23-5,0.71,44,2,1028.05126608
GEMS124,2018_Mar_07_1202,Jerry,sf,spatial_frequency,8,6,4,SimpleHill,0-0,0,21,selected,23-5,29-1;26-0;29-5;27-0;17-8;17-5,27-0,0.76,39,-5,1032.38514218
GEMS124,2018_Mar_07_1202,Jerry,sf,spatial_frequency,8,6,4,SimpleHill,0-0,0,22,selected,27-0,22-4;26-3;21-4;21-3;24-5;30-4,21-3,0.42,39,0,1036.38525358
GEMS124,2018_Mar_07_1202,Jerry,sf,spatial_frequency,8,6,4,SimpleHill,0-0,0,23,selected,21-3,19-0;24-1;27-5;28-3;25-7;20-9,28-3,0.4,46,7,1040.34862791
GEMS124,2018_Mar_07_1202,Jerry,sf,spatial_frequency,8,6,4,SimpleHill,0-0,0,24,selected,28-3,26-9;26-7;32-3;34-7;27-10;35-4,32-3,4.59,49,3,1048.52054948
GEMS124,2018_Mar_07_1202,Jerry,sf,spatial_frequency,8,6,4,SimpleHill,0-0,0,25,selected,32-3,30-5;27-6;32-5;38-2;28-4;35-8,27-6,0.99,50,1,1053.09124472
GEMS124,2018_Mar_07_1202,Jerry,sf,spatial_frequency,8,6,4,SimpleHill,0-0,0,26,selected,27-6,26-6;25-6;29-0;23-2;23-1;21-9,21-9,0.72,49,-1,1057.38719334
GEMS124,2018_Mar_07_1202,Jerry,sf,spatial_frequency,8,6,4,SimpleHill,0-0,0,27,selected,21-9,17-8;16-7;21-16;24-11;18-16;15-11,18-16,0.56,56,7,1061.57813356
GEMS124,2018_Mar_07_1202,Jerry,sf,spatial_frequency,8,6,4,SimpleHill,0-0,0,28,selected,18-16,14-10;19-10;14-14;23-19;15-10;11-13,14-10,1.17,42,-14,1066.31763523
GEMS124,2018_Mar_07_1202,Jerry,sf,spatial_frequency,8,6,4,SimpleHill,0-0,0,29,selected,14-10,17-8;11-4;13-6;21-7;17-3;10-12,13-6,0.7,33,-9,1070.60924627
GEMS124,2018_Mar_07_1202,Jerry,sf,spatial_frequency,8,6,4,SimpleHill,0-0,0,30,selected,13-6,16-12;11-0;8-10;17-10;20-7;8-9,20-7,1.68,45,12,1075.83329786
GEMS124,2018_Mar_07_1202,Jerry,sf,spatial_frequency,8,6,4,SimpleHill,0-0,0,31,selected,20-7,14-11;21-10;15-10;17-5;25-12;15-5,21-10,0.4,51,6,1079.79151709
GEMS124,2018_Mar_07_1202,Jerry,sf,spatial_frequency,8,6,4,SimpleHill,0-0,0,32,selected,21-10,19-15;28-10;19-3;26-14;15-5;27-10,27-10,0.96,57,6,1084.3371817
GEMS124,2018_Mar_07_1202,Jerry,sf,spatial_frequency,8,6,4,SimpleHill,0-0,0,33,selected,27-10,30-3;26-5;23-12;25-6;30-5;26-12,25-6,0.25,48,-9,1088.17417983
GEMS124,2018_Mar_07_1202,Jerry,sf,spatial_frequency,8,6,4,SimpleHill,0-0,0,34,selected,25-6,20-1;20-12;22-3;18-5;28-11;30-12,20-1,0.33,33,-15,1092.08106001
GEMS124,2018_Mar_07_1202,Jerry,sf,spatial_frequency,8,6,4,SimpleHill,0-0,0,35,selected,20-1,21-7;24-7;20-6;16-7;22-7;19-6,24-7,0.62,49,16,1096.26258181
GEMS124,2018_Mar_07_1202,Jerry,sf,spatial_frequency,8,6,4,SimpleHill,0-0,0,36,selected,24-7,25-2;28-7;29-7;24-11;20-10;21-8,20-10,0.95,50,1,1100.777699
GEMS124,2018_Mar_07_1202,Jerry,sf,spatial_frequency,8,6,4,SimpleHill,0-0,0,37,selected,20-10,24-16;18-8;20-7;20-15;23-13;21-12,24-16,0.24,63,13,1104.60779721
GEMS124,2018_Mar_07_1202,Jerry,sf,spatial_frequency,8,6,4,SimpleHill,0-0,0,38,selected,24-16,27-18;31-18;18-19;30-19;27-19;23-13,30-19,0.38,72,9,1108.53859664
GEMS124,2018_Mar_07_1202,Jerry,sf,spatial_frequency,8,6,4,SimpleHill,0-0,0,39,selected,30-19,24-17;36-24;24-14;26-15;33-17;26-13,26-13,0.73,61,-11,1112.85864697
