subj_id,date,computer,experimenter,instructions,sight_radius,n_gabors,start_pos_list_ix,start_pos_list,landscape_ix,landscape_name,starting_pos,starting_score,trial,feedback,pos,stims,selected,rt,score,delta,exp_time
GEMS235,2018_Apr_23_1532,Elaine,EG,spatial_frequency,8,6,18,40-9;47-6;39-15;47-29,0,SpatialFrequencyBias,0-0,0,0,training,0-0,4-0;6-5;3-2;0-7;5-2;0-6,0-7,7.27,26,26,252.227099484
GEMS235,2018_Apr_23_1532,Elaine,EG,spatial_frequency,8,6,18,40-9;47-6;39-15;47-29,0,SpatialFrequencyBias,0-0,0,1,training,0-7,3-1;0-12;3-13;6-6;5-3;4-13,3-13,11.89,45,19,269.457485046
GEMS235,2018_Apr_23_1532,Elaine,EG,spatial_frequency,8,6,18,40-9;47-6;39-15;47-29,0,SpatialFrequencyBias,0-0,0,2,training,3-13,5-16;2-18;7-8;5-17;5-10;1-9,5-17,12.41,56,11,287.578796891
GEMS235,2018_Apr_23_1532,Elaine,EG,spatial_frequency,8,6,18,40-9;47-6;39-15;47-29,0,SpatialFrequencyBias,0-0,0,3,training,5-17,2-20;8-16;3-19;0-14;0-22;11-21,3-19,16.23,61,5,310.633517483
GEMS235,2018_Apr_23_1532,Elaine,EG,spatial_frequency,8,6,18,40-9;47-6;39-15;47-29,0,SpatialFrequencyBias,0-0,0,4,training,3-19,8-19;7-20;3-16;11-19;0-19;5-20,5-20,19.4,64,3,336.151988948
GEMS235,2018_Apr_23_1532,Elaine,EG,spatial_frequency,8,6,18,40-9;47-6;39-15;47-29,0,SpatialFrequencyBias,0-0,0,5,training,5-20,9-21;3-14;11-25;2-26;4-21;2-21,2-21,10.37,66,2,350.955198459
GEMS235,2018_Apr_23_1532,Elaine,EG,spatial_frequency,8,6,18,40-9;47-6;39-15;47-29,0,SpatialFrequencyBias,0-0,0,6,training,2-21,3-21;8-16;7-24;2-14;1-16;5-14,3-21,21.31,66,0,378.172501488
GEMS235,2018_Apr_23_1532,Elaine,EG,spatial_frequency,8,6,18,40-9;47-6;39-15;47-29,0,SpatialFrequencyBias,0-0,0,7,training,3-21,4-19;5-28;1-20;6-27;1-27;2-28,1-27,15.23,78,12,397.708533592
GEMS235,2018_Apr_23_1532,Elaine,EG,spatial_frequency,8,6,18,40-9;47-6;39-15;47-29,0,SpatialFrequencyBias,0-0,0,8,training,1-27,2-23;8-24;1-21;5-30;3-26;0-31,3-26,9.27,76,-2,412.962278924
GEMS235,2018_Apr_23_1532,Elaine,EG,spatial_frequency,8,6,18,40-9;47-6;39-15;47-29,0,SpatialFrequencyBias,0-0,0,9,training,3-26,3-18;2-25;4-19;4-33;5-30;0-23,2-25,10.66,75,-1,427.335905923
GEMS235,2018_Apr_23_1532,Elaine,EG,spatial_frequency,8,6,18,40-9;47-6;39-15;47-29,0,SpatialFrequencyBias,0-0,0,10,training,2-25,1-27;2-31;9-26;9-22;0-23;0-32,2-31,4.6,85,10,437.74379187
GEMS235,2018_Apr_23_1532,Elaine,EG,spatial_frequency,8,6,18,40-9;47-6;39-15;47-29,0,SpatialFrequencyBias,0-0,0,11,training,2-31,0-33;6-35;5-37;3-27;3-36;3-31,3-31,6.22,85,0,448.344941837
GEMS235,2018_Apr_23_1532,Elaine,EG,spatial_frequency,8,6,18,40-9;47-6;39-15;47-29,0,SpatialFrequencyBias,0-0,0,12,training,3-31,9-28;4-32;4-30;1-36;0-31;1-24,4-30,4.7,84,-1,456.533028348
GEMS235,2018_Apr_23_1532,Elaine,EG,spatial_frequency,8,6,18,40-9;47-6;39-15;47-29,0,SpatialFrequencyBias,0-0,0,13,training,4-30,7-23;11-30;4-27;2-33;1-24;7-37,2-33,11.15,88,4,471.162282829
GEMS235,2018_Apr_23_1532,Elaine,EG,spatial_frequency,8,6,18,40-9;47-6;39-15;47-29,0,SpatialFrequencyBias,0-0,0,14,training,2-33,3-30;7-39;5-40;1-39;4-28;1-27,1-39,10.47,95,7,485.435588743
GEMS235,2018_Apr_23_1532,Elaine,EG,spatial_frequency,8,6,18,40-9;47-6;39-15;47-29,0,SpatialFrequencyBias,0-0,0,15,training,1-39,7-38;4-41;7-35;6-34;3-35;7-40,7-38,20.75,94,-1,509.662141187
GEMS235,2018_Apr_23_1532,Elaine,EG,spatial_frequency,8,6,18,40-9;47-6;39-15;47-29,0,SpatialFrequencyBias,0-0,0,16,training,7-38,1-34;12-36;5-38;13-39;9-43;10-36,9-43,7.57,98,4,520.467230287
GEMS235,2018_Apr_23_1532,Elaine,EG,spatial_frequency,8,6,18,40-9;47-6;39-15;47-29,0,SpatialFrequencyBias,0-0,0,17,training,9-43,11-50;9-41;13-44;4-42;10-37;14-49,9-41,8.42,96,-2,532.31486651
GEMS235,2018_Apr_23_1532,Elaine,EG,spatial_frequency,8,6,18,40-9;47-6;39-15;47-29,0,SpatialFrequencyBias,0-0,0,18,training,9-41,2-41;16-38;15-38;14-38;9-41;5-40,9-41,16.72,96,0,552.02150771
GEMS235,2018_Apr_23_1532,Elaine,EG,spatial_frequency,8,6,18,40-9;47-6;39-15;47-29,0,SpatialFrequencyBias,0-0,0,19,training,9-41,7-37;6-40;12-45;7-34;10-40;12-40,12-40,9.3,96,0,564.506774615
GEMS235,2018_Apr_23_1532,Elaine,EG,spatial_frequency,8,6,18,40-9;47-6;39-15;47-29,0,SpatialFrequencyBias,0-0,0,20,training,12-40,10-40;13-37;16-35;16-40;13-42;8-37,8-37,8.5,93,-3,576.509550464
GEMS235,2018_Apr_23_1532,Elaine,EG,spatial_frequency,8,6,18,40-9;47-6;39-15;47-29,0,SpatialFrequencyBias,0-0,0,21,training,8-37,3-32;9-33;14-42;3-31;12-43;9-39,14-42,8.36,97,4,589.819630299
GEMS235,2018_Apr_23_1532,Elaine,EG,spatial_frequency,8,6,18,40-9;47-6;39-15;47-29,0,SpatialFrequencyBias,0-0,0,22,training,14-42,8-40;19-38;16-36;11-48;20-42;11-35,11-48,13.29,99,2,606.59470937
GEMS235,2018_Apr_23_1532,Elaine,EG,spatial_frequency,8,6,18,40-9;47-6;39-15;47-29,0,SpatialFrequencyBias,0-0,0,23,training,11-48,12-41;17-51;7-44;14-47;12-50;7-49,7-49,22.09,99,0,631.948981287
GEMS235,2018_Apr_23_1532,Elaine,EG,spatial_frequency,8,6,18,40-9;47-6;39-15;47-29,0,SpatialFrequencyBias,0-0,0,24,training,7-49,9-53;10-48;9-44;11-47;9-48;1-45,9-53,12.66,99,0,648.082441313
GEMS235,2018_Apr_23_1532,Elaine,EG,spatial_frequency,8,6,18,40-9;47-6;39-15;47-29,0,SpatialFrequencyBias,0-0,0,25,training,9-53,6-46;10-50;15-56;11-52;4-56;13-59,4-56,13.03,98,-1,665.139809397
GEMS235,2018_Apr_23_1532,Elaine,EG,spatial_frequency,8,6,18,40-9;47-6;39-15;47-29,0,SpatialFrequencyBias,0-0,0,26,training,4-56,9-58;10-58;6-49;10-54;1-54;4-58,6-49,8.08,99,1,676.183081532
GEMS235,2018_Apr_23_1532,Elaine,EG,spatial_frequency,8,6,18,40-9;47-6;39-15;47-29,0,SpatialFrequencyBias,0-0,0,27,training,6-49,1-45;4-52;11-47;12-47;6-41;2-51,6-41,7.75,96,-3,687.116341756
GEMS235,2018_Apr_23_1532,Elaine,EG,spatial_frequency,8,6,18,40-9;47-6;39-15;47-29,0,SpatialFrequencyBias,0-0,0,28,training,6-41,11-38;12-43;9-40;1-44;1-43;4-46,4-46,10.27,99,3,702.077155292
GEMS235,2018_Apr_23_1532,Elaine,EG,spatial_frequency,8,6,18,40-9;47-6;39-15;47-29,0,SpatialFrequencyBias,0-0,0,29,training,4-46,1-49;3-39;7-42;8-42;5-46;1-43,1-49,9.28,99,0,715.499376298
GEMS235,2018_Apr_23_1532,Elaine,EG,spatial_frequency,8,6,18,40-9;47-6;39-15;47-29,1,SimpleHill,40-9,64,0,selected,40-9,42-13;35-9;45-13;37-16;35-3;38-4,45-13,13.49,72,8,764.237793161
GEMS235,2018_Apr_23_1532,Elaine,EG,spatial_frequency,8,6,18,40-9;47-6;39-15;47-29,1,SimpleHill,40-9,64,1,selected,45-13,44-8;48-20;39-9;43-9;40-19;38-10,38-10,28.26,65,-7,796.068815581
GEMS235,2018_Apr_23_1532,Elaine,EG,spatial_frequency,8,6,18,40-9;47-6;39-15;47-29,1,SimpleHill,40-9,64,2,selected,38-10,37-10;43-7;45-10;40-7;32-14;35-13,37-10,28.86,64,-1,828.492162035
GEMS235,2018_Apr_23_1532,Elaine,EG,spatial_frequency,8,6,18,40-9;47-6;39-15;47-29,1,SimpleHill,40-9,64,3,selected,37-10,41-5;41-4;33-14;44-9;44-7;37-9,44-9,10.69,65,1,842.764163249
GEMS235,2018_Apr_23_1532,Elaine,EG,spatial_frequency,8,6,18,40-9;47-6;39-15;47-29,1,SimpleHill,40-9,64,4,selected,44-9,49-3;42-10;46-10;43-8;50-12;45-10,42-10,13.4,66,1,859.731209002
GEMS235,2018_Apr_23_1532,Elaine,EG,spatial_frequency,8,6,18,40-9;47-6;39-15;47-29,1,SimpleHill,40-9,64,5,selected,42-10,45-12;43-11;42-7;37-12;40-17;36-7,43-11,11.51,68,2,874.816969043
GEMS235,2018_Apr_23_1532,Elaine,EG,spatial_frequency,8,6,18,40-9;47-6;39-15;47-29,1,SimpleHill,40-9,64,6,selected,43-11,49-14;44-17;41-16;42-14;37-14;49-6,49-14,10.91,74,6,889.280811782
GEMS235,2018_Apr_23_1532,Elaine,EG,spatial_frequency,8,6,18,40-9;47-6;39-15;47-29,1,SimpleHill,40-9,64,7,selected,49-14,44-17;52-17;54-18;53-11;47-17;43-14,44-17,12.35,77,3,905.192217315
GEMS235,2018_Apr_23_1532,Elaine,EG,spatial_frequency,8,6,18,40-9;47-6;39-15;47-29,1,SimpleHill,40-9,64,8,selected,44-17,50-15;39-22;40-20;50-20;48-11;45-16,50-20,10.48,82,5,919.252617643
GEMS235,2018_Apr_23_1532,Elaine,EG,spatial_frequency,8,6,18,40-9;47-6;39-15;47-29,1,SimpleHill,40-9,64,9,selected,50-20,45-15;52-14;52-22;53-25;49-18;48-26,52-22,12.59,84,2,935.425171306
GEMS235,2018_Apr_23_1532,Elaine,EG,spatial_frequency,8,6,18,40-9;47-6;39-15;47-29,1,SimpleHill,40-9,64,10,selected,52-22,45-22;55-28;55-27;54-21;48-23;59-25,48-23,9.8,85,1,948.787717635
GEMS235,2018_Apr_23_1532,Elaine,EG,spatial_frequency,8,6,18,40-9;47-6;39-15;47-29,1,SimpleHill,40-9,64,11,selected,48-23,41-21;55-20;43-20;51-26;45-23;53-25,41-21,8.72,81,-4,961.071664092
GEMS235,2018_Apr_23_1532,Elaine,EG,spatial_frequency,8,6,18,40-9;47-6;39-15;47-29,1,SimpleHill,40-9,64,12,selected,41-21,38-14;43-14;42-25;35-25;44-24;40-25,42-25,9.86,86,5,974.485315879
GEMS235,2018_Apr_23_1532,Elaine,EG,spatial_frequency,8,6,18,40-9;47-6;39-15;47-29,1,SimpleHill,40-9,64,13,selected,42-25,48-23;39-18;39-24;41-20;46-26;38-31,39-24,13.73,84,-2,991.787193963
GEMS235,2018_Apr_23_1532,Elaine,EG,spatial_frequency,8,6,18,40-9;47-6;39-15;47-29,1,SimpleHill,40-9,64,14,selected,39-24,42-21;41-29;39-30;41-20;36-25;35-30,39-30,18.59,89,5,1013.95633799
GEMS235,2018_Apr_23_1532,Elaine,EG,spatial_frequency,8,6,18,40-9;47-6;39-15;47-29,1,SimpleHill,40-9,64,15,selected,39-30,34-28;33-31;40-29;33-33;45-32;39-35,33-31,16.38,87,-2,1033.90121568
GEMS235,2018_Apr_23_1532,Elaine,EG,spatial_frequency,8,6,18,40-9;47-6;39-15;47-29,1,SimpleHill,40-9,64,16,selected,33-31,31-36;30-30;37-31;29-27;38-28;30-31,30-30,19.12,84,-3,1056.59788534
GEMS235,2018_Apr_23_1532,Elaine,EG,spatial_frequency,8,6,18,40-9;47-6;39-15;47-29,1,SimpleHill,40-9,64,17,selected,30-30,24-25;36-35;25-35;25-36;25-28;33-37,36-35,10.3,91,7,1070.47958461
GEMS235,2018_Apr_23_1532,Elaine,EG,spatial_frequency,8,6,18,40-9;47-6;39-15;47-29,1,SimpleHill,40-9,64,18,selected,36-35,42-38;33-30;30-34;43-37;37-42;31-33,30-34,14.63,86,-5,1088.68808379
GEMS235,2018_Apr_23_1532,Elaine,EG,spatial_frequency,8,6,18,40-9;47-6;39-15;47-29,1,SimpleHill,40-9,64,19,selected,30-34,25-33;31-32;28-35;24-30;28-27;26-39,28-35,17.36,85,-1,1109.62672062
GEMS235,2018_Apr_23_1532,Elaine,EG,spatial_frequency,8,6,18,40-9;47-6;39-15;47-29,1,SimpleHill,40-9,64,20,selected,28-35,26-30;23-38;30-38;21-35;30-34;26-28,23-38,8.0,82,-3,1121.20459116
GEMS235,2018_Apr_23_1532,Elaine,EG,spatial_frequency,8,6,18,40-9;47-6;39-15;47-29,1,SimpleHill,40-9,64,21,selected,23-38,22-37;24-34;19-41;23-33;25-43;24-39,19-41,15.09,79,-3,1139.87377184
GEMS235,2018_Apr_23_1532,Elaine,EG,spatial_frequency,8,6,18,40-9;47-6;39-15;47-29,1,SimpleHill,40-9,64,22,selected,19-41,21-40;17-35;19-35;15-45;14-42;22-42,22-42,14.49,83,4,1157.93748161
GEMS235,2018_Apr_23_1532,Elaine,EG,spatial_frequency,8,6,18,40-9;47-6;39-15;47-29,1,SimpleHill,40-9,64,23,selected,22-42,24-40;25-45;26-42;23-47;22-39;18-44,25-45,25.55,87,4,1187.07818375
GEMS235,2018_Apr_23_1532,Elaine,EG,spatial_frequency,8,6,18,40-9;47-6;39-15;47-29,1,SimpleHill,40-9,64,24,selected,25-45,24-39;22-47;29-51;27-51;22-43;18-44,29-51,13.99,91,4,1204.64515191
GEMS235,2018_Apr_23_1532,Elaine,EG,spatial_frequency,8,6,18,40-9;47-6;39-15;47-29,1,SimpleHill,40-9,64,25,selected,29-51,33-52;24-47;28-48;34-56;35-53;35-46,33-52,13.58,94,3,1221.79182955
GEMS235,2018_Apr_23_1532,Elaine,EG,spatial_frequency,8,6,18,40-9;47-6;39-15;47-29,1,SimpleHill,40-9,64,26,selected,33-52,28-47;30-48;39-52;34-48;34-51;27-51,27-51,14.95,89,-5,1240.30298177
GEMS235,2018_Apr_23_1532,Elaine,EG,spatial_frequency,8,6,18,40-9;47-6;39-15;47-29,1,SimpleHill,40-9,64,27,selected,27-51,28-58;21-47;25-57;21-48;23-47;25-44,21-48,4.96,83,-6,1248.83844282
GEMS235,2018_Apr_23_1532,Elaine,EG,spatial_frequency,8,6,18,40-9;47-6;39-15;47-29,1,SimpleHill,40-9,64,28,selected,21-48,23-53;23-44;17-42;20-52;22-42;13-48,13-48,9.92,72,-11,1262.33926786
GEMS235,2018_Apr_23_1532,Elaine,EG,spatial_frequency,8,6,18,40-9;47-6;39-15;47-29,1,SimpleHill,40-9,64,29,selected,13-48,6-46;19-44;19-53;12-41;15-55;11-53,11-53,5.2,69,-3,1271.11260787
GEMS235,2018_Apr_23_1532,Elaine,EG,spatial_frequency,8,6,18,40-9;47-6;39-15;47-29,1,SimpleHill,40-9,64,30,selected,11-53,14-49;11-47;17-51;5-52;17-52;11-45,11-47,7.72,69,0,1282.42068392
GEMS235,2018_Apr_23_1532,Elaine,EG,spatial_frequency,8,6,18,40-9;47-6;39-15;47-29,1,SimpleHill,40-9,64,31,selected,11-47,6-48;10-53;14-44;15-50;10-51;13-43,13-43,5.63,71,2,1291.62011934
GEMS235,2018_Apr_23_1532,Elaine,EG,spatial_frequency,8,6,18,40-9;47-6;39-15;47-29,1,SimpleHill,40-9,64,32,selected,13-43,8-38;8-42;14-48;18-41;17-39;12-45,12-45,2.96,70,-1,1298.14075655
GEMS235,2018_Apr_23_1532,Elaine,EG,spatial_frequency,8,6,18,40-9;47-6;39-15;47-29,1,SimpleHill,40-9,64,33,selected,12-45,9-42;16-42;15-39;16-43;18-40;14-47,9-42,9.4,65,-5,1311.11318308
GEMS235,2018_Apr_23_1532,Elaine,EG,spatial_frequency,8,6,18,40-9;47-6;39-15;47-29,1,SimpleHill,40-9,64,34,selected,9-42,7-49;14-36;11-46;15-42;15-38;6-49,6-49,5.76,61,-4,1320.43887418
GEMS235,2018_Apr_23_1532,Elaine,EG,spatial_frequency,8,6,18,40-9;47-6;39-15;47-29,1,SimpleHill,40-9,64,35,selected,6-49,2-46;10-52;4-47;3-55;3-56;5-46,2-46,6.24,53,-8,1330.25093907
GEMS235,2018_Apr_23_1532,Elaine,EG,spatial_frequency,8,6,18,40-9;47-6;39-15;47-29,1,SimpleHill,40-9,64,36,selected,2-46,6-43;6-52;0-47;2-45;0-51;3-46,2-45,13.19,53,0,1347.00491471
GEMS235,2018_Apr_23_1532,Elaine,EG,spatial_frequency,8,6,18,40-9;47-6;39-15;47-29,1,SimpleHill,40-9,64,37,selected,2-45,0-45;5-48;2-44;1-49;2-46;4-47,0-45,4.05,49,-4,1354.63671522
GEMS235,2018_Apr_23_1532,Elaine,EG,spatial_frequency,8,6,18,40-9;47-6;39-15;47-29,1,SimpleHill,40-9,64,38,selected,0-45,7-46;0-53;3-41;5-43;1-39;7-42,5-43,6.81,58,9,1365.01425119
GEMS235,2018_Apr_23_1532,Elaine,EG,spatial_frequency,8,6,18,40-9;47-6;39-15;47-29,1,SimpleHill,40-9,64,39,selected,5-43,3-44;4-37;1-42;5-39;4-39;12-41,3-44,3.83,55,-3,1372.42481024
GEMS235,2018_Apr_23_1532,Elaine,EG,spatial_frequency,8,6,18,40-9;47-6;39-15;47-29,2,SimpleHill,47-6,61,0,selected,47-6,43-1;50-11;43-5;49-10;53-2;40-7,49-10,5.83,67,6,1409.27790854
GEMS235,2018_Apr_23_1532,Elaine,EG,spatial_frequency,8,6,18,40-9;47-6;39-15;47-29,2,SimpleHill,47-6,61,1,selected,49-10,55-14;49-14;45-8;55-6;45-7;51-10,51-10,4.49,67,0,1417.34477379
GEMS235,2018_Apr_23_1532,Elaine,EG,spatial_frequency,8,6,18,40-9;47-6;39-15;47-29,2,SimpleHill,47-6,61,2,selected,51-10,55-6;44-13;48-9;45-9;56-11;52-5,55-6,4.54,60,-7,1425.4741491
GEMS235,2018_Apr_23_1532,Elaine,EG,spatial_frequency,8,6,18,40-9;47-6;39-15;47-29,2,SimpleHill,47-6,61,3,selected,55-6,48-5;56-6;62-6;61-6;52-0;55-8,61-6,5.95,58,-2,1435.00404662
GEMS235,2018_Apr_23_1532,Elaine,EG,spatial_frequency,8,6,18,40-9;47-6;39-15;47-29,2,SimpleHill,47-6,61,4,selected,61-6,54-4;61-1;60-3;59-8;56-4;63-4,54-4,5.85,57,-1,1444.44405297
GEMS235,2018_Apr_23_1532,Elaine,EG,spatial_frequency,8,6,18,40-9;47-6;39-15;47-29,2,SimpleHill,47-6,61,5,selected,54-4,52-2;56-11;47-2;51-11;56-7;55-5,47-2,4.83,53,-4,1452.83084061
GEMS235,2018_Apr_23_1532,Elaine,EG,spatial_frequency,8,6,18,40-9;47-6;39-15;47-29,2,SimpleHill,47-6,61,6,selected,47-2,51-3;44-9;50-9;47-3;48-9;45-4,48-9,6.38,66,13,1462.79400619
GEMS235,2018_Apr_23_1532,Elaine,EG,spatial_frequency,8,6,18,40-9;47-6;39-15;47-29,2,SimpleHill,47-6,61,7,selected,48-9,43-15;42-10;47-3;51-13;44-5;52-4,42-10,3.78,66,0,1470.13721728
GEMS235,2018_Apr_23_1532,Elaine,EG,spatial_frequency,8,6,18,40-9;47-6;39-15;47-29,2,SimpleHill,47-6,61,8,selected,42-10,39-15;38-16;43-7;42-5;46-13;46-9,46-13,7.82,72,6,1481.52656662
GEMS235,2018_Apr_23_1532,Elaine,EG,spatial_frequency,8,6,18,40-9;47-6;39-15;47-29,2,SimpleHill,47-6,61,9,selected,46-13,50-13;45-6;46-16;43-7;46-18;51-9,50-13,3.97,72,0,1489.07206677
GEMS235,2018_Apr_23_1532,Elaine,EG,spatial_frequency,8,6,18,40-9;47-6;39-15;47-29,2,SimpleHill,47-6,61,10,selected,50-13,52-17;49-16;49-17;47-10;50-17;42-13,47-10,3.17,67,-5,1495.81767485
GEMS235,2018_Apr_23_1532,Elaine,EG,spatial_frequency,8,6,18,40-9;47-6;39-15;47-29,2,SimpleHill,47-6,61,11,selected,47-10,45-10;41-9;47-6;48-10;44-13;52-7,44-13,5.93,71,4,1505.31132916
GEMS235,2018_Apr_23_1532,Elaine,EG,spatial_frequency,8,6,18,40-9;47-6;39-15;47-29,2,SimpleHill,47-6,61,12,selected,44-13,50-18;43-15;41-16;47-6;38-11;36-13,43-15,6.07,74,3,1514.92777318
GEMS235,2018_Apr_23_1532,Elaine,EG,spatial_frequency,8,6,18,40-9;47-6;39-15;47-29,2,SimpleHill,47-6,61,13,selected,43-15,44-17;40-13;45-22;50-12;42-15;39-12,42-15,4.37,74,0,1522.85523396
GEMS235,2018_Apr_23_1532,Elaine,EG,spatial_frequency,8,6,18,40-9;47-6;39-15;47-29,2,SimpleHill,47-6,61,14,selected,42-15,36-18;43-10;47-21;47-13;43-16;43-13,36-18,5.36,75,1,1531.78606147
GEMS235,2018_Apr_23_1532,Elaine,EG,spatial_frequency,8,6,18,40-9;47-6;39-15;47-29,2,SimpleHill,47-6,61,15,selected,36-18,39-25;33-16;38-20;38-15;35-13;31-15,33-16,6.08,71,-4,1541.44710186
GEMS235,2018_Apr_23_1532,Elaine,EG,spatial_frequency,8,6,18,40-9;47-6;39-15;47-29,2,SimpleHill,47-6,61,16,selected,33-16,27-11;38-14;29-11;26-19;33-11;38-16,38-16,4.61,74,3,1549.63654301
GEMS235,2018_Apr_23_1532,Elaine,EG,spatial_frequency,8,6,18,40-9;47-6;39-15;47-29,2,SimpleHill,47-6,61,17,selected,38-16,34-19;32-15;41-16;42-17;38-13;33-14,34-19,3.94,75,1,1557.1411954
GEMS235,2018_Apr_23_1532,Elaine,EG,spatial_frequency,8,6,18,40-9;47-6;39-15;47-29,2,SimpleHill,47-6,61,18,selected,34-19,35-14;34-13;34-21;37-26;40-21;39-19,35-14,8.06,69,-6,1568.76502814
GEMS235,2018_Apr_23_1532,Elaine,EG,spatial_frequency,8,6,18,40-9;47-6;39-15;47-29,2,SimpleHill,47-6,61,19,selected,35-14,31-9;28-12;32-12;34-15;34-12;30-11,34-15,3.73,70,1,1576.07227067
GEMS235,2018_Apr_23_1532,Elaine,EG,spatial_frequency,8,6,18,40-9;47-6;39-15;47-29,2,SimpleHill,47-6,61,20,selected,34-15,37-13;41-17;34-22;27-14;28-17;33-15,28-17,4.05,68,-2,1583.70616138
GEMS235,2018_Apr_23_1532,Elaine,EG,spatial_frequency,8,6,18,40-9;47-6;39-15;47-29,2,SimpleHill,47-6,61,21,selected,28-17,22-18;27-15;32-14;30-18;22-12;31-15,30-18,6.43,71,3,1593.70050085
GEMS235,2018_Apr_23_1532,Elaine,EG,spatial_frequency,8,6,18,40-9;47-6;39-15;47-29,2,SimpleHill,47-6,61,22,selected,30-18,24-15;36-19;27-17;33-19;37-16;27-11,27-17,6.54,67,-4,1603.79791549
GEMS235,2018_Apr_23_1532,Elaine,EG,spatial_frequency,8,6,18,40-9;47-6;39-15;47-29,2,SimpleHill,47-6,61,23,selected,27-17,26-15;26-21;24-10;26-23;20-20;31-15,26-15,6.4,63,-4,1613.78238968
GEMS235,2018_Apr_23_1532,Elaine,EG,spatial_frequency,8,6,18,40-9;47-6;39-15;47-29,2,SimpleHill,47-6,61,24,selected,26-15,31-13;30-17;22-9;27-19;25-16;20-16,25-16,3.73,64,1,1621.09521624
GEMS235,2018_Apr_23_1532,Elaine,EG,spatial_frequency,8,6,18,40-9;47-6;39-15;47-29,2,SimpleHill,47-6,61,25,selected,25-16,24-15;28-15;21-10;28-19;25-21;19-14,19-14,3.4,54,-10,1628.07967763
GEMS235,2018_Apr_23_1532,Elaine,EG,spatial_frequency,8,6,18,40-9;47-6;39-15;47-29,2,SimpleHill,47-6,61,26,selected,19-14,17-8;17-10;15-18;20-8;19-12;26-12,15-18,2.46,55,1,1634.10296634
GEMS235,2018_Apr_23_1532,Elaine,EG,spatial_frequency,8,6,18,40-9;47-6;39-15;47-29,2,SimpleHill,47-6,61,27,selected,15-18,14-20;21-13;21-14;15-20;11-15;20-15,14-20,8.43,56,1,1646.09620116
GEMS235,2018_Apr_23_1532,Elaine,EG,spatial_frequency,8,6,18,40-9;47-6;39-15;47-29,2,SimpleHill,47-6,61,28,selected,14-20,14-16;7-17;17-27;8-23;12-22;8-15,7-17,7.83,41,-15,1657.49391679
GEMS235,2018_Apr_23_1532,Elaine,EG,spatial_frequency,8,6,18,40-9;47-6;39-15;47-29,2,SimpleHill,47-6,61,29,selected,7-17,6-10;8-17;5-23;8-22;12-23;10-17,12-23,3.93,56,15,1665.00247272
GEMS235,2018_Apr_23_1532,Elaine,EG,spatial_frequency,8,6,18,40-9;47-6;39-15;47-29,2,SimpleHill,47-6,61,30,selected,12-23,6-22;11-24;16-28;16-23;18-25;16-19,16-19,8.98,57,1,1677.55031051
GEMS235,2018_Apr_23_1532,Elaine,EG,spatial_frequency,8,6,18,40-9;47-6;39-15;47-29,2,SimpleHill,47-6,61,31,selected,16-19,24-19;16-14;12-22;15-24;23-18;20-15,23-18,5.85,64,7,1686.97957132
GEMS235,2018_Apr_23_1532,Elaine,EG,spatial_frequency,8,6,18,40-9;47-6;39-15;47-29,2,SimpleHill,47-6,61,32,selected,23-18,24-15;30-19;27-19;15-18;29-20;28-22,15-18,3.9,55,-9,1694.44596009
GEMS235,2018_Apr_23_1532,Elaine,EG,spatial_frequency,8,6,18,40-9;47-6;39-15;47-29,2,SimpleHill,47-6,61,33,selected,15-18,22-16;14-21;18-12;22-15;12-18;14-24,22-16,4.2,61,6,1702.23484478
GEMS235,2018_Apr_23_1532,Elaine,EG,spatial_frequency,8,6,18,40-9;47-6;39-15;47-29,2,SimpleHill,47-6,61,34,selected,22-16,23-23;21-10;17-13;18-19;24-12;23-9,18-19,3.25,60,-1,1709.05298569
GEMS235,2018_Apr_23_1532,Elaine,EG,spatial_frequency,8,6,18,40-9;47-6;39-15;47-29,2,SimpleHill,47-6,61,35,selected,18-19,20-20;17-18;12-15;25-21;19-22;21-25,12-15,2.63,46,-14,1715.26937517
GEMS235,2018_Apr_23_1532,Elaine,EG,spatial_frequency,8,6,18,40-9;47-6;39-15;47-29,2,SimpleHill,47-6,61,36,selected,12-15,18-11;16-17;16-19;9-17;7-21;10-21,7-21,4.76,46,0,1723.61256033
GEMS235,2018_Apr_23_1532,Elaine,EG,spatial_frequency,8,6,18,40-9;47-6;39-15;47-29,2,SimpleHill,47-6,61,37,selected,7-21,3-25;12-26;1-26;13-25;13-21;12-16,12-16,4.66,48,2,1731.83893481
GEMS235,2018_Apr_23_1532,Elaine,EG,spatial_frequency,8,6,18,40-9;47-6;39-15;47-29,2,SimpleHill,47-6,61,38,selected,12-16,15-19;9-16;15-16;8-19;5-17;8-17,15-19,5.64,56,8,1741.04710301
GEMS235,2018_Apr_23_1532,Elaine,EG,spatial_frequency,8,6,18,40-9;47-6;39-15;47-29,2,SimpleHill,47-6,61,39,selected,15-19,8-22;13-24;14-14;11-25;9-20;21-16,8-22,7.84,49,-7,1752.45474985
GEMS235,2018_Apr_23_1532,Elaine,EG,spatial_frequency,8,6,18,40-9;47-6;39-15;47-29,3,SimpleHill,39-15,73,0,selected,39-15,43-21;41-16;41-15;44-12;43-16;34-18,41-15,14.97,73,0,1788.54456547
GEMS235,2018_Apr_23_1532,Elaine,EG,spatial_frequency,8,6,18,40-9;47-6;39-15;47-29,3,SimpleHill,39-15,73,1,selected,41-15,35-11;46-12;38-13;46-17;45-16;44-20,38-13,5.43,69,-4,1797.55643069
GEMS235,2018_Apr_23_1532,Elaine,EG,spatial_frequency,8,6,18,40-9;47-6;39-15;47-29,3,SimpleHill,39-15,73,2,selected,38-13,40-8;39-8;34-13;32-15;38-9;38-11,32-15,2.16,69,0,1803.30083682
GEMS235,2018_Apr_23_1532,Elaine,EG,spatial_frequency,8,6,18,40-9;47-6;39-15;47-29,3,SimpleHill,39-15,73,3,selected,32-15,37-16;27-19;36-11;39-17;29-8;37-9,39-17,2.77,75,6,1809.64242056
GEMS235,2018_Apr_23_1532,Elaine,EG,spatial_frequency,8,6,18,40-9;47-6;39-15;47-29,3,SimpleHill,39-15,73,4,selected,39-17,38-19;45-15;36-13;39-10;43-21;43-18,45-15,3.76,75,0,1816.96809022
GEMS235,2018_Apr_23_1532,Elaine,EG,spatial_frequency,8,6,18,40-9;47-6;39-15;47-29,3,SimpleHill,39-15,73,5,selected,45-15,46-16;50-9;45-13;42-10;46-9;49-19,45-13,3.93,72,-3,1824.48153462
GEMS235,2018_Apr_23_1532,Elaine,EG,spatial_frequency,8,6,18,40-9;47-6;39-15;47-29,3,SimpleHill,39-15,73,6,selected,45-13,42-16;40-10;52-16;40-9;47-11;43-9,42-16,4.12,75,3,1832.16731726
GEMS235,2018_Apr_23_1532,Elaine,EG,spatial_frequency,8,6,18,40-9;47-6;39-15;47-29,3,SimpleHill,39-15,73,7,selected,42-16,49-16;45-10;43-13;36-13;42-24;42-18,42-18,5.6,78,3,1841.34177804
GEMS235,2018_Apr_23_1532,Elaine,EG,spatial_frequency,8,6,18,40-9;47-6;39-15;47-29,3,SimpleHill,39-15,73,8,selected,42-18,35-17;37-17;50-18;48-15;37-15;47-19,37-17,3.34,74,-4,1848.24452792
GEMS235,2018_Apr_23_1532,Elaine,EG,spatial_frequency,8,6,18,40-9;47-6;39-15;47-29,3,SimpleHill,39-15,73,9,selected,37-17,30-17;43-14;34-12;30-16;43-18;42-23,43-18,4.31,78,4,1856.13349396
GEMS235,2018_Apr_23_1532,Elaine,EG,spatial_frequency,8,6,18,40-9;47-6;39-15;47-29,3,SimpleHill,39-15,73,10,selected,43-18,42-23;49-18;46-22;41-20;48-18;38-23,41-20,4.03,80,2,1863.74118663
GEMS235,2018_Apr_23_1532,Elaine,EG,spatial_frequency,8,6,18,40-9;47-6;39-15;47-29,3,SimpleHill,39-15,73,11,selected,41-20,48-18;42-24;43-17;41-16;34-22;41-28,48-18,6.31,79,-1,1873.62229181
GEMS235,2018_Apr_23_1532,Elaine,EG,spatial_frequency,8,6,18,40-9;47-6;39-15;47-29,3,SimpleHill,39-15,73,12,selected,48-18,51-11;48-24;51-15;50-24;45-20;43-22,51-15,2.55,75,-4,1879.75560107
GEMS235,2018_Apr_23_1532,Elaine,EG,spatial_frequency,8,6,18,40-9;47-6;39-15;47-29,3,SimpleHill,39-15,73,13,selected,51-15,49-17;47-11;56-18;54-11;44-14;54-15,49-17,3.56,78,3,1886.89761591
GEMS235,2018_Apr_23_1532,Elaine,EG,spatial_frequency,8,6,18,40-9;47-6;39-15;47-29,3,SimpleHill,39-15,73,14,selected,49-17,50-13;49-22;47-16;49-24;45-17;53-22,47-16,3.08,76,-2,1893.55547873
GEMS235,2018_Apr_23_1532,Elaine,EG,spatial_frequency,8,6,18,40-9;47-6;39-15;47-29,3,SimpleHill,39-15,73,15,selected,47-16,47-9;44-18;42-16;51-15;49-17;50-17,49-17,2.51,78,2,1899.65104003
GEMS235,2018_Apr_23_1532,Elaine,EG,spatial_frequency,8,6,18,40-9;47-6;39-15;47-29,3,SimpleHill,39-15,73,16,selected,49-17,46-15;46-10;49-16;56-20;50-21;55-14,49-16,4.35,76,-2,1907.55930449
GEMS235,2018_Apr_23_1532,Elaine,EG,spatial_frequency,8,6,18,40-9;47-6;39-15;47-29,3,SimpleHill,39-15,73,17,selected,49-16,53-21;51-17;50-18;48-23;49-9;48-11,50-18,3.68,79,3,1914.82823729
GEMS235,2018_Apr_23_1532,Elaine,EG,spatial_frequency,8,6,18,40-9;47-6;39-15;47-29,3,SimpleHill,39-15,73,18,selected,50-18,52-24;46-23;46-14;56-20;47-24;47-23,46-14,5.87,73,-6,1924.27817453
GEMS235,2018_Apr_23_1532,Elaine,EG,spatial_frequency,8,6,18,40-9;47-6;39-15;47-29,3,SimpleHill,39-15,73,19,selected,46-14,44-15;40-11;45-7;49-15;51-19;47-14,51-19,3.51,80,7,1931.36643066
GEMS235,2018_Apr_23_1532,Elaine,EG,spatial_frequency,8,6,18,40-9;47-6;39-15;47-29,3,SimpleHill,39-15,73,20,selected,51-19,48-22;44-17;58-20;44-22;54-18;59-19,44-17,9.84,77,-3,1944.77021685
GEMS235,2018_Apr_23_1532,Elaine,EG,spatial_frequency,8,6,18,40-9;47-6;39-15;47-29,3,SimpleHill,39-15,73,21,selected,44-17,41-19;50-22;48-14;43-11;39-14;44-25,48-14,3.2,74,-3,1951.54990527
GEMS235,2018_Apr_23_1532,Elaine,EG,spatial_frequency,8,6,18,40-9;47-6;39-15;47-29,3,SimpleHill,39-15,73,22,selected,48-14,51-10;49-21;44-19;54-18;54-19;49-18,44-19,4.33,80,6,1959.44049449
GEMS235,2018_Apr_23_1532,Elaine,EG,spatial_frequency,8,6,18,40-9;47-6;39-15;47-29,3,SimpleHill,39-15,73,23,selected,44-19,39-22;51-20;50-14;39-18;38-24;40-13,39-18,4.28,77,-3,1967.27317244
GEMS235,2018_Apr_23_1532,Elaine,EG,spatial_frequency,8,6,18,40-9;47-6;39-15;47-29,3,SimpleHill,39-15,73,24,selected,39-18,34-20;43-21;41-21;42-21;43-23;38-18,38-18,2.79,76,-1,1973.60336053
GEMS235,2018_Apr_23_1532,Elaine,EG,spatial_frequency,8,6,18,40-9;47-6;39-15;47-29,3,SimpleHill,39-15,73,25,selected,38-18,46-18;42-19;38-11;37-23;41-12;39-19,42-19,5.32,79,3,1982.46601841
GEMS235,2018_Apr_23_1532,Elaine,EG,spatial_frequency,8,6,18,40-9;47-6;39-15;47-29,3,SimpleHill,39-15,73,26,selected,42-19,48-22;47-18;39-17;35-17;46-22;39-20,48-22,3.47,84,5,1989.51120471
GEMS235,2018_Apr_23_1532,Elaine,EG,spatial_frequency,8,6,18,40-9;47-6;39-15;47-29,3,SimpleHill,39-15,73,27,selected,48-22,44-28;47-20;49-24;49-16;46-23;48-14,49-24,3.12,86,2,1996.21459088
GEMS235,2018_Apr_23_1532,Elaine,EG,spatial_frequency,8,6,18,40-9;47-6;39-15;47-29,3,SimpleHill,39-15,73,28,selected,49-24,50-23;53-21;53-18;52-26;51-18;46-28,50-23,1.65,85,-1,2001.43061193
GEMS235,2018_Apr_23_1532,Elaine,EG,spatial_frequency,8,6,18,40-9;47-6;39-15;47-29,3,SimpleHill,39-15,73,29,selected,50-23,56-20;46-27;47-28;51-30;45-20;55-18,51-30,3.46,91,6,2008.47050772
GEMS235,2018_Apr_23_1532,Elaine,EG,spatial_frequency,8,6,18,40-9;47-6;39-15;47-29,3,SimpleHill,39-15,73,30,selected,51-30,50-33;47-27;47-36;54-29;52-23;51-22,50-33,7.16,94,3,2019.20282457
GEMS235,2018_Apr_23_1532,Elaine,EG,spatial_frequency,8,6,18,40-9;47-6;39-15;47-29,3,SimpleHill,39-15,73,31,selected,50-33,50-32;49-31;52-32;48-40;44-32;48-39,44-32,4.94,92,-2,2027.70925924
GEMS235,2018_Apr_23_1532,Elaine,EG,spatial_frequency,8,6,18,40-9;47-6;39-15;47-29,3,SimpleHill,39-15,73,32,selected,44-32,43-36;43-30;41-35;41-32;46-35;48-36,41-32,3.14,91,-1,2034.42328212
GEMS235,2018_Apr_23_1532,Elaine,EG,spatial_frequency,8,6,18,40-9;47-6;39-15;47-29,3,SimpleHill,39-15,73,33,selected,41-32,40-34;44-36;44-29;35-29;42-36;46-29,44-29,2.88,90,-1,2040.89365668
GEMS235,2018_Apr_23_1532,Elaine,EG,spatial_frequency,8,6,18,40-9;47-6;39-15;47-29,3,SimpleHill,39-15,73,34,selected,44-29,50-29;42-30;45-29;46-23;47-33;41-29,46-23,2.73,85,-5,2047.19165779
GEMS235,2018_Apr_23_1532,Elaine,EG,spatial_frequency,8,6,18,40-9;47-6;39-15;47-29,3,SimpleHill,39-15,73,35,selected,46-23,48-22;42-20;49-22;50-27;44-18;46-21,42-20,3.0,80,-5,2053.78184872
GEMS235,2018_Apr_23_1532,Elaine,EG,spatial_frequency,8,6,18,40-9;47-6;39-15;47-29,3,SimpleHill,39-15,73,36,selected,42-20,41-25;44-16;38-16;46-21;46-20;47-19,41-25,3.91,85,5,2061.27969402
GEMS235,2018_Apr_23_1532,Elaine,EG,spatial_frequency,8,6,18,40-9;47-6;39-15;47-29,3,SimpleHill,39-15,73,37,selected,41-25,44-31;42-26;40-25;47-21;45-23;38-19,40-25,2.53,85,0,2067.36943634
GEMS235,2018_Apr_23_1532,Elaine,EG,spatial_frequency,8,6,18,40-9;47-6;39-15;47-29,3,SimpleHill,39-15,73,38,selected,40-25,42-25;45-27;40-18;44-27;44-22;39-28,39-28,7.3,87,2,2078.24925826
GEMS235,2018_Apr_23_1532,Elaine,EG,spatial_frequency,8,6,18,40-9;47-6;39-15;47-29,3,SimpleHill,39-15,73,39,selected,39-28,36-27;39-27;38-32;43-34;39-34;38-35,36-27,2.89,85,-2,2084.70304015
GEMS235,2018_Apr_23_1532,Elaine,EG,spatial_frequency,8,6,18,40-9;47-6;39-15;47-29,4,SimpleHill,47-29,91,0,selected,47-29,50-35;43-34;52-33;43-23;53-32;48-30,50-35,11.81,95,4,2106.92697871
GEMS235,2018_Apr_23_1532,Elaine,EG,spatial_frequency,8,6,18,40-9;47-6;39-15;47-29,4,SimpleHill,47-29,91,1,selected,50-35,50-35;55-35;45-35;52-40;48-31;43-33,55-35,3.43,95,0,2113.91464072
GEMS235,2018_Apr_23_1532,Elaine,EG,spatial_frequency,8,6,18,40-9;47-6;39-15;47-29,4,SimpleHill,47-29,91,2,selected,55-35,56-39;57-32;53-40;51-30;61-35;61-40,61-40,5.48,95,0,2122.97330998
GEMS235,2018_Apr_23_1532,Elaine,EG,spatial_frequency,8,6,18,40-9;47-6;39-15;47-29,4,SimpleHill,47-29,91,3,selected,61-40,62-46;61-33;57-46;59-36;61-46;60-47,62-46,2.44,96,1,2128.98233021
GEMS235,2018_Apr_23_1532,Elaine,EG,spatial_frequency,8,6,18,40-9;47-6;39-15;47-29,4,SimpleHill,47-29,91,4,selected,62-46,64-46;69-43;67-42;57-48;62-47;63-46,63-46,3.45,96,0,2136.00424028
GEMS235,2018_Apr_23_1532,Elaine,EG,spatial_frequency,8,6,18,40-9;47-6;39-15;47-29,4,SimpleHill,47-29,91,5,selected,63-46,69-45;66-40;59-48;63-41;61-50;68-50,63-41,2.05,95,-1,2141.63044171
GEMS235,2018_Apr_23_1532,Elaine,EG,spatial_frequency,8,6,18,40-9;47-6;39-15;47-29,4,SimpleHill,47-29,91,6,selected,63-41,64-41;61-37;57-46;63-35;60-43;64-47,64-47,1.92,95,0,2147.107431
GEMS235,2018_Apr_23_1532,Elaine,EG,spatial_frequency,8,6,18,40-9;47-6;39-15;47-29,4,SimpleHill,47-29,91,7,selected,64-47,60-49;62-46;69-53;57-46;64-51;64-44,57-46,1.59,98,3,2152.26264969
GEMS235,2018_Apr_23_1532,Elaine,EG,spatial_frequency,8,6,18,40-9;47-6;39-15;47-29,4,SimpleHill,47-29,91,8,selected,57-46,61-50;51-49;59-42;60-45;53-42;52-43,52-43,3.37,98,0,2159.20183068
GEMS235,2018_Apr_23_1532,Elaine,EG,spatial_frequency,8,6,18,40-9;47-6;39-15;47-29,4,SimpleHill,47-29,91,9,selected,52-43,47-47;53-36;49-48;58-47;54-42;53-39,47-47,3.39,99,1,2166.16344253
GEMS235,2018_Apr_23_1532,Elaine,EG,spatial_frequency,8,6,18,40-9;47-6;39-15;47-29,4,SimpleHill,47-29,91,10,selected,47-47,41-45;42-48;40-45;48-46;50-48;52-41,41-45,3.33,97,-2,2173.07159495
GEMS235,2018_Apr_23_1532,Elaine,EG,spatial_frequency,8,6,18,40-9;47-6;39-15;47-29,4,SimpleHill,47-29,91,11,selected,41-45,37-42;36-42;40-51;38-47;45-47;41-50,40-51,2.71,97,0,2179.37411002
GEMS235,2018_Apr_23_1532,Elaine,EG,spatial_frequency,8,6,18,40-9;47-6;39-15;47-29,4,SimpleHill,47-29,91,12,selected,40-51,38-57;41-58;44-54;41-47;42-53;37-44,42-53,1.5,98,1,2184.43962608
GEMS235,2018_Apr_23_1532,Elaine,EG,spatial_frequency,8,6,18,40-9;47-6;39-15;47-29,4,SimpleHill,47-29,91,13,selected,42-53,42-48;41-48;41-57;37-47;37-54;35-51,35-51,2.05,95,-3,2190.06912991
GEMS235,2018_Apr_23_1532,Elaine,EG,spatial_frequency,8,6,18,40-9;47-6;39-15;47-29,4,SimpleHill,47-29,91,14,selected,35-51,31-55;34-47;38-46;38-55;41-53;41-50,41-53,2.17,98,3,2195.81516468
GEMS235,2018_Apr_23_1532,Elaine,EG,spatial_frequency,8,6,18,40-9;47-6;39-15;47-29,4,SimpleHill,47-29,91,15,selected,41-53,39-53;44-46;46-56;44-54;48-55;47-58,39-53,1.98,97,-1,2201.34391306
GEMS235,2018_Apr_23_1532,Elaine,EG,spatial_frequency,8,6,18,40-9;47-6;39-15;47-29,4,SimpleHill,47-29,91,16,selected,39-53,37-47;44-49;38-58;41-60;39-48;41-53,41-53,2.04,98,1,2206.96364636
GEMS235,2018_Apr_23_1532,Elaine,EG,spatial_frequency,8,6,18,40-9;47-6;39-15;47-29,4,SimpleHill,47-29,91,17,selected,41-53,43-47;44-57;44-58;37-50;42-56;38-51,44-58,2.0,98,0,2212.53735793
GEMS235,2018_Apr_23_1532,Elaine,EG,spatial_frequency,8,6,18,40-9;47-6;39-15;47-29,4,SimpleHill,47-29,91,18,selected,44-58,36-58;51-60;48-61;37-56;40-60;45-60,45-60,2.86,97,-1,2218.98015485
GEMS235,2018_Apr_23_1532,Elaine,EG,spatial_frequency,8,6,18,40-9;47-6;39-15;47-29,4,SimpleHill,47-29,91,19,selected,45-60,44-55;45-68;43-59;39-59;47-55;47-64,39-59,2.48,95,-2,2225.031002
GEMS235,2018_Apr_23_1532,Elaine,EG,spatial_frequency,8,6,18,40-9;47-6;39-15;47-29,4,SimpleHill,47-29,91,20,selected,39-59,43-54;39-64;35-65;42-56;38-52;41-65,43-54,3.12,98,3,2231.71962418
GEMS235,2018_Apr_23_1532,Elaine,EG,spatial_frequency,8,6,18,40-9;47-6;39-15;47-29,4,SimpleHill,47-29,91,21,selected,43-54,44-56;36-55;48-59;45-53;44-58;47-50,44-56,1.84,98,0,2237.14368061
GEMS235,2018_Apr_23_1532,Elaine,EG,spatial_frequency,8,6,18,40-9;47-6;39-15;47-29,4,SimpleHill,47-29,91,22,selected,44-56,47-61;41-56;49-61;46-58;42-52;38-58,47-61,1.4,97,-1,2242.10881572
GEMS235,2018_Apr_23_1532,Elaine,EG,spatial_frequency,8,6,18,40-9;47-6;39-15;47-29,4,SimpleHill,47-29,91,23,selected,47-61,49-54;42-57;49-68;50-55;41-63;45-54,50-55,0.93,99,2,2246.61747185
GEMS235,2018_Apr_23_1532,Elaine,EG,spatial_frequency,8,6,18,40-9;47-6;39-15;47-29,4,SimpleHill,47-29,91,24,selected,50-55,53-52;55-52;52-52;44-54;57-56;51-51,53-52,0.76,99,0,2250.93995722
GEMS235,2018_Apr_23_1532,Elaine,EG,spatial_frequency,8,6,18,40-9;47-6;39-15;47-29,4,SimpleHill,47-29,91,25,selected,53-52,52-51;56-52;48-49;54-53;58-52;57-54,54-53,1.1,99,0,2255.60881684
GEMS235,2018_Apr_23_1532,Elaine,EG,spatial_frequency,8,6,18,40-9;47-6;39-15;47-29,4,SimpleHill,47-29,91,26,selected,54-53,54-49;52-58;60-57;51-49;47-56;55-55,55-55,1.87,99,0,2261.05374239
GEMS235,2018_Apr_23_1532,Elaine,EG,spatial_frequency,8,6,18,40-9;47-6;39-15;47-29,4,SimpleHill,47-29,91,27,selected,55-55,49-58;57-51;59-51;52-51;52-60;61-59,52-51,2.27,99,0,2266.89834188
GEMS235,2018_Apr_23_1532,Elaine,EG,spatial_frequency,8,6,18,40-9;47-6;39-15;47-29,4,SimpleHill,47-29,91,28,selected,52-51,52-51;53-49;54-47;45-51;57-46;46-55,52-51,1.4,99,0,2271.86608032
GEMS235,2018_Apr_23_1532,Elaine,EG,spatial_frequency,8,6,18,40-9;47-6;39-15;47-29,4,SimpleHill,47-29,91,29,selected,52-51,51-44;53-53;56-53;52-52;49-46;52-55,49-46,1.63,99,0,2277.08039016
GEMS235,2018_Apr_23_1532,Elaine,EG,spatial_frequency,8,6,18,40-9;47-6;39-15;47-29,4,SimpleHill,47-29,91,30,selected,49-46,48-40;51-41;50-48;45-41;51-43;52-48,52-48,1.45,99,0,2282.11661448
GEMS235,2018_Apr_23_1532,Elaine,EG,spatial_frequency,8,6,18,40-9;47-6;39-15;47-29,4,SimpleHill,47-29,91,31,selected,52-48,45-47;52-55;49-46;48-42;55-49;54-50,54-50,1.5,99,0,2287.1994479
GEMS235,2018_Apr_23_1532,Elaine,EG,spatial_frequency,8,6,18,40-9;47-6;39-15;47-29,4,SimpleHill,47-29,91,32,selected,54-50,50-49;57-52;60-51;53-43;49-48;46-50,46-50,1.26,99,0,2292.03620159
GEMS235,2018_Apr_23_1532,Elaine,EG,spatial_frequency,8,6,18,40-9;47-6;39-15;47-29,4,SimpleHill,47-29,91,33,selected,46-50,53-48;50-55;51-50;51-52;42-52;39-52,51-52,1.67,99,0,2297.28003332
GEMS235,2018_Apr_23_1532,Elaine,EG,spatial_frequency,8,6,18,40-9;47-6;39-15;47-29,4,SimpleHill,47-29,91,34,selected,51-52,55-52;48-53;49-48;47-52;58-49;57-50,58-49,2.55,98,-1,2303.39783118
GEMS235,2018_Apr_23_1532,Elaine,EG,spatial_frequency,8,6,18,40-9;47-6;39-15;47-29,4,SimpleHill,47-29,91,35,selected,58-49,55-52;63-45;62-46;57-44;58-52;56-52,56-52,0.88,99,1,2307.8640234
GEMS235,2018_Apr_23_1532,Elaine,EG,spatial_frequency,8,6,18,40-9;47-6;39-15;47-29,4,SimpleHill,47-29,91,36,selected,56-52,49-53;54-56;57-50;58-59;54-51;51-46,54-56,1.11,98,-1,2312.54385903
GEMS235,2018_Apr_23_1532,Elaine,EG,spatial_frequency,8,6,18,40-9;47-6;39-15;47-29,4,SimpleHill,47-29,91,37,selected,54-56,55-50;51-58;58-52;61-53;58-61;52-56,61-53,0.7,97,-1,2316.81974617
GEMS235,2018_Apr_23_1532,Elaine,EG,spatial_frequency,8,6,18,40-9;47-6;39-15;47-29,4,SimpleHill,47-29,91,38,selected,61-53,67-50;56-48;69-53;55-48;66-47;60-47,60-47,2.36,97,0,2322.75772777
GEMS235,2018_Apr_23_1532,Elaine,EG,spatial_frequency,8,6,18,40-9;47-6;39-15;47-29,4,SimpleHill,47-29,91,39,selected,60-47,66-46;55-52;56-51;64-52;65-43;67-45,64-52,3.42,96,-1,2329.74142734
