subj_id,date,computer,experimenter,instructions,sight_radius,n_gabors,landscape_ix,landscape_name,starting_pos,starting_score,trial,feedback,pos,stims,selected,rt,score,delta,exp_time
GEMS203,2018_Mar_14_1224,Elaine,SF,orientation,8,6,0,OrientationBias,0-0,0,0,training,0-0,4-1;4-2;5-3;3-0;2-6;4-3,3-0,4.71,11,11,221.284812768
GEMS203,2018_Mar_14_1224,Elaine,SF,orientation,8,6,0,OrientationBias,0-0,0,1,training,3-0,7-0;9-2;7-5;3-1;2-5;3-2,7-0,6.56,26,15,238.13327943
GEMS203,2018_Mar_14_1224,Elaine,SF,orientation,8,6,0,OrientationBias,0-0,0,2,training,7-0,6-6;8-2;4-1;5-6;2-1;13-3,6-6,3.81,22,-4,250.906329443
GEMS203,2018_Mar_14_1224,Elaine,SF,orientation,8,6,0,OrientationBias,0-0,0,3,training,6-6,1-4;8-11;11-0;1-12;0-5;3-11,8-11,4.08,29,7,264.724720223
GEMS203,2018_Mar_14_1224,Elaine,SF,orientation,8,6,0,OrientationBias,0-0,0,4,training,8-11,5-9;12-6;8-4;14-15;13-13;11-12,12-6,7.17,42,13,277.085833095
GEMS203,2018_Mar_14_1224,Elaine,SF,orientation,8,6,0,OrientationBias,0-0,0,5,training,12-6,15-5;17-0;10-5;7-2;10-7;13-1,15-5,4.88,51,9,290.393726125
GEMS203,2018_Mar_14_1224,Elaine,SF,orientation,8,6,0,OrientationBias,0-0,0,6,training,15-5,9-0;12-1;8-2;11-10;18-11;18-3,18-11,5.32,59,8,300.790020351
GEMS203,2018_Mar_14_1224,Elaine,SF,orientation,8,6,0,OrientationBias,0-0,0,7,training,18-11,18-11;24-10;24-11;19-13;19-5;22-10,24-10,7.51,72,13,312.266541575
GEMS203,2018_Mar_14_1224,Elaine,SF,orientation,8,6,0,OrientationBias,0-0,0,8,training,24-10,24-14;25-11;25-4;29-8;26-3;17-11,25-11,1.08,75,3,316.695801156
GEMS203,2018_Mar_14_1224,Elaine,SF,orientation,8,6,0,OrientationBias,0-0,0,9,training,25-11,18-9;20-7;32-12;22-14;28-14;26-16,18-9,4.47,59,-16,328.579866893
GEMS203,2018_Mar_14_1224,Elaine,SF,orientation,8,6,0,OrientationBias,0-0,0,10,training,18-9,22-6;24-6;14-8;18-13;19-9;13-5,18-13,4.59,59,0,339.084728456
GEMS203,2018_Mar_14_1224,Elaine,SF,orientation,8,6,0,OrientationBias,0-0,0,11,training,18-13,12-13;13-8;16-19;23-8;11-14;21-18,16-19,1.87,53,-6,345.058995268
GEMS203,2018_Mar_14_1224,Elaine,SF,orientation,8,6,0,OrientationBias,0-0,0,12,training,16-19,18-14;15-24;18-12;17-23;21-16;13-21,15-24,5.58,51,-2,354.804945299
GEMS203,2018_Mar_14_1224,Elaine,SF,orientation,8,6,0,OrientationBias,0-0,0,13,training,15-24,13-30;9-27;9-26;9-23;19-28;20-18,9-23,6.07,32,-19,367.483540529
GEMS203,2018_Mar_14_1224,Elaine,SF,orientation,8,6,0,OrientationBias,0-0,0,14,training,9-23,6-29;6-25;5-20;7-16;10-26;14-28,14-28,2.54,48,16,378.634704161
GEMS203,2018_Mar_14_1224,Elaine,SF,orientation,8,6,0,OrientationBias,0-0,0,15,training,14-28,16-35;13-26;14-27;11-29;14-22;13-35,16-35,3.54,53,5,385.771289505
GEMS203,2018_Mar_14_1224,Elaine,SF,orientation,8,6,0,OrientationBias,0-0,0,16,training,16-35,16-35;17-31;18-39;19-37;22-35;18-42,18-42,2.82,59,6,394.182680249
GEMS203,2018_Mar_14_1224,Elaine,SF,orientation,8,6,0,OrientationBias,0-0,0,17,training,18-42,16-48;19-39;21-40;23-37;20-45;17-35,19-39,2.43,61,2,399.719813207
GEMS203,2018_Mar_14_1224,Elaine,SF,orientation,8,6,0,OrientationBias,0-0,0,18,training,19-39,24-45;16-38;16-40;25-44;22-35;25-40,16-38,1.8,53,-8,405.284901114
GEMS203,2018_Mar_14_1224,Elaine,SF,orientation,8,6,0,OrientationBias,0-0,0,19,training,16-38,19-31;11-32;15-41;19-35;17-41;12-35,19-35,1.94,61,8,414.283821442
GEMS203,2018_Mar_14_1224,Elaine,SF,orientation,8,6,0,OrientationBias,0-0,0,20,training,19-35,19-41;21-36;20-30;14-41;19-27;15-32,19-27,6.58,61,0,424.199503345
GEMS203,2018_Mar_14_1224,Elaine,SF,orientation,8,6,0,OrientationBias,0-0,0,21,training,19-27,26-30;15-24;25-30;25-22;20-33;21-24,15-24,2.02,51,-10,433.904981854
GEMS203,2018_Mar_14_1224,Elaine,SF,orientation,8,6,0,OrientationBias,0-0,0,22,training,15-24,11-26;16-26;14-28;8-23;10-29;9-26,9-26,3.9,32,-19,443.348381197
GEMS203,2018_Mar_14_1224,Elaine,SF,orientation,8,6,0,OrientationBias,0-0,0,23,training,9-26,10-28;11-19;6-26;8-30;9-34;12-29,8-30,4.53,29,-3,453.793406289
GEMS203,2018_Mar_14_1224,Elaine,SF,orientation,8,6,0,OrientationBias,0-0,0,24,training,8-30,12-30;7-25;12-25;2-32;7-28;7-23,12-30,1.7,42,13,459.729013943
GEMS203,2018_Mar_14_1224,Elaine,SF,orientation,8,6,0,OrientationBias,0-0,0,25,training,12-30,18-32;7-25;15-29;10-26;9-26;15-31,18-32,1.61,59,17,464.199756538
GEMS203,2018_Mar_14_1224,Elaine,SF,orientation,8,6,0,OrientationBias,0-0,0,26,training,18-32,14-37;14-26;17-39;17-31;15-26;14-27,14-37,0.91,48,-11,467.470698742
GEMS203,2018_Mar_14_1224,Elaine,SF,orientation,8,6,0,OrientationBias,0-0,0,27,training,14-37,17-37;14-29;10-34;11-40;19-42;15-43,10-34,4.26,36,-12,476.801053296
GEMS203,2018_Mar_14_1224,Elaine,SF,orientation,8,6,0,OrientationBias,0-0,0,28,training,10-34,17-33;9-41;11-40;16-29;3-36;4-31,17-33,2.48,56,20,484.040935336
GEMS203,2018_Mar_14_1224,Elaine,SF,orientation,8,6,0,OrientationBias,0-0,0,29,training,17-33,18-28;20-26;21-39;16-30;11-33;19-31,21-39,5.1,66,10,493.117192226
GEMS203,2018_Mar_14_1224,Elaine,SF,orientation,8,6,1,SimpleHill,28-29,81,0,selected,28-29,25-28;22-32;21-29;29-34;28-29;25-35,25-28,6.55,77,-4,525.76306185
GEMS203,2018_Mar_14_1224,Elaine,SF,orientation,8,6,1,SimpleHill,28-29,81,1,selected,25-28,31-33;20-24;26-32;22-21;31-27;19-30,20-24,2.02,68,-9,531.355465482
GEMS203,2018_Mar_14_1224,Elaine,SF,orientation,8,6,1,SimpleHill,28-29,81,2,selected,20-24,20-26;24-27;20-28;22-20;15-27;18-22,20-28,1.67,72,4,536.609458154
GEMS203,2018_Mar_14_1224,Elaine,SF,orientation,8,6,1,SimpleHill,28-29,81,3,selected,20-28,14-25;17-24;23-28;20-33;25-27;18-30,20-33,1.66,76,4,541.83117335
GEMS203,2018_Mar_14_1224,Elaine,SF,orientation,8,6,1,SimpleHill,28-29,81,4,selected,20-33,21-29;15-29;13-32;25-33;13-33;21-36,13-32,1.48,66,-10,546.869545706
GEMS203,2018_Mar_14_1224,Elaine,SF,orientation,8,6,1,SimpleHill,28-29,81,5,selected,13-32,16-32;7-27;18-29;10-37;12-28;20-29,16-32,2.5,70,4,552.934392903
GEMS203,2018_Mar_14_1224,Elaine,SF,orientation,8,6,1,SimpleHill,28-29,81,6,selected,16-32,21-37;16-24;9-30;14-29;14-31;12-33,14-31,1.61,66,-4,558.096688388
GEMS203,2018_Mar_14_1224,Elaine,SF,orientation,8,6,1,SimpleHill,28-29,81,7,selected,14-31,18-35;15-26;13-28;21-32;14-33;18-37,13-28,3.13,62,-4,564.777041885
GEMS203,2018_Mar_14_1224,Elaine,SF,orientation,8,6,1,SimpleHill,28-29,81,8,selected,13-28,12-31;13-26;8-27;10-32;9-26;18-26,12-31,1.46,63,1,569.796685315
GEMS203,2018_Mar_14_1224,Elaine,SF,orientation,8,6,1,SimpleHill,28-29,81,9,selected,12-31,14-27;13-33;12-37;19-29;9-31;14-28,13-33,1.57,66,3,574.954189657
GEMS203,2018_Mar_14_1224,Elaine,SF,orientation,8,6,1,SimpleHill,28-29,81,10,selected,13-33,18-31;10-36;7-33;10-37;6-31;15-34,10-36,0.79,64,-2,579.33242171
GEMS203,2018_Mar_14_1224,Elaine,SF,orientation,8,6,1,SimpleHill,28-29,81,11,selected,10-36,3-38;10-35;15-33;11-36;12-33;6-31,12-33,2.19,65,1,585.08456969
GEMS203,2018_Mar_14_1224,Elaine,SF,orientation,8,6,1,SimpleHill,28-29,81,12,selected,12-33,12-26;6-28;16-31;7-29;13-31;19-32,13-31,2.63,65,0,591.270880107
GEMS203,2018_Mar_14_1224,Elaine,SF,orientation,8,6,1,SimpleHill,28-29,81,13,selected,13-31,8-36;20-34;6-31;19-34;13-23;9-25,8-36,2.98,60,-5,597.820611901
GEMS203,2018_Mar_14_1224,Elaine,SF,orientation,8,6,1,SimpleHill,28-29,81,14,selected,8-36,16-36;8-32;5-37;2-34;5-43;8-41,8-32,1.25,58,-2,602.652968633
GEMS203,2018_Mar_14_1224,Elaine,SF,orientation,8,6,1,SimpleHill,28-29,81,15,selected,8-32,9-28;13-37;4-36;4-34;3-34;5-26,4-36,2.24,53,-5,608.47588776
GEMS203,2018_Mar_14_1224,Elaine,SF,orientation,8,6,1,SimpleHill,28-29,81,16,selected,4-36,4-31;5-40;4-40;5-37;1-36;3-43,4-31,2.12,50,-3,614.165195842
GEMS203,2018_Mar_14_1224,Elaine,SF,orientation,8,6,1,SimpleHill,28-29,81,17,selected,4-31,2-32;10-29;3-33;7-25;5-31;10-30,7-25,1.6,50,0,619.343955599
GEMS203,2018_Mar_14_1224,Elaine,SF,orientation,8,6,1,SimpleHill,28-29,81,18,selected,7-25,5-28;2-22;11-20;6-20;3-25;12-24,12-24,3.13,57,7,626.060821395
GEMS203,2018_Mar_14_1224,Elaine,SF,orientation,8,6,1,SimpleHill,28-29,81,19,selected,12-24,8-21;11-18;10-19;14-27;6-29;8-25,8-25,1.84,52,-5,631.461910286
GEMS203,2018_Mar_14_1224,Elaine,SF,orientation,8,6,1,SimpleHill,28-29,81,20,selected,8-25,8-29;9-19;14-20;5-29;9-21;3-27,9-19,2.33,47,-5,637.363793645
GEMS203,2018_Mar_14_1224,Elaine,SF,orientation,8,6,1,SimpleHill,28-29,81,21,selected,9-19,10-15;13-20;6-23;3-17;11-24;3-21,10-15,1.26,43,-4,642.198581479
GEMS203,2018_Mar_14_1224,Elaine,SF,orientation,8,6,1,SimpleHill,28-29,81,22,selected,10-15,6-18;12-15;10-12;9-17;12-9;12-18,9-17,1.61,44,1,647.396508048
GEMS203,2018_Mar_14_1224,Elaine,SF,orientation,8,6,1,SimpleHill,28-29,81,23,selected,9-17,2-15;16-15;13-21;2-17;8-18;11-12,13-21,1.65,55,11,652.609666854
GEMS203,2018_Mar_14_1224,Elaine,SF,orientation,8,6,1,SimpleHill,28-29,81,24,selected,13-21,14-17;20-23;13-25;20-21;5-21;13-24,13-24,6.15,59,4,662.331896439
GEMS203,2018_Mar_14_1224,Elaine,SF,orientation,8,6,1,SimpleHill,28-29,81,25,selected,13-24,17-28;13-23;20-24;17-18;12-22;7-22,13-23,4.04,58,-1,669.931857131
GEMS203,2018_Mar_14_1224,Elaine,SF,orientation,8,6,1,SimpleHill,28-29,81,26,selected,13-23,15-16;13-18;13-30;14-26;8-25;16-28,16-28,2.24,67,9,675.750857688
GEMS203,2018_Mar_14_1224,Elaine,SF,orientation,8,6,1,SimpleHill,28-29,81,27,selected,16-28,11-25;23-31;19-28;12-33;18-21;14-29,19-28,2.15,71,4,681.47217821
GEMS203,2018_Mar_14_1224,Elaine,SF,orientation,8,6,1,SimpleHill,28-29,81,28,selected,19-28,24-22;21-28;24-28;21-31;16-26;21-26,24-28,2.45,76,5,687.491618701
GEMS203,2018_Mar_14_1224,Elaine,SF,orientation,8,6,1,SimpleHill,28-29,81,29,selected,24-28,16-28;25-34;28-27;24-28;26-34;26-31,16-28,2.14,67,-9,693.207980992
GEMS203,2018_Mar_14_1224,Elaine,SF,orientation,8,6,1,SimpleHill,28-29,81,30,selected,16-28,23-25;15-22;10-23;11-23;20-33;21-27,20-33,1.4,76,9,698.173526567
GEMS203,2018_Mar_14_1224,Elaine,SF,orientation,8,6,1,SimpleHill,28-29,81,31,selected,20-33,17-27;13-32;23-38;16-38;26-36;22-37,13-32,1.95,66,-10,703.677300456
GEMS203,2018_Mar_14_1224,Elaine,SF,orientation,8,6,1,SimpleHill,28-29,81,32,selected,13-32,18-36;11-31;15-27;18-35;6-31;14-33,18-35,2.2,75,9,709.427477307
GEMS203,2018_Mar_14_1224,Elaine,SF,orientation,8,6,1,SimpleHill,28-29,81,33,selected,18-35,16-30;25-34;18-32;13-29;11-34;19-40,13-29,1.25,63,-12,714.248851669
GEMS203,2018_Mar_14_1224,Elaine,SF,orientation,8,6,1,SimpleHill,28-29,81,34,selected,13-29,7-30;15-23;13-34;15-31;20-32;20-26,15-23,1.81,60,-3,719.630736616
GEMS203,2018_Mar_14_1224,Elaine,SF,orientation,8,6,1,SimpleHill,28-29,81,35,selected,15-23,16-21;15-18;12-17;22-22;9-23;9-28,16-21,1.31,60,0,724.503446115
GEMS203,2018_Mar_14_1224,Elaine,SF,orientation,8,6,1,SimpleHill,28-29,81,36,selected,16-21,15-23;21-17;9-19;15-22;11-16;12-25,12-25,0.89,58,-2,728.955387443
GEMS203,2018_Mar_14_1224,Elaine,SF,orientation,8,6,1,SimpleHill,28-29,81,37,selected,12-25,14-22;16-30;10-22;14-20;16-23;13-24,16-30,2.16,68,10,734.684601123
GEMS203,2018_Mar_14_1224,Elaine,SF,orientation,8,6,1,SimpleHill,28-29,81,38,selected,16-30,16-28;10-35;13-24;11-32;23-29;11-30,10-35,1.58,63,-5,739.831610276
GEMS203,2018_Mar_14_1224,Elaine,SF,orientation,8,6,1,SimpleHill,28-29,81,39,selected,10-35,11-35;12-30;8-33;3-36;17-36;13-30,13-30,1.7,64,1,745.098262282
GEMS203,2018_Mar_14_1224,Elaine,SF,orientation,8,6,2,SimpleHill,36-13,68,0,selected,36-13,37-14;43-14;30-12;30-17;33-15;34-10,30-12,8.41,63,-5,764.956673254
GEMS203,2018_Mar_14_1224,Elaine,SF,orientation,8,6,2,SimpleHill,36-13,68,1,selected,30-12,24-14;25-9;28-16;29-7;23-9;31-5,25-9,2.56,53,-10,771.08488018
GEMS203,2018_Mar_14_1224,Elaine,SF,orientation,8,6,2,SimpleHill,36-13,68,2,selected,25-9,29-14;27-6;25-17;18-7;30-12;28-3,25-17,2.74,65,12,777.397642776
GEMS203,2018_Mar_14_1224,Elaine,SF,orientation,8,6,2,SimpleHill,36-13,68,3,selected,25-17,29-17;28-18;20-20;22-24;25-16;25-12,20-20,1.54,64,-1,782.50987229
GEMS203,2018_Mar_14_1224,Elaine,SF,orientation,8,6,2,SimpleHill,36-13,68,4,selected,20-20,19-21;19-18;25-15;26-17;12-20;21-18,26-17,2.34,66,2,788.428151102
GEMS203,2018_Mar_14_1224,Elaine,SF,orientation,8,6,2,SimpleHill,36-13,68,5,selected,26-17,26-9;24-15;25-22;28-15;28-11;31-17,24-15,6.59,61,-5,798.590028546
GEMS203,2018_Mar_14_1224,Elaine,SF,orientation,8,6,2,SimpleHill,36-13,68,6,selected,24-15,21-13;26-15;25-13;23-15;23-18;31-15,31-15,5.8,68,7,807.979848263
GEMS203,2018_Mar_14_1224,Elaine,SF,orientation,8,6,2,SimpleHill,36-13,68,7,selected,31-15,31-16;39-15;34-22;27-19;32-13;31-19,34-22,4.78,79,11,816.33675
GEMS203,2018_Mar_14_1224,Elaine,SF,orientation,8,6,2,SimpleHill,36-13,68,8,selected,34-22,39-20;31-25;41-25;38-28;38-16;34-21,34-21,4.3,78,-1,824.21164701
GEMS203,2018_Mar_14_1224,Elaine,SF,orientation,8,6,2,SimpleHill,36-13,68,9,selected,34-21,36-22;36-20;29-16;37-25;34-17;34-29,37-25,3.24,84,6,831.000131558
GEMS203,2018_Mar_14_1224,Elaine,SF,orientation,8,6,2,SimpleHill,36-13,68,10,selected,37-25,33-27;40-24;34-23;34-21;37-26;36-26,34-23,3.69,80,-4,838.253466441
GEMS203,2018_Mar_14_1224,Elaine,SF,orientation,8,6,2,SimpleHill,36-13,68,11,selected,34-23,30-25;37-29;31-19;28-28;28-22;34-22,28-22,4.02,74,-6,846.155070039
GEMS203,2018_Mar_14_1224,Elaine,SF,orientation,8,6,2,SimpleHill,36-13,68,12,selected,28-22,22-25;31-15;26-17;33-27;22-18;28-25,22-25,4.82,71,-3,854.548972215
GEMS203,2018_Mar_14_1224,Elaine,SF,orientation,8,6,2,SimpleHill,36-13,68,13,selected,22-25,19-20;28-28;28-29;20-28;17-28;23-21,19-20,1.37,62,-9,859.497819211
GEMS203,2018_Mar_14_1224,Elaine,SF,orientation,8,6,2,SimpleHill,36-13,68,14,selected,19-20,22-17;23-22;23-17;15-25;20-24;25-16,23-22,3.75,69,7,866.828186248
GEMS203,2018_Mar_14_1224,Elaine,SF,orientation,8,6,2,SimpleHill,36-13,68,15,selected,23-22,25-15;24-24;25-23;18-16;28-16;20-21,20-21,2.65,65,-4,873.065585971
GEMS203,2018_Mar_14_1224,Elaine,SF,orientation,8,6,2,SimpleHill,36-13,68,16,selected,20-21,23-28;14-18;20-21;15-21;15-26;22-28,15-21,3.81,58,-7,880.452463399
GEMS203,2018_Mar_14_1224,Elaine,SF,orientation,8,6,2,SimpleHill,36-13,68,17,selected,15-21,19-16;13-17;15-26;21-24;21-23;18-27,18-27,4.26,68,10,888.284465788
GEMS203,2018_Mar_14_1224,Elaine,SF,orientation,8,6,2,SimpleHill,36-13,68,18,selected,18-27,22-28;22-26;15-26;14-23;19-34;24-28,24-28,3.02,76,8,894.860120265
GEMS203,2018_Mar_14_1224,Elaine,SF,orientation,8,6,2,SimpleHill,36-13,68,19,selected,24-28,26-32;29-24;23-30;23-21;21-23;19-26,19-26,2.05,69,-7,900.475050399
GEMS203,2018_Mar_14_1224,Elaine,SF,orientation,8,6,2,SimpleHill,36-13,68,20,selected,19-26,13-24;12-28;17-26;21-20;14-21;21-27,13-24,2.16,59,-10,906.172964484
GEMS203,2018_Mar_14_1224,Elaine,SF,orientation,8,6,2,SimpleHill,36-13,68,21,selected,13-24,15-23;10-20;6-23;19-25;14-25;8-20,19-25,1.64,68,9,911.374229938
GEMS203,2018_Mar_14_1224,Elaine,SF,orientation,8,6,2,SimpleHill,36-13,68,22,selected,19-25,12-24;23-21;15-19;19-30;15-25;19-25,12-24,6.81,57,-11,921.755927951
GEMS203,2018_Mar_14_1224,Elaine,SF,orientation,8,6,2,SimpleHill,36-13,68,23,selected,12-24,11-27;11-21;9-23;12-20;4-24;11-28,9-23,2.27,51,-6,927.588542037
GEMS203,2018_Mar_14_1224,Elaine,SF,orientation,8,6,2,SimpleHill,36-13,68,24,selected,9-23,2-22;6-18;10-17;10-28;8-21;6-29,6-29,7.77,52,1,938.926824959
GEMS203,2018_Mar_14_1224,Elaine,SF,orientation,8,6,2,SimpleHill,36-13,68,25,selected,6-29,5-28;6-27;1-23;2-23;3-29;9-29,2-23,2.34,39,-13,944.834827205
GEMS203,2018_Mar_14_1224,Elaine,SF,orientation,8,6,2,SimpleHill,36-13,68,26,selected,2-23,2-19;4-18;6-17;5-29;0-26;8-22,6-17,6.21,39,0,956.538290732
GEMS203,2018_Mar_14_1224,Elaine,SF,orientation,8,6,2,SimpleHill,36-13,68,27,selected,6-17,11-13;5-21;0-13;12-17;10-15;0-15,5-21,1.29,42,3,961.40018623
GEMS203,2018_Mar_14_1224,Elaine,SF,orientation,8,6,2,SimpleHill,36-13,68,28,selected,5-21,5-29;2-21;5-17;5-16;8-17;8-19,2-21,1.66,37,-5,966.642069807
GEMS203,2018_Mar_14_1224,Elaine,SF,orientation,8,6,2,SimpleHill,36-13,68,29,selected,2-21,1-16;5-22;0-23;1-18;4-28;1-19,1-19,1.34,32,-5,971.53952981
GEMS203,2018_Mar_14_1224,Elaine,SF,orientation,8,6,2,SimpleHill,36-13,68,30,selected,1-19,5-15;6-23;3-13;1-17;3-20;0-19,3-20,3.22,37,5,978.328872526
GEMS203,2018_Mar_14_1224,Elaine,SF,orientation,8,6,2,SimpleHill,36-13,68,31,selected,3-20,6-18;1-18;5-27;5-18;7-25;4-19,5-27,2.67,48,11,984.575473625
GEMS203,2018_Mar_14_1224,Elaine,SF,orientation,8,6,2,SimpleHill,36-13,68,32,selected,5-27,0-24;1-33;7-30;7-20;9-31;0-21,7-20,1.52,45,-3,989.664567181
GEMS203,2018_Mar_14_1224,Elaine,SF,orientation,8,6,2,SimpleHill,36-13,68,33,selected,7-20,0-19;3-20;4-15;7-25;0-17;6-25,7-25,1.03,50,5,994.283005847
GEMS203,2018_Mar_14_1224,Elaine,SF,orientation,8,6,2,SimpleHill,36-13,68,34,selected,7-25,3-21;2-19;8-29;4-31;5-32;3-30,4-31,1.83,50,0,999.666285437
GEMS203,2018_Mar_14_1224,Elaine,SF,orientation,8,6,2,SimpleHill,36-13,68,35,selected,4-31,6-30;5-33;3-28;8-25;6-32;11-30,6-32,2.97,54,4,1006.19591543
GEMS203,2018_Mar_14_1224,Elaine,SF,orientation,8,6,2,SimpleHill,36-13,68,36,selected,6-32,0-35;7-37;12-34;1-31;11-37;10-38,0-35,2.35,45,-9,1012.12127532
GEMS203,2018_Mar_14_1224,Elaine,SF,orientation,8,6,2,SimpleHill,36-13,68,37,selected,0-35,0-38;1-30;4-32;7-32;1-34;4-38,4-38,2.11,54,9,1017.7963441
GEMS203,2018_Mar_14_1224,Elaine,SF,orientation,8,6,2,SimpleHill,36-13,68,38,selected,4-38,7-32;6-35;8-33;11-41;4-41;1-38,11-41,0.71,67,13,1022.1557496
GEMS203,2018_Mar_14_1224,Elaine,SF,orientation,8,6,2,SimpleHill,36-13,68,39,selected,11-41,8-47;9-37;11-41;7-36;5-39;16-38,8-47,1.19,64,-3,1026.91645333
GEMS203,2018_Mar_14_1224,Elaine,SF,orientation,8,6,3,SimpleHill,68-56,92,0,selected,68-56,62-60;67-55;64-57;62-61;68-49;65-57,62-61,3.63,94,2,1044.52306234
GEMS203,2018_Mar_14_1224,Elaine,SF,orientation,8,6,3,SimpleHill,68-56,92,1,selected,62-61,62-62;64-55;62-58;59-67;67-63;63-67,62-58,2.15,95,1,1050.23052606
GEMS203,2018_Mar_14_1224,Elaine,SF,orientation,8,6,3,SimpleHill,68-56,92,2,selected,62-58,66-62;57-54;64-54;60-51;55-57;59-55,66-62,3.3,92,-3,1057.09219397
GEMS203,2018_Mar_14_1224,Elaine,SF,orientation,8,6,3,SimpleHill,68-56,92,3,selected,66-62,61-57;68-66;65-60;65-58;66-63;59-65,68-66,2.5,88,-4,1063.16694035
GEMS203,2018_Mar_14_1224,Elaine,SF,orientation,8,6,3,SimpleHill,68-56,92,4,selected,68-66,61-68;61-64;63-61;66-70;70-70;67-67,63-61,3.9,94,6,1070.64404126
GEMS203,2018_Mar_14_1224,Elaine,SF,orientation,8,6,3,SimpleHill,68-56,92,5,selected,63-61,59-63;66-54;65-61;60-55;66-66;65-67,65-61,1.77,93,-1,1075.97773533
GEMS203,2018_Mar_14_1224,Elaine,SF,orientation,8,6,3,SimpleHill,68-56,92,6,selected,65-61,68-60;63-64;66-59;70-64;62-68;64-57,62-68,2.0,90,-3,1081.53827473
GEMS203,2018_Mar_14_1224,Elaine,SF,orientation,8,6,3,SimpleHill,68-56,92,7,selected,62-68,64-63;55-70;66-70;57-69;67-70;56-67,64-63,1.27,92,2,1086.36399306
GEMS203,2018_Mar_14_1224,Elaine,SF,orientation,8,6,3,SimpleHill,68-56,92,8,selected,64-63,68-69;66-66;66-64;65-70;63-65;63-66,63-66,2.92,91,-1,1092.8505972
GEMS203,2018_Mar_14_1224,Elaine,SF,orientation,8,6,3,SimpleHill,68-56,92,9,selected,63-66,66-61;57-65;64-65;58-69;62-69;70-67,57-65,3.41,94,3,1100.62392729
GEMS203,2018_Mar_14_1224,Elaine,SF,orientation,8,6,3,SimpleHill,68-56,92,10,selected,57-65,52-62;55-60;56-64;53-61;62-70;58-62,55-60,0.92,97,3,1105.12439206
GEMS203,2018_Mar_14_1224,Elaine,SF,orientation,8,6,3,SimpleHill,68-56,92,11,selected,55-60,55-60;54-64;52-56;57-55;52-65;59-55,52-56,3.45,99,2,1112.14174139
GEMS203,2018_Mar_14_1224,Elaine,SF,orientation,8,6,3,SimpleHill,68-56,92,12,selected,52-56,55-51;50-63;53-52;49-63;58-59;49-55,53-52,1.45,99,0,1117.15393915
GEMS203,2018_Mar_14_1224,Elaine,SF,orientation,8,6,3,SimpleHill,68-56,92,13,selected,53-52,51-57;46-53;55-58;49-58;55-47;56-53,51-57,1.78,99,0,1122.50771455
GEMS203,2018_Mar_14_1224,Elaine,SF,orientation,8,6,3,SimpleHill,68-56,92,14,selected,51-57,54-59;50-53;48-63;51-63;47-57;48-53,48-53,1.78,99,0,1127.87658678
GEMS203,2018_Mar_14_1224,Elaine,SF,orientation,8,6,3,SimpleHill,68-56,92,15,selected,48-53,48-55;51-52;52-50;50-49;42-48;50-47,42-48,2.09,98,-1,1133.51665441
GEMS203,2018_Mar_14_1224,Elaine,SF,orientation,8,6,3,SimpleHill,68-56,92,16,selected,42-48,48-52;36-44;45-41;46-46;43-54;36-43,46-46,1.47,99,1,1138.56104802
GEMS203,2018_Mar_14_1224,Elaine,SF,orientation,8,6,3,SimpleHill,68-56,92,17,selected,46-46,43-46;50-43;44-45;44-52;47-51;44-44,44-45,1.85,98,-1,1143.98984219
GEMS203,2018_Mar_14_1224,Elaine,SF,orientation,8,6,3,SimpleHill,68-56,92,18,selected,44-45,48-48;37-48;40-45;40-42;39-44;45-52,37-48,1.49,96,-2,1149.05501492
GEMS203,2018_Mar_14_1224,Elaine,SF,orientation,8,6,3,SimpleHill,68-56,92,19,selected,37-48,32-49;43-50;38-41;32-44;30-48;37-42,32-49,1.4,93,-3,1154.01593836
GEMS203,2018_Mar_14_1224,Elaine,SF,orientation,8,6,3,SimpleHill,68-56,92,20,selected,32-49,33-54;36-51;32-54;37-44;29-54;26-47,29-54,1.04,90,-3,1158.62832504
GEMS203,2018_Mar_14_1224,Elaine,SF,orientation,8,6,3,SimpleHill,68-56,92,21,selected,29-54,32-53;27-60;28-58;24-52;23-50;35-52,24-52,2.23,86,-4,1164.43150471
GEMS203,2018_Mar_14_1224,Elaine,SF,orientation,8,6,3,SimpleHill,68-56,92,22,selected,24-52,21-55;30-56;24-60;25-45;23-50;27-45,24-60,0.99,84,-2,1168.99119394
GEMS203,2018_Mar_14_1224,Elaine,SF,orientation,8,6,3,SimpleHill,68-56,92,23,selected,24-60,23-57;28-64;25-56;20-60;22-58;20-55,28-64,0.77,86,2,1173.32179624
GEMS203,2018_Mar_14_1224,Elaine,SF,orientation,8,6,3,SimpleHill,68-56,92,24,selected,28-64,23-65;30-68;34-66;23-64;31-57;25-67,30-68,1.13,85,-1,1178.02235941
GEMS203,2018_Mar_14_1224,Elaine,SF,orientation,8,6,3,SimpleHill,68-56,92,25,selected,30-68,33-67;24-68;34-65;25-68;27-68;28-70,33-67,1.29,88,3,1182.8779014
GEMS203,2018_Mar_14_1224,Elaine,SF,orientation,8,6,3,SimpleHill,68-56,92,26,selected,33-67,39-63;36-61;29-63;27-69;36-62;34-60,34-60,1.17,92,4,1187.6084425
GEMS203,2018_Mar_14_1224,Elaine,SF,orientation,8,6,3,SimpleHill,68-56,92,27,selected,34-60,31-56;37-61;42-60;28-57;37-67;37-54,37-54,0.35,96,4,1191.52512821
GEMS203,2018_Mar_14_1224,Elaine,SF,orientation,8,6,3,SimpleHill,68-56,92,28,selected,37-54,33-59;43-51;39-54;35-61;33-51;37-58,37-58,0.37,95,-1,1195.44451006
GEMS203,2018_Mar_14_1224,Elaine,SF,orientation,8,6,3,SimpleHill,68-56,92,29,selected,37-58,34-60;34-65;42-52;30-57;36-61;36-54,36-54,0.44,95,0,1199.46825804
GEMS203,2018_Mar_14_1224,Elaine,SF,orientation,8,6,3,SimpleHill,68-56,92,30,selected,36-54,35-55;41-51;40-59;40-56;36-51;35-49,35-49,0.5,95,0,1203.53132168
GEMS203,2018_Mar_14_1224,Elaine,SF,orientation,8,6,3,SimpleHill,68-56,92,31,selected,35-49,33-54;40-44;29-48;41-46;41-44;37-42,37-42,0.3,95,0,1207.41995033
GEMS203,2018_Mar_14_1224,Elaine,SF,orientation,8,6,3,SimpleHill,68-56,92,32,selected,37-42,31-40;38-35;42-41;35-45;38-45;38-46,38-46,0.31,96,1,1211.30886195
GEMS203,2018_Mar_14_1224,Elaine,SF,orientation,8,6,3,SimpleHill,68-56,92,33,selected,38-46,40-43;33-51;38-50;40-42;35-50;42-40,42-40,0.28,96,0,1215.16844894
GEMS203,2018_Mar_14_1224,Elaine,SF,orientation,8,6,3,SimpleHill,68-56,92,34,selected,42-40,43-37;43-35;48-43;44-47;41-45;39-40,39-40,0.32,95,-1,1219.0556343
GEMS203,2018_Mar_14_1224,Elaine,SF,orientation,8,6,3,SimpleHill,68-56,92,35,selected,39-40,34-35;45-39;45-38;37-33;40-39;33-43,33-43,0.3,93,-2,1222.92361347
GEMS203,2018_Mar_14_1224,Elaine,SF,orientation,8,6,3,SimpleHill,68-56,92,36,selected,33-43,26-41;31-47;33-48;41-43;36-47;25-43,25-43,0.94,86,-7,1227.43527956
GEMS203,2018_Mar_14_1224,Elaine,SF,orientation,8,6,3,SimpleHill,68-56,92,37,selected,25-43,19-44;20-47;22-47;28-46;24-44;22-50,22-50,0.62,84,-2,1231.63496952
GEMS203,2018_Mar_14_1224,Elaine,SF,orientation,8,6,3,SimpleHill,68-56,92,38,selected,22-50,23-45;23-51;27-45;17-52;18-53;22-46,22-46,0.42,84,0,1235.62542724
GEMS203,2018_Mar_14_1224,Elaine,SF,orientation,8,6,3,SimpleHill,68-56,92,39,selected,22-46,22-43;26-52;23-46;18-43;24-50;21-50,21-50,0.62,83,-1,1239.82358492
GEMS203,2018_Mar_14_1224,Elaine,SF,orientation,8,6,4,SimpleHill,33-8,58,0,selected,33-8,37-6;36-1;41-8;30-14;30-5;28-11,36-1,12.86,48,-10,1263.48506929
GEMS203,2018_Mar_14_1224,Elaine,SF,orientation,8,6,4,SimpleHill,33-8,58,1,selected,36-1,33-5;35-4;37-5;38-7;40-0;37-2,35-4,3.67,53,5,1270.73867753
GEMS203,2018_Mar_14_1224,Elaine,SF,orientation,8,6,4,SimpleHill,33-8,58,2,selected,35-4,40-2;38-6;36-5;34-6;28-5;32-7,40-2,4.05,51,-2,1278.33807678
GEMS203,2018_Mar_14_1224,Elaine,SF,orientation,8,6,4,SimpleHill,33-8,58,3,selected,40-2,43-4;44-0;40-8;35-1;45-8;35-4,35-1,3.31,47,-4,1285.21749414
GEMS203,2018_Mar_14_1224,Elaine,SF,orientation,8,6,4,SimpleHill,33-8,58,4,selected,35-1,36-0;34-6;39-4;32-0;37-0;29-4,29-4,2.83,48,1,1291.6131437
GEMS203,2018_Mar_14_1224,Elaine,SF,orientation,8,6,4,SimpleHill,33-8,58,5,selected,29-4,22-1;35-2;32-8;28-1;34-1;27-6,22-1,2.57,36,-12,1297.76288004
GEMS203,2018_Mar_14_1224,Elaine,SF,orientation,8,6,4,SimpleHill,33-8,58,6,selected,22-1,19-2;18-2;23-7;18-4;28-2;16-0,18-4,2.58,37,1,1303.90270856
GEMS203,2018_Mar_14_1224,Elaine,SF,orientation,8,6,4,SimpleHill,33-8,58,7,selected,18-4,26-4;15-10;25-3;21-0;17-10;25-2,21-0,5.45,33,-4,1312.93050666
GEMS203,2018_Mar_14_1224,Elaine,SF,orientation,8,6,4,SimpleHill,33-8,58,8,selected,21-0,19-6;21-8;18-4;19-1;25-2;26-3,26-3,2.19,44,11,1318.68510559
GEMS203,2018_Mar_14_1224,Elaine,SF,orientation,8,6,4,SimpleHill,33-8,58,9,selected,26-3,32-3;25-2;24-0;24-9;20-5;30-3,25-2,4.55,41,-3,1326.81107027
GEMS203,2018_Mar_14_1224,Elaine,SF,orientation,8,6,4,SimpleHill,33-8,58,10,selected,25-2,24-6;19-6;27-6;29-4;25-7;29-8,29-4,9.48,48,7,1339.85364544
GEMS203,2018_Mar_14_1224,Elaine,SF,orientation,8,6,4,SimpleHill,33-8,58,11,selected,29-4,33-5;23-5;25-7;31-8;32-7;29-0,33-5,1.98,53,5,1345.41158568
GEMS203,2018_Mar_14_1224,Elaine,SF,orientation,8,6,4,SimpleHill,33-8,58,12,selected,33-5,39-1;27-0;34-12;30-2;38-3;27-4,30-2,3.65,45,-8,1352.63992071
GEMS203,2018_Mar_14_1224,Elaine,SF,orientation,8,6,4,SimpleHill,33-8,58,13,selected,30-2,26-8;31-5;27-4;27-2;32-9;35-1,27-2,2.66,43,-2,1358.86944904
GEMS203,2018_Mar_14_1224,Elaine,SF,orientation,8,6,4,SimpleHill,33-8,58,14,selected,27-2,35-2;27-7;26-4;28-6;27-4;30-8,26-4,3.31,46,3,1365.73928603
GEMS203,2018_Mar_14_1224,Elaine,SF,orientation,8,6,4,SimpleHill,33-8,58,15,selected,26-4,20-3;19-4;32-0;26-6;26-10;20-1,32-0,3.9,43,-3,1373.20988362
GEMS203,2018_Mar_14_1224,Elaine,SF,orientation,8,6,4,SimpleHill,33-8,58,16,selected,32-0,31-5;31-3;30-5;30-1;37-0;31-6,31-5,2.66,52,9,1379.44365542
GEMS203,2018_Mar_14_1224,Elaine,SF,orientation,8,6,4,SimpleHill,33-8,58,17,selected,31-5,37-8;28-9;27-11;34-2;32-11;33-10,34-2,5.34,48,-4,1388.36158949
GEMS203,2018_Mar_14_1224,Elaine,SF,orientation,8,6,4,SimpleHill,33-8,58,18,selected,34-2,30-1;35-3;28-2;38-3;32-2;34-2,30-1,2.01,43,-5,1393.93226781
GEMS203,2018_Mar_14_1224,Elaine,SF,orientation,8,6,4,SimpleHill,33-8,58,19,selected,30-1,27-1;26-3;37-2;31-4;28-5;28-7,37-2,3.17,50,7,1400.67537958
GEMS203,2018_Mar_14_1224,Elaine,SF,orientation,8,6,4,SimpleHill,33-8,58,20,selected,37-2,35-1;40-8;36-4;32-0;38-6;38-2,36-4,1.63,53,3,1405.86425522
GEMS203,2018_Mar_14_1224,Elaine,SF,orientation,8,6,4,SimpleHill,33-8,58,21,selected,36-4,34-9;39-6;37-11;31-4;39-11;38-0,38-0,2.95,47,-6,1412.3732034
GEMS203,2018_Mar_14_1224,Elaine,SF,orientation,8,6,4,SimpleHill,33-8,58,22,selected,38-0,39-5;33-2;44-5;31-2;44-2;41-3,41-3,1.67,54,7,1417.6159173
GEMS203,2018_Mar_14_1224,Elaine,SF,orientation,8,6,4,SimpleHill,33-8,58,23,selected,41-3,48-6;42-10;43-3;35-1;39-1;42-0,42-0,1.66,48,-6,1422.84269187
GEMS203,2018_Mar_14_1224,Elaine,SF,orientation,8,6,4,SimpleHill,33-8,58,24,selected,42-0,34-0;39-2;37-2;42-4;43-3;42-6,43-3,2.15,54,6,1428.57766402
GEMS203,2018_Mar_14_1224,Elaine,SF,orientation,8,6,4,SimpleHill,33-8,58,25,selected,43-3,39-0;43-9;36-3;44-6;37-2;48-2,37-2,1.71,50,-4,1433.86649426
GEMS203,2018_Mar_14_1224,Elaine,SF,orientation,8,6,4,SimpleHill,33-8,58,26,selected,37-2,43-1;40-6;34-6;39-0;44-5;33-4,40-6,1.18,59,9,1438.61822644
GEMS203,2018_Mar_14_1224,Elaine,SF,orientation,8,6,4,SimpleHill,33-8,58,27,selected,40-6,34-8;34-3;36-6;44-0;40-1;42-9,34-3,0.39,50,-9,1442.59083134
GEMS203,2018_Mar_14_1224,Elaine,SF,orientation,8,6,4,SimpleHill,33-8,58,28,selected,34-3,39-5;41-6;32-10;39-1;41-0;30-7,41-6,0.28,59,9,1446.43470307
GEMS203,2018_Mar_14_1224,Elaine,SF,orientation,8,6,4,SimpleHill,33-8,58,29,selected,41-6,45-2;43-5;39-12;37-7;46-9;42-10,43-5,0.22,58,-1,1450.21296803
GEMS203,2018_Mar_14_1224,Elaine,SF,orientation,8,6,4,SimpleHill,33-8,58,30,selected,43-5,43-7;39-10;36-8;38-7;43-6;46-9,39-10,0.33,65,7,1454.10872162
GEMS203,2018_Mar_14_1224,Elaine,SF,orientation,8,6,4,SimpleHill,33-8,58,31,selected,39-10,35-8;40-16;46-13;37-7;36-17;46-9,40-16,0.32,74,9,1457.99241989
GEMS203,2018_Mar_14_1224,Elaine,SF,orientation,8,6,4,SimpleHill,33-8,58,32,selected,40-16,45-15;40-24;37-17;47-15;45-13;37-15,40-24,1.74,84,10,1463.31220692
GEMS203,2018_Mar_14_1224,Elaine,SF,orientation,8,6,4,SimpleHill,33-8,58,33,selected,40-24,40-24;44-20;46-20;44-26;36-26;36-18,44-20,0.56,81,-3,1467.45086358
GEMS203,2018_Mar_14_1224,Elaine,SF,orientation,8,6,4,SimpleHill,33-8,58,34,selected,44-20,44-23;49-16;47-18;46-16;42-17;47-17,49-16,0.36,76,-5,1471.40246049
GEMS203,2018_Mar_14_1224,Elaine,SF,orientation,8,6,4,SimpleHill,33-8,58,35,selected,49-16,49-20;56-17;55-14;49-18;48-14;47-21,56-17,0.37,77,1,1475.3551774
GEMS203,2018_Mar_14_1224,Elaine,SF,orientation,8,6,4,SimpleHill,33-8,58,36,selected,56-17,52-11;58-16;60-20;52-23;56-9;53-18,58-16,0.24,75,-2,1479.15926901
GEMS203,2018_Mar_14_1224,Elaine,SF,orientation,8,6,4,SimpleHill,33-8,58,37,selected,58-16,60-16;57-21;61-21;55-21;52-19;55-9,57-21,0.24,82,7,1482.96761209
GEMS203,2018_Mar_14_1224,Elaine,SF,orientation,8,6,4,SimpleHill,33-8,58,38,selected,57-21,63-18;54-16;51-17;54-25;59-16;63-17,54-16,1.31,76,-6,1487.84755504
GEMS203,2018_Mar_14_1224,Elaine,SF,orientation,8,6,4,SimpleHill,33-8,58,39,selected,54-16,54-24;57-19;61-16;55-10;57-12;49-10,57-19,0.62,79,3,1492.04040174
