subj_id,date,computer,experimenter,instructions,sight_radius,n_gabors,start_pos_list_ix,start_pos_list,landscape_ix,landscape_name,starting_pos,starting_score,trial,feedback,pos,stims,selected,rt,score,delta,exp_time
GEMS228,2018_Apr_20_1025,George,EG,orientation,8,6,14,34-17;11-24;9-9;3-17,0,OrientationBias,0-0,0,0,training,0-0,6-2;4-2;2-7;4-0;5-2;0-0,2-7,7.69,7,7,352.407483115
GEMS228,2018_Apr_20_1025,George,EG,orientation,8,6,14,34-17;11-24;9-9;3-17,0,OrientationBias,0-0,0,1,training,2-7,9-4;0-2;6-8;0-13;3-12;9-5,9-4,1.15,32,25,365.142030985
GEMS228,2018_Apr_20_1025,George,EG,orientation,8,6,14,34-17;11-24;9-9;3-17,0,OrientationBias,0-0,0,2,training,9-4,13-5;15-2;9-5;14-10;15-1;6-5,13-5,1.16,45,13,371.427977658
GEMS228,2018_Apr_20_1025,George,EG,orientation,8,6,14,34-17;11-24;9-9;3-17,0,OrientationBias,0-0,0,3,training,13-5,12-7;14-2;6-3;20-4;11-3;13-13,14-2,0.51,48,3,384.054551391
GEMS228,2018_Apr_20_1025,George,EG,orientation,8,6,14,34-17;11-24;9-9;3-17,0,OrientationBias,0-0,0,4,training,14-2,18-4;21-4;14-7;15-7;12-8;12-4,15-7,0.95,51,3,388.290457092
GEMS228,2018_Apr_20_1025,George,EG,orientation,8,6,14,34-17;11-24;9-9;3-17,0,OrientationBias,0-0,0,5,training,15-7,10-7;19-9;9-11;15-6;12-0;9-4,19-9,0.53,61,10,392.251610704
GEMS228,2018_Apr_20_1025,George,EG,orientation,8,6,14,34-17;11-24;9-9;3-17,0,OrientationBias,0-0,0,6,training,19-9,23-7;15-11;21-15;13-12;12-6;17-5,15-11,0.62,51,-10,399.967372363
GEMS228,2018_Apr_20_1025,George,EG,orientation,8,6,14,34-17;11-24;9-9;3-17,0,OrientationBias,0-0,0,7,training,15-11,19-16;13-11;19-15;21-7;16-6;8-12,19-15,0.96,61,10,404.669344771
GEMS228,2018_Apr_20_1025,George,EG,orientation,8,6,14,34-17;11-24;9-9;3-17,0,OrientationBias,0-0,0,8,training,19-15,15-16;16-11;18-20;20-14;22-17;15-13,18-20,6.25,59,-2,414.014787619
GEMS228,2018_Apr_20_1025,George,EG,orientation,8,6,14,34-17;11-24;9-9;3-17,0,OrientationBias,0-0,0,9,training,18-20,16-19;21-24;11-22;13-18;16-25;17-24,13-18,3.86,45,-14,430.416043661
GEMS228,2018_Apr_20_1025,George,EG,orientation,8,6,14,34-17;11-24;9-9;3-17,0,OrientationBias,0-0,0,10,training,13-18,13-21;9-23;18-17;14-22;14-18;14-24,9-23,1.23,32,-13,435.150304088
GEMS228,2018_Apr_20_1025,George,EG,orientation,8,6,14,34-17;11-24;9-9;3-17,0,OrientationBias,0-0,0,11,training,9-23,10-19;14-28;8-24;13-25;9-17;16-24,9-17,1.43,32,0,439.444910854
GEMS228,2018_Apr_20_1025,George,EG,orientation,8,6,14,34-17;11-24;9-9;3-17,0,OrientationBias,0-0,0,12,training,9-17,9-11;9-12;12-21;4-19;11-16;5-20,9-12,12.01,32,0,454.80117986
GEMS228,2018_Apr_20_1025,George,EG,orientation,8,6,14,34-17;11-24;9-9;3-17,0,OrientationBias,0-0,0,13,training,9-12,2-11;13-7;13-15;13-16;5-17;9-10,13-15,1.02,45,13,459.416627509
GEMS228,2018_Apr_20_1025,George,EG,orientation,8,6,14,34-17;11-24;9-9;3-17,0,OrientationBias,0-0,0,14,training,13-15,8-19;7-11;9-11;19-16;18-9;17-19,18-9,1.64,59,14,465.343727474
GEMS228,2018_Apr_20_1025,George,EG,orientation,8,6,14,34-17;11-24;9-9;3-17,0,OrientationBias,0-0,0,15,training,18-9,23-4;20-4;24-10;22-3;25-6;18-10,25-6,4.17,75,16,473.095415
GEMS228,2018_Apr_20_1025,George,EG,orientation,8,6,14,34-17;11-24;9-9;3-17,0,OrientationBias,0-0,0,16,training,25-6,22-9;32-9;21-8;19-6;23-2;27-4,23-2,1.0,70,-5,476.942719503
GEMS228,2018_Apr_20_1025,George,EG,orientation,8,6,14,34-17;11-24;9-9;3-17,0,OrientationBias,0-0,0,17,training,23-2,20-0;27-1;23-0;18-5;23-5;24-1,23-0,3.52,70,0,483.712166384
GEMS228,2018_Apr_20_1025,George,EG,orientation,8,6,14,34-17;11-24;9-9;3-17,0,OrientationBias,0-0,0,18,training,23-0,25-6;17-0;19-6;25-3;18-2;23-5,25-6,7.56,75,5,493.935656349
GEMS228,2018_Apr_20_1025,George,EG,orientation,8,6,14,34-17;11-24;9-9;3-17,0,OrientationBias,0-0,0,19,training,25-6,21-12;28-0;22-1;23-7;33-6;27-9,28-0,1.14,80,5,497.928170993
GEMS228,2018_Apr_20_1025,George,EG,orientation,8,6,14,34-17;11-24;9-9;3-17,0,OrientationBias,0-0,0,20,training,28-0,34-5;31-4;21-1;35-2;22-1;31-7,35-2,4.72,91,11,505.702849461
GEMS228,2018_Apr_20_1025,George,EG,orientation,8,6,14,34-17;11-24;9-9;3-17,0,OrientationBias,0-0,0,21,training,35-2,29-2;41-0;43-2;34-9;39-0;31-6,34-9,1.36,89,-2,509.930309849
GEMS228,2018_Apr_20_1025,George,EG,orientation,8,6,14,34-17;11-24;9-9;3-17,0,OrientationBias,0-0,0,22,training,34-9,32-10;30-6;40-14;35-8;35-9;34-7,40-14,2.39,96,7,516.591692327
GEMS228,2018_Apr_20_1025,George,EG,orientation,8,6,14,34-17;11-24;9-9;3-17,0,OrientationBias,0-0,0,23,training,40-14,40-19;40-13;34-11;36-15;44-17;43-14,40-19,2.54,96,0,522.31409718
GEMS228,2018_Apr_20_1025,George,EG,orientation,8,6,14,34-17;11-24;9-9;3-17,0,OrientationBias,0-0,0,24,training,40-19,44-24;37-26;47-16;35-19;33-17;37-12,44-24,3.0,98,2,529.365121475
GEMS228,2018_Apr_20_1025,George,EG,orientation,8,6,14,34-17;11-24;9-9;3-17,0,OrientationBias,0-0,0,25,training,44-24,40-19;38-26;40-20;39-26;50-21;51-24,51-24,1.71,99,1,534.574383983
GEMS228,2018_Apr_20_1025,George,EG,orientation,8,6,14,34-17;11-24;9-9;3-17,0,OrientationBias,0-0,0,26,training,51-24,51-17;52-31;45-24;46-28;51-26;44-22,51-17,2.38,99,0,539.676068948
GEMS228,2018_Apr_20_1025,George,EG,orientation,8,6,14,34-17;11-24;9-9;3-17,0,OrientationBias,0-0,0,27,training,51-17,56-17;55-17;53-10;58-19;57-18;57-15,53-10,2.44,99,0,545.453421145
GEMS228,2018_Apr_20_1025,George,EG,orientation,8,6,14,34-17;11-24;9-9;3-17,0,OrientationBias,0-0,0,28,training,53-10,51-3;59-6;55-17;56-12;52-8;46-10,55-17,1.71,99,0,549.671117442
GEMS228,2018_Apr_20_1025,George,EG,orientation,8,6,14,34-17;11-24;9-9;3-17,0,OrientationBias,0-0,0,29,training,55-17,52-21;56-18;48-16;62-19;55-16;50-16,48-16,1.69,99,0,554.052884351
GEMS228,2018_Apr_20_1025,George,EG,orientation,8,6,14,34-17;11-24;9-9;3-17,1,SimpleHill,34-17,73,0,selected,34-17,34-9;31-12;39-21;31-11;36-11;29-13,39-21,3.38,80,7,579.1353465
GEMS228,2018_Apr_20_1025,George,EG,orientation,8,6,14,34-17;11-24;9-9;3-17,1,SimpleHill,34-17,73,1,selected,39-21,35-20;43-25;44-19;39-21;41-22;38-17,39-21,2.56,80,0,585.265737652
GEMS228,2018_Apr_20_1025,George,EG,orientation,8,6,14,34-17;11-24;9-9;3-17,1,SimpleHill,34-17,73,2,selected,39-21,40-24;38-16;32-22;39-15;40-28;37-17,40-28,3.91,88,8,592.736607663
GEMS228,2018_Apr_20_1025,George,EG,orientation,8,6,14,34-17;11-24;9-9;3-17,1,SimpleHill,34-17,73,3,selected,40-28,43-26;38-30;41-29;37-21;40-34;38-34,43-26,2.45,87,-1,598.764773855
GEMS228,2018_Apr_20_1025,George,EG,orientation,8,6,14,34-17;11-24;9-9;3-17,1,SimpleHill,34-17,73,4,selected,43-26,44-33;41-28;46-29;45-27;45-26;48-29,45-27,15.57,88,1,617.905470375
GEMS228,2018_Apr_20_1025,George,EG,orientation,8,6,14,34-17;11-24;9-9;3-17,1,SimpleHill,34-17,73,5,selected,45-27,49-33;38-27;48-23;41-30;48-32;48-30,48-23,3.06,85,-3,624.533361288
GEMS228,2018_Apr_20_1025,George,EG,orientation,8,6,14,34-17;11-24;9-9;3-17,1,SimpleHill,34-17,73,6,selected,48-23,45-25;52-25;45-20;44-23;49-26;47-24,45-25,1.75,87,2,629.873226209
GEMS228,2018_Apr_20_1025,George,EG,orientation,8,6,14,34-17;11-24;9-9;3-17,1,SimpleHill,34-17,73,7,selected,45-25,42-31;46-32;40-28;40-23;49-19;50-27,49-19,6.27,80,-7,639.714302039
GEMS228,2018_Apr_20_1025,George,EG,orientation,8,6,14,34-17;11-24;9-9;3-17,1,SimpleHill,34-17,73,8,selected,49-19,51-24;53-19;53-24;48-14;50-20;53-17,48-14,3.32,74,-6,646.597445664
GEMS228,2018_Apr_20_1025,George,EG,orientation,8,6,14,34-17;11-24;9-9;3-17,1,SimpleHill,34-17,73,9,selected,48-14,55-14;54-12;46-8;51-7;47-14;48-9,55-14,2.72,73,-1,652.88555392
GEMS228,2018_Apr_20_1025,George,EG,orientation,8,6,14,34-17;11-24;9-9;3-17,1,SimpleHill,34-17,73,10,selected,55-14,60-19;53-17;62-11;60-8;52-8;61-18,60-8,5.1,62,-11,661.550877693
GEMS228,2018_Apr_20_1025,George,EG,orientation,8,6,14,34-17;11-24;9-9;3-17,1,SimpleHill,34-17,73,11,selected,60-8,65-6;65-5;61-14;66-11;55-5;62-13,55-5,1.81,59,-3,666.93593771
GEMS228,2018_Apr_20_1025,George,EG,orientation,8,6,14,34-17;11-24;9-9;3-17,1,SimpleHill,34-17,73,12,selected,55-5,56-3;52-6;54-4;61-10;59-6;59-8,52-6,2.2,61,2,672.696671041
GEMS228,2018_Apr_20_1025,George,EG,orientation,8,6,14,34-17;11-24;9-9;3-17,1,SimpleHill,34-17,73,13,selected,52-6,58-5;58-10;49-4;45-7;53-10;53-8,45-7,1.26,62,1,677.539882526
GEMS228,2018_Apr_20_1025,George,EG,orientation,8,6,14,34-17;11-24;9-9;3-17,1,SimpleHill,34-17,73,14,selected,45-7,42-13;48-2;52-8;51-4;39-2;38-6,38-6,2.8,58,-4,683.90204923
GEMS228,2018_Apr_20_1025,George,EG,orientation,8,6,14,34-17;11-24;9-9;3-17,1,SimpleHill,34-17,73,15,selected,38-6,39-4;33-2;33-7;39-1;35-8;38-7,39-1,1.57,49,-9,689.05350821
GEMS228,2018_Apr_20_1025,George,EG,orientation,8,6,14,34-17;11-24;9-9;3-17,1,SimpleHill,34-17,73,16,selected,39-1,42-1;42-2;45-3;44-5;40-6;36-5,42-2,1.43,52,3,694.068372971
GEMS228,2018_Apr_20_1025,George,EG,orientation,8,6,14,34-17;11-24;9-9;3-17,1,SimpleHill,34-17,73,17,selected,42-2,43-0;46-6;48-6;39-9;45-8;47-1,47-1,5.82,51,-1,703.463182357
GEMS228,2018_Apr_20_1025,George,EG,orientation,8,6,14,34-17;11-24;9-9;3-17,1,SimpleHill,34-17,73,18,selected,47-1,45-1;40-0;39-1;49-7;47-0;43-5,45-1,2.78,51,0,709.794142313
GEMS228,2018_Apr_20_1025,George,EG,orientation,8,6,14,34-17;11-24;9-9;3-17,1,SimpleHill,34-17,73,19,selected,45-1,38-3;43-4;39-1;49-6;42-4;49-5,39-1,0.61,49,-2,713.978217087
GEMS228,2018_Apr_20_1025,George,EG,orientation,8,6,14,34-17;11-24;9-9;3-17,1,SimpleHill,34-17,73,20,selected,39-1,37-6;40-3;35-7;44-5;35-0;34-7,44-5,2.11,58,9,719.647817611
GEMS228,2018_Apr_20_1025,George,EG,orientation,8,6,14,34-17;11-24;9-9;3-17,1,SimpleHill,34-17,73,21,selected,44-5,42-7;42-4;38-1;41-6;46-6;48-0,46-6,1.65,60,2,724.866914631
GEMS228,2018_Apr_20_1025,George,EG,orientation,8,6,14,34-17;11-24;9-9;3-17,1,SimpleHill,34-17,73,22,selected,46-6,49-9;46-13;51-10;50-0;48-10;48-1,49-9,2.5,66,6,730.928822701
GEMS228,2018_Apr_20_1025,George,EG,orientation,8,6,14,34-17;11-24;9-9;3-17,1,SimpleHill,34-17,73,23,selected,49-9,52-9;50-6;46-9;46-14;54-9;50-15,46-14,2.01,73,7,736.50909638
GEMS228,2018_Apr_20_1025,George,EG,orientation,8,6,14,34-17;11-24;9-9;3-17,1,SimpleHill,34-17,73,24,selected,46-14,53-16;49-12;51-15;43-7;51-16;42-17,53-16,1.23,76,3,741.310987484
GEMS228,2018_Apr_20_1025,George,EG,orientation,8,6,14,34-17;11-24;9-9;3-17,1,SimpleHill,34-17,73,25,selected,53-16,52-17;55-9;46-16;58-18;47-11;57-17,46-16,1.3,76,0,746.187850901
GEMS228,2018_Apr_20_1025,George,EG,orientation,8,6,14,34-17;11-24;9-9;3-17,1,SimpleHill,34-17,73,26,selected,46-16,40-13;47-22;45-18;43-19;47-9;41-19,40-13,1.03,70,-6,750.776207868
GEMS228,2018_Apr_20_1025,George,EG,orientation,8,6,14,34-17;11-24;9-9;3-17,1,SimpleHill,34-17,73,27,selected,40-13,45-13;35-7;37-18;42-9;43-17;41-7,43-17,0.74,77,7,755.069230498
GEMS228,2018_Apr_20_1025,George,EG,orientation,8,6,14,34-17;11-24;9-9;3-17,1,SimpleHill,34-17,73,28,selected,43-17,47-20;44-21;39-22;40-14;44-12;49-18,44-12,0.9,70,-7,759.534960469
GEMS228,2018_Apr_20_1025,George,EG,orientation,8,6,14,34-17;11-24;9-9;3-17,1,SimpleHill,34-17,73,29,selected,44-12,46-8;49-17;37-15;49-6;44-17;43-18,49-17,2.96,78,8,766.068267021
GEMS228,2018_Apr_20_1025,George,EG,orientation,8,6,14,34-17;11-24;9-9;3-17,1,SimpleHill,34-17,73,30,selected,49-17,50-21;49-22;53-13;54-20;53-16;54-18,54-20,2.06,81,3,771.684453763
GEMS228,2018_Apr_20_1025,George,EG,orientation,8,6,14,34-17;11-24;9-9;3-17,1,SimpleHill,34-17,73,31,selected,54-20,59-21;56-26;55-26;55-16;52-21;54-12,55-16,1.12,76,-5,776.511333184
GEMS228,2018_Apr_20_1025,George,EG,orientation,8,6,14,34-17;11-24;9-9;3-17,1,SimpleHill,34-17,73,32,selected,55-16,54-14;59-18;59-21;58-15;53-11;53-9,53-9,3.39,66,-10,783.484053647
GEMS228,2018_Apr_20_1025,George,EG,orientation,8,6,14,34-17;11-24;9-9;3-17,1,SimpleHill,34-17,73,33,selected,53-9,58-9;46-7;56-7;56-10;56-14;47-11,46-7,1.14,62,-4,788.18364585
GEMS228,2018_Apr_20_1025,George,EG,orientation,8,6,14,34-17;11-24;9-9;3-17,1,SimpleHill,34-17,73,34,selected,46-7,43-11;50-7;50-5;43-2;48-2;53-6,43-2,0.6,52,-10,792.34649147
GEMS228,2018_Apr_20_1025,George,EG,orientation,8,6,14,34-17;11-24;9-9;3-17,1,SimpleHill,34-17,73,35,selected,43-2,41-3;44-3;50-1;47-2;39-2;39-7,41-3,2.18,54,2,798.083737716
GEMS228,2018_Apr_20_1025,George,EG,orientation,8,6,14,34-17;11-24;9-9;3-17,1,SimpleHill,34-17,73,36,selected,41-3,41-0;36-1;37-5;41-4;47-6;41-10,47-6,0.97,61,7,802.622973656
GEMS228,2018_Apr_20_1025,George,EG,orientation,8,6,14,34-17;11-24;9-9;3-17,1,SimpleHill,34-17,73,37,selected,47-6,44-2;54-4;44-0;46-7;53-1;49-8,44-2,2.23,53,-8,808.427264812
GEMS228,2018_Apr_20_1025,George,EG,orientation,8,6,14,34-17;11-24;9-9;3-17,1,SimpleHill,34-17,73,38,selected,44-2,46-3;51-2;44-5;45-0;41-1;51-3,51-3,1.14,55,2,813.137039147
GEMS228,2018_Apr_20_1025,George,EG,orientation,8,6,14,34-17;11-24;9-9;3-17,1,SimpleHill,34-17,73,39,selected,51-3,57-1;50-3;58-1;51-0;54-1;58-0,58-0,0.94,48,-7,817.639809865
GEMS228,2018_Apr_20_1025,George,EG,orientation,8,6,14,34-17;11-24;9-9;3-17,2,SimpleHill,11-24,56,0,selected,11-24,14-26;6-23;12-27;16-26;10-22;6-21,14-26,1.73,62,6,829.760303127
GEMS228,2018_Apr_20_1025,George,EG,orientation,8,6,14,34-17;11-24;9-9;3-17,2,SimpleHill,11-24,56,1,selected,14-26,15-27;18-28;17-19;15-30;12-21;16-30,16-30,1.69,68,6,835.021029096
GEMS228,2018_Apr_20_1025,George,EG,orientation,8,6,14,34-17;11-24;9-9;3-17,2,SimpleHill,11-24,56,2,selected,16-30,16-32;15-37;20-35;14-30;18-37;16-23,16-23,1.63,62,-6,840.179559233
GEMS228,2018_Apr_20_1025,George,EG,orientation,8,6,14,34-17;11-24;9-9;3-17,2,SimpleHill,11-24,56,3,selected,16-23,18-22;17-25;12-26;13-24;14-25;18-18,13-24,1.29,59,-3,845.04611152
GEMS228,2018_Apr_20_1025,George,EG,orientation,8,6,14,34-17;11-24;9-9;3-17,2,SimpleHill,11-24,56,4,selected,13-24,14-19;13-17;14-24;18-28;12-30;14-17,14-19,1.24,54,-5,849.863996351
GEMS228,2018_Apr_20_1025,George,EG,orientation,8,6,14,34-17;11-24;9-9;3-17,2,SimpleHill,11-24,56,5,selected,14-19,11-20;13-24;8-18;9-13;18-17;18-20,18-17,1.16,57,3,854.592506962
GEMS228,2018_Apr_20_1025,George,EG,orientation,8,6,14,34-17;11-24;9-9;3-17,2,SimpleHill,11-24,56,6,selected,18-17,24-17;16-23;16-21;23-17;18-21;22-14,22-14,1.7,58,1,859.86017189
GEMS228,2018_Apr_20_1025,George,EG,orientation,8,6,14,34-17;11-24;9-9;3-17,2,SimpleHill,11-24,56,7,selected,22-14,26-12;28-13;20-11;21-11;29-15;27-11,29-15,2.74,66,8,866.167877149
GEMS228,2018_Apr_20_1025,George,EG,orientation,8,6,14,34-17;11-24;9-9;3-17,2,SimpleHill,11-24,56,8,selected,29-15,33-9;30-12;30-20;26-9;30-9;32-13,33-9,2.13,60,-6,871.872976857
GEMS228,2018_Apr_20_1025,George,EG,orientation,8,6,14,34-17;11-24;9-9;3-17,2,SimpleHill,11-24,56,9,selected,33-9,37-14;30-8;35-9;30-15;35-14;37-5,30-15,7.53,67,7,882.984024839
GEMS228,2018_Apr_20_1025,George,EG,orientation,8,6,14,34-17;11-24;9-9;3-17,2,SimpleHill,11-24,56,10,selected,30-15,33-9;28-14;33-12;29-22;28-11;30-7,28-11,1.66,59,-8,888.193932012
GEMS228,2018_Apr_20_1025,George,EG,orientation,8,6,14,34-17;11-24;9-9;3-17,2,SimpleHill,11-24,56,11,selected,28-11,32-6;27-15;35-12;33-9;31-5;30-8,33-9,1.47,60,1,893.24010243
GEMS228,2018_Apr_20_1025,George,EG,orientation,8,6,14,34-17;11-24;9-9;3-17,2,SimpleHill,11-24,56,12,selected,33-9,28-7;38-8;34-15;37-10;36-14;38-13,36-14,0.83,70,10,897.624614769
GEMS228,2018_Apr_20_1025,George,EG,orientation,8,6,14,34-17;11-24;9-9;3-17,2,SimpleHill,11-24,56,13,selected,36-14,35-18;40-17;30-16;39-11;34-14;43-17,43-17,0.88,77,7,902.061347268
GEMS228,2018_Apr_20_1025,George,EG,orientation,8,6,14,34-17;11-24;9-9;3-17,2,SimpleHill,11-24,56,14,selected,43-17,46-11;45-24;42-24;42-15;48-12;38-18,48-12,1.18,71,-6,906.796820844
GEMS228,2018_Apr_20_1025,George,EG,orientation,8,6,14,34-17;11-24;9-9;3-17,2,SimpleHill,11-24,56,15,selected,48-12,46-18;44-12;51-12;48-13;45-5;50-8,48-13,1.36,72,1,911.73628533
GEMS228,2018_Apr_20_1025,George,EG,orientation,8,6,14,34-17;11-24;9-9;3-17,2,SimpleHill,11-24,56,16,selected,48-13,44-15;50-19;45-9;48-15;47-16;47-6,47-6,1.17,61,-11,916.471986172
GEMS228,2018_Apr_20_1025,George,EG,orientation,8,6,14,34-17;11-24;9-9;3-17,2,SimpleHill,11-24,56,17,selected,47-6,52-0;50-11;47-9;54-4;51-1;49-4,50-11,3.04,69,8,923.074135271
GEMS228,2018_Apr_20_1025,George,EG,orientation,8,6,14,34-17;11-24;9-9;3-17,2,SimpleHill,11-24,56,18,selected,50-11,51-5;53-18;46-7;49-4;47-14;56-7,47-14,2.74,73,4,929.396377517
GEMS228,2018_Apr_20_1025,George,EG,orientation,8,6,14,34-17;11-24;9-9;3-17,2,SimpleHill,11-24,56,19,selected,47-14,52-20;41-12;46-10;49-7;49-8;44-19,41-12,2.02,69,-4,934.988623284
GEMS228,2018_Apr_20_1025,George,EG,orientation,8,6,14,34-17;11-24;9-9;3-17,2,SimpleHill,11-24,56,20,selected,41-12,34-12;47-15;44-9;35-12;47-11;45-11,44-9,1.07,65,-4,939.639784258
GEMS228,2018_Apr_20_1025,George,EG,orientation,8,6,14,34-17;11-24;9-9;3-17,2,SimpleHill,11-24,56,21,selected,44-9,37-12;49-7;45-4;45-7;44-6;44-16,44-16,2.31,76,11,945.518613681
GEMS228,2018_Apr_20_1025,George,EG,orientation,8,6,14,34-17;11-24;9-9;3-17,2,SimpleHill,11-24,56,22,selected,44-16,41-12;42-22;40-17;48-19;46-21;47-21,48-19,2.0,80,4,951.097901796
GEMS228,2018_Apr_20_1025,George,EG,orientation,8,6,14,34-17;11-24;9-9;3-17,2,SimpleHill,11-24,56,23,selected,48-19,46-20;44-24;51-26;49-14;55-20;50-18,55-20,0.86,81,1,955.529540668
GEMS228,2018_Apr_20_1025,George,EG,orientation,8,6,14,34-17;11-24;9-9;3-17,2,SimpleHill,11-24,56,24,selected,55-20,57-18;57-27;60-25;54-16;51-16;48-17,48-17,2.82,78,-3,961.922973336
GEMS228,2018_Apr_20_1025,George,EG,orientation,8,6,14,34-17;11-24;9-9;3-17,2,SimpleHill,11-24,56,25,selected,48-17,50-10;51-23;42-17;48-13;52-21;48-9,52-21,4.83,83,5,970.346286611
GEMS228,2018_Apr_20_1025,George,EG,orientation,8,6,14,34-17;11-24;9-9;3-17,2,SimpleHill,11-24,56,26,selected,52-21,52-28;49-14;53-19;58-16;51-18;49-23,58-16,2.83,75,-8,976.781795717
GEMS228,2018_Apr_20_1025,George,EG,orientation,8,6,14,34-17;11-24;9-9;3-17,2,SimpleHill,11-24,56,27,selected,58-16,56-20;51-19;58-11;58-20;63-14;57-15,56-20,2.4,81,6,982.756056784
GEMS228,2018_Apr_20_1025,George,EG,orientation,8,6,14,34-17;11-24;9-9;3-17,2,SimpleHill,11-24,56,28,selected,56-20,53-26;51-20;52-14;57-25;55-20;61-14,57-25,2.45,86,5,988.792086041
GEMS228,2018_Apr_20_1025,George,EG,orientation,8,6,14,34-17;11-24;9-9;3-17,2,SimpleHill,11-24,56,29,selected,57-25,62-26;63-28;57-24;57-30;53-19;60-28,53-19,2.24,80,-6,994.62173746
GEMS228,2018_Apr_20_1025,George,EG,orientation,8,6,14,34-17;11-24;9-9;3-17,2,SimpleHill,11-24,56,30,selected,53-19,48-14;58-13;50-26;51-15;52-13;46-22,52-13,1.59,72,-8,999.795463654
GEMS228,2018_Apr_20_1025,George,EG,orientation,8,6,14,34-17;11-24;9-9;3-17,2,SimpleHill,11-24,56,31,selected,52-13,49-18;57-13;57-16;49-20;51-6;51-17,49-20,2.42,81,9,1005.78724721
GEMS228,2018_Apr_20_1025,George,EG,orientation,8,6,14,34-17;11-24;9-9;3-17,2,SimpleHill,11-24,56,32,selected,49-20,51-18;51-20;50-16;52-20;50-24;54-21,54-21,1.91,82,1,1011.27202362
GEMS228,2018_Apr_20_1025,George,EG,orientation,8,6,14,34-17;11-24;9-9;3-17,2,SimpleHill,11-24,56,33,selected,54-21,59-19;59-15;51-16;56-21;47-18;51-25,59-19,1.78,79,-3,1016.63947249
GEMS228,2018_Apr_20_1025,George,EG,orientation,8,6,14,34-17;11-24;9-9;3-17,2,SimpleHill,11-24,56,34,selected,59-19,61-13;52-20;58-25;57-13;61-12;56-25,52-20,1.9,81,2,1022.09976761
GEMS228,2018_Apr_20_1025,George,EG,orientation,8,6,14,34-17;11-24;9-9;3-17,2,SimpleHill,11-24,56,35,selected,52-20,45-19;52-13;56-26;53-13;52-28;59-22,59-22,1.77,82,1,1027.4420233
GEMS228,2018_Apr_20_1025,George,EG,orientation,8,6,14,34-17;11-24;9-9;3-17,2,SimpleHill,11-24,56,36,selected,59-22,53-23;60-26;53-21;62-17;57-23;57-15,53-21,1.79,83,1,1032.79090746
GEMS228,2018_Apr_20_1025,George,EG,orientation,8,6,14,34-17;11-24;9-9;3-17,2,SimpleHill,11-24,56,37,selected,53-21,56-15;45-21;51-17;48-25;59-23;55-19,56-15,2.31,74,-9,1038.67152556
GEMS228,2018_Apr_20_1025,George,EG,orientation,8,6,14,34-17;11-24;9-9;3-17,2,SimpleHill,11-24,56,38,selected,56-15,53-15;56-22;54-12;51-15;53-14;58-17,58-17,0.77,76,2,1042.9912426
GEMS228,2018_Apr_20_1025,George,EG,orientation,8,6,14,34-17;11-24;9-9;3-17,2,SimpleHill,11-24,56,39,selected,58-17,59-23;56-24;64-15;52-16;52-13;65-14,52-16,2.09,76,0,1048.64123428
GEMS228,2018_Apr_20_1025,George,EG,orientation,8,6,14,34-17;11-24;9-9;3-17,3,SimpleHill,9-9,32,0,selected,9-9,11-4;4-3;13-11;9-8;6-5;11-13,11-13,1.31,42,10,1058.82842323
GEMS228,2018_Apr_20_1025,George,EG,orientation,8,6,14,34-17;11-24;9-9;3-17,3,SimpleHill,9-9,32,1,selected,11-13,11-20;7-11;14-14;10-20;6-8;4-12,4-12,0.91,28,-14,1063.30991133
GEMS228,2018_Apr_20_1025,George,EG,orientation,8,6,14,34-17;11-24;9-9;3-17,3,SimpleHill,9-9,32,2,selected,4-12,1-14;1-10;10-13;5-14;3-7;10-14,10-14,5.38,42,14,1072.26314235
GEMS228,2018_Apr_20_1025,George,EG,orientation,8,6,14,34-17;11-24;9-9;3-17,3,SimpleHill,9-9,32,3,selected,10-14,3-14;14-20;13-8;8-21;4-11;15-10,8-21,2.61,47,5,1078.45489869
GEMS228,2018_Apr_20_1025,George,EG,orientation,8,6,14,34-17;11-24;9-9;3-17,3,SimpleHill,9-9,32,4,selected,8-21,6-28;15-24;13-25;10-22;7-27;9-28,6-28,1.82,51,4,1083.85688998
GEMS228,2018_Apr_20_1025,George,EG,orientation,8,6,14,34-17;11-24;9-9;3-17,3,SimpleHill,9-9,32,5,selected,6-28,5-32;5-34;0-26;4-26;7-23;12-26,12-26,1.24,59,8,1088.68486188
GEMS228,2018_Apr_20_1025,George,EG,orientation,8,6,14,34-17;11-24;9-9;3-17,3,SimpleHill,9-9,32,6,selected,12-26,6-22;14-24;17-21;13-22;8-32;13-21,13-21,1.29,55,-4,1093.53698985
GEMS228,2018_Apr_20_1025,George,EG,orientation,8,6,14,34-17;11-24;9-9;3-17,3,SimpleHill,9-9,32,7,selected,13-21,14-18;7-19;19-18;13-25;18-16;10-18,18-16,0.76,56,1,1097.87574085
GEMS228,2018_Apr_20_1025,George,EG,orientation,8,6,14,34-17;11-24;9-9;3-17,3,SimpleHill,9-9,32,8,selected,18-16,17-22;22-14;24-17;13-16;18-16;12-11,18-16,1.29,56,0,1102.73885471
GEMS228,2018_Apr_20_1025,George,EG,orientation,8,6,14,34-17;11-24;9-9;3-17,3,SimpleHill,9-9,32,9,selected,18-16,21-9;18-13;15-22;18-17;15-10;21-20,18-13,0.97,52,-4,1107.27830991
GEMS228,2018_Apr_20_1025,George,EG,orientation,8,6,14,34-17;11-24;9-9;3-17,3,SimpleHill,9-9,32,10,selected,18-13,21-12;15-8;20-11;17-18;24-16;26-13,24-16,0.57,63,11,1111.42315195
GEMS228,2018_Apr_20_1025,George,EG,orientation,8,6,14,34-17;11-24;9-9;3-17,3,SimpleHill,9-9,32,11,selected,24-16,28-11;20-17;25-23;22-18;28-19;27-11,27-11,1.48,59,-4,1116.45352005
GEMS228,2018_Apr_20_1025,George,EG,orientation,8,6,14,34-17;11-24;9-9;3-17,3,SimpleHill,9-9,32,12,selected,27-11,27-6;32-9;22-12;25-10;24-10;32-7,25-10,1.43,55,-4,1121.44896866
GEMS228,2018_Apr_20_1025,George,EG,orientation,8,6,14,34-17;11-24;9-9;3-17,3,SimpleHill,9-9,32,13,selected,25-10,27-10;25-16;29-14;27-17;30-8;22-6,29-14,0.81,65,10,1125.82238021
GEMS228,2018_Apr_20_1025,George,EG,orientation,8,6,14,34-17;11-24;9-9;3-17,3,SimpleHill,9-9,32,14,selected,29-14,28-18;33-18;28-8;23-9;27-20;28-13,27-20,4.03,71,6,1133.42699818
GEMS228,2018_Apr_20_1025,George,EG,orientation,8,6,14,34-17;11-24;9-9;3-17,3,SimpleHill,9-9,32,15,selected,27-20,21-18;33-17;28-22;30-15;24-25;33-18,24-25,2.12,73,2,1139.12565219
GEMS228,2018_Apr_20_1025,George,EG,orientation,8,6,14,34-17;11-24;9-9;3-17,3,SimpleHill,9-9,32,16,selected,24-25,25-27;24-17;25-20;24-30;22-25;17-22,25-20,1.83,69,-4,1144.54730963
GEMS228,2018_Apr_20_1025,George,EG,orientation,8,6,14,34-17;11-24;9-9;3-17,3,SimpleHill,9-9,32,17,selected,25-20,20-23;30-16;19-21;31-16;18-21;28-27,28-27,1.88,79,10,1149.97476489
GEMS228,2018_Apr_20_1025,George,EG,orientation,8,6,14,34-17;11-24;9-9;3-17,3,SimpleHill,9-9,32,18,selected,28-27,30-25;24-33;30-28;28-21;26-20;26-23,24-33,1.6,80,1,1155.13141129
GEMS228,2018_Apr_20_1025,George,EG,orientation,8,6,14,34-17;11-24;9-9;3-17,3,SimpleHill,9-9,32,19,selected,24-33,23-35;27-36;28-36;21-34;28-37;18-38,28-37,1.36,86,6,1160.06393553
GEMS228,2018_Apr_20_1025,George,EG,orientation,8,6,14,34-17;11-24;9-9;3-17,3,SimpleHill,9-9,32,20,selected,28-37,22-38;21-37;28-41;23-33;24-40;22-35,22-35,1.77,79,-7,1165.39128069
GEMS228,2018_Apr_20_1025,George,EG,orientation,8,6,14,34-17;11-24;9-9;3-17,3,SimpleHill,9-9,32,21,selected,22-35,26-40;15-37;25-34;19-33;17-29;17-38,17-29,1.72,69,-10,1170.68619122
GEMS228,2018_Apr_20_1025,George,EG,orientation,8,6,14,34-17;11-24;9-9;3-17,3,SimpleHill,9-9,32,22,selected,17-29,21-27;19-28;24-27;14-23;14-28;15-26,19-28,1.18,71,2,1175.42525495
GEMS228,2018_Apr_20_1025,George,EG,orientation,8,6,14,34-17;11-24;9-9;3-17,3,SimpleHill,9-9,32,23,selected,19-28,14-22;19-33;21-26;22-31;14-30;14-34,22-31,2.65,77,6,1181.66974265
GEMS228,2018_Apr_20_1025,George,EG,orientation,8,6,14,34-17;11-24;9-9;3-17,3,SimpleHill,9-9,32,24,selected,22-31,16-31;24-25;25-29;28-33;18-31;21-36,21-36,1.67,79,2,1186.92016421
GEMS228,2018_Apr_20_1025,George,EG,orientation,8,6,14,34-17;11-24;9-9;3-17,3,SimpleHill,9-9,32,25,selected,21-36,16-36;26-31;19-36;18-40;14-35;28-34,28-34,2.93,85,6,1193.43767773
GEMS228,2018_Apr_20_1025,George,EG,orientation,8,6,14,34-17;11-24;9-9;3-17,3,SimpleHill,9-9,32,26,selected,28-34,32-37;24-33;31-39;32-28;34-30;34-37,31-39,1.5,90,5,1198.50397811
GEMS228,2018_Apr_20_1025,George,EG,orientation,8,6,14,34-17;11-24;9-9;3-17,3,SimpleHill,9-9,32,27,selected,31-39,38-37;36-42;25-35;26-33;32-42;26-44,32-42,2.02,92,2,1204.08082456
GEMS228,2018_Apr_20_1025,George,EG,orientation,8,6,14,34-17;11-24;9-9;3-17,3,SimpleHill,9-9,32,28,selected,32-42,35-46;37-47;26-43;25-42;29-45;35-38,37-47,0.58,96,4,1208.23130021
GEMS228,2018_Apr_20_1025,George,EG,orientation,8,6,14,34-17;11-24;9-9;3-17,3,SimpleHill,9-9,32,29,selected,37-47,39-41;33-42;43-49;38-45;35-51;36-53,36-53,1.25,95,-1,1213.05801223
GEMS228,2018_Apr_20_1025,George,EG,orientation,8,6,14,34-17;11-24;9-9;3-17,3,SimpleHill,9-9,32,30,selected,36-53,36-47;35-54;43-56;43-50;33-50;29-56,33-50,0.84,94,-1,1217.46655325
GEMS228,2018_Apr_20_1025,George,EG,orientation,8,6,14,34-17;11-24;9-9;3-17,3,SimpleHill,9-9,32,31,selected,33-50,37-46;28-47;33-53;25-50;38-47;39-51,37-46,1.43,96,2,1222.47554208
GEMS228,2018_Apr_20_1025,George,EG,orientation,8,6,14,34-17;11-24;9-9;3-17,3,SimpleHill,9-9,32,32,selected,37-46,42-52;29-46;41-47;40-50;40-52;36-45,41-47,1.87,98,2,1227.90846356
GEMS228,2018_Apr_20_1025,George,EG,orientation,8,6,14,34-17;11-24;9-9;3-17,3,SimpleHill,9-9,32,33,selected,41-47,41-47;37-46;39-50;40-42;35-51;40-50,37-46,2.26,96,-2,1233.73217663
GEMS228,2018_Apr_20_1025,George,EG,orientation,8,6,14,34-17;11-24;9-9;3-17,3,SimpleHill,9-9,32,34,selected,37-46,38-50;41-41;33-41;36-44;30-43;32-51,33-41,4.41,92,-4,1241.71308985
GEMS228,2018_Apr_20_1025,George,EG,orientation,8,6,14,34-17;11-24;9-9;3-17,3,SimpleHill,9-9,32,35,selected,33-41,32-45;29-47;30-44;31-45;37-39;26-43,37-39,1.94,94,2,1247.22057296
GEMS228,2018_Apr_20_1025,George,EG,orientation,8,6,14,34-17;11-24;9-9;3-17,3,SimpleHill,9-9,32,36,selected,37-39,43-34;43-44;36-33;33-38;38-40;37-35,37-35,2.84,92,-2,1253.63546205
GEMS228,2018_Apr_20_1025,George,EG,orientation,8,6,14,34-17;11-24;9-9;3-17,3,SimpleHill,9-9,32,37,selected,37-35,39-36;40-31;34-33;34-32;39-34;42-32,34-32,1.83,88,-4,1259.04302583
GEMS228,2018_Apr_20_1025,George,EG,orientation,8,6,14,34-17;11-24;9-9;3-17,3,SimpleHill,9-9,32,38,selected,34-32,37-33;39-30;33-34;41-32;41-30;29-33,37-33,1.01,90,2,1263.61763804
GEMS228,2018_Apr_20_1025,George,EG,orientation,8,6,14,34-17;11-24;9-9;3-17,3,SimpleHill,9-9,32,39,selected,37-33,39-31;44-31;44-32;43-29;42-31;37-33,37-33,1.16,90,0,1268.34866009
GEMS228,2018_Apr_20_1025,George,EG,orientation,8,6,14,34-17;11-24;9-9;3-17,4,SimpleHill,3-17,34,0,selected,3-17,2-14;6-23;7-12;4-14;8-13;10-15,10-15,2.46,43,9,1282.1861
GEMS228,2018_Apr_20_1025,George,EG,orientation,8,6,14,34-17;11-24;9-9;3-17,4,SimpleHill,3-17,34,1,selected,10-15,10-13;9-12;5-11;7-16;11-20;17-18,17-18,1.2,57,14,1286.96911847
GEMS228,2018_Apr_20_1025,George,EG,orientation,8,6,14,34-17;11-24;9-9;3-17,4,SimpleHill,3-17,34,2,selected,17-18,12-18;12-15;21-12;13-20;12-13;14-18,13-20,1.46,54,-3,1292.00574629
GEMS228,2018_Apr_20_1025,George,EG,orientation,8,6,14,34-17;11-24;9-9;3-17,4,SimpleHill,3-17,34,3,selected,13-20,8-24;8-23;16-17;18-18;9-18;7-24,9-18,1.0,45,-9,1296.57960341
GEMS228,2018_Apr_20_1025,George,EG,orientation,8,6,14,34-17;11-24;9-9;3-17,4,SimpleHill,3-17,34,4,selected,9-18,7-17;16-19;16-18;10-13;3-16;8-24,8-24,0.96,51,6,1301.09639448
GEMS228,2018_Apr_20_1025,George,EG,orientation,8,6,14,34-17;11-24;9-9;3-17,4,SimpleHill,3-17,34,5,selected,8-24,13-20;10-17;5-20;5-26;8-17;2-26,13-20,2.69,54,3,1307.35470375
GEMS228,2018_Apr_20_1025,George,EG,orientation,8,6,14,34-17;11-24;9-9;3-17,4,SimpleHill,3-17,34,6,selected,13-20,17-20;10-22;9-14;18-24;13-14;17-25,17-25,4.16,65,11,1315.09436702
GEMS228,2018_Apr_20_1025,George,EG,orientation,8,6,14,34-17;11-24;9-9;3-17,4,SimpleHill,3-17,34,7,selected,17-25,14-20;13-19;11-23;22-26;14-19;21-28,22-26,3.93,72,7,1322.58052303
GEMS228,2018_Apr_20_1025,George,EG,orientation,8,6,14,34-17;11-24;9-9;3-17,4,SimpleHill,3-17,34,8,selected,22-26,20-22;23-27;28-26;18-20;17-31;22-28,22-28,1.31,74,2,1327.45754361
GEMS228,2018_Apr_20_1025,George,EG,orientation,8,6,14,34-17;11-24;9-9;3-17,4,SimpleHill,3-17,34,9,selected,22-28,24-25;24-33;21-21;18-34;21-28;18-28,18-34,1.29,74,0,1332.31812074
GEMS228,2018_Apr_20_1025,George,EG,orientation,8,6,14,34-17;11-24;9-9;3-17,4,SimpleHill,3-17,34,10,selected,18-34,14-29;16-31;21-32;16-35;18-39;14-31,14-31,0.34,66,-8,1336.20497167
GEMS228,2018_Apr_20_1025,George,EG,orientation,8,6,14,34-17;11-24;9-9;3-17,4,SimpleHill,3-17,34,11,selected,14-31,18-30;11-37;15-32;13-26;13-28;17-32,13-28,1.88,62,-4,1341.65973208
GEMS228,2018_Apr_20_1025,George,EG,orientation,8,6,14,34-17;11-24;9-9;3-17,4,SimpleHill,3-17,34,12,selected,13-28,18-24;8-24;19-29;17-32;14-25;12-23,18-24,0.79,66,4,1346.01918024
GEMS228,2018_Apr_20_1025,George,EG,orientation,8,6,14,34-17;11-24;9-9;3-17,4,SimpleHill,3-17,34,13,selected,18-24,22-21;15-27;18-23;12-20;23-29;19-28,23-29,1.57,76,10,1351.1691796
GEMS228,2018_Apr_20_1025,George,EG,orientation,8,6,14,34-17;11-24;9-9;3-17,4,SimpleHill,3-17,34,14,selected,23-29,20-32;24-24;27-30;26-31;29-24;18-27,29-24,0.93,77,1,1355.66061938
GEMS228,2018_Apr_20_1025,George,EG,orientation,8,6,14,34-17;11-24;9-9;3-17,4,SimpleHill,3-17,34,15,selected,29-24,26-28;29-26;31-21;32-30;28-17;29-31,29-31,1.7,83,6,1360.94775167
GEMS228,2018_Apr_20_1025,George,EG,orientation,8,6,14,34-17;11-24;9-9;3-17,4,SimpleHill,3-17,34,16,selected,29-31,32-35;36-30;29-26;27-35;31-29;30-29,32-35,3.48,89,6,1367.99141161
GEMS228,2018_Apr_20_1025,George,EG,orientation,8,6,14,34-17;11-24;9-9;3-17,4,SimpleHill,3-17,34,17,selected,32-35,33-34;31-28;27-32;37-29;33-37;39-38,33-34,5.98,89,0,1377.53722384
GEMS228,2018_Apr_20_1025,George,EG,orientation,8,6,14,34-17;11-24;9-9;3-17,4,SimpleHill,3-17,34,18,selected,33-34,37-28;30-35;34-32;32-29;30-34;31-29,37-28,0.89,86,-3,1381.98084248
GEMS228,2018_Apr_20_1025,George,EG,orientation,8,6,14,34-17;11-24;9-9;3-17,4,SimpleHill,3-17,34,19,selected,37-28,41-22;31-33;37-25;34-21;36-24;31-26,41-22,1.01,82,-4,1386.55569156
GEMS228,2018_Apr_20_1025,George,EG,orientation,8,6,14,34-17;11-24;9-9;3-17,4,SimpleHill,3-17,34,20,selected,41-22,34-25;40-21;46-19;44-22;35-21;37-19,35-21,1.17,78,-4,1391.28592587
GEMS228,2018_Apr_20_1025,George,EG,orientation,8,6,14,34-17;11-24;9-9;3-17,4,SimpleHill,3-17,34,21,selected,35-21,30-16;30-18;29-20;36-17;33-25;28-22,33-25,0.71,81,3,1395.55323549
GEMS228,2018_Apr_20_1025,George,EG,orientation,8,6,14,34-17;11-24;9-9;3-17,4,SimpleHill,3-17,34,22,selected,33-25,28-31;38-20;29-29;40-28;36-25;33-29,36-25,0.61,83,2,1399.72966518
GEMS228,2018_Apr_20_1025,George,EG,orientation,8,6,14,34-17;11-24;9-9;3-17,4,SimpleHill,3-17,34,23,selected,36-25,38-26;32-20;40-19;29-24;36-21;35-28,36-21,0.6,79,-4,1403.90487404
GEMS228,2018_Apr_20_1025,George,EG,orientation,8,6,14,34-17;11-24;9-9;3-17,4,SimpleHill,3-17,34,24,selected,36-21,42-20;41-27;43-22;37-14;38-18;35-15,35-15,1.34,71,-8,1408.82002369
GEMS228,2018_Apr_20_1025,George,EG,orientation,8,6,14,34-17;11-24;9-9;3-17,4,SimpleHill,3-17,34,25,selected,35-15,32-12;35-14;30-21;33-9;35-8;37-8,32-12,0.95,64,-7,1413.33712781
GEMS228,2018_Apr_20_1025,George,EG,orientation,8,6,14,34-17;11-24;9-9;3-17,4,SimpleHill,3-17,34,26,selected,32-12,27-15;35-11;36-12;33-7;27-16;33-15,36-12,2.68,67,3,1419.58893505
GEMS228,2018_Apr_20_1025,George,EG,orientation,8,6,14,34-17;11-24;9-9;3-17,4,SimpleHill,3-17,34,27,selected,36-12,32-12;29-10;40-10;29-13;42-16;41-9,32-12,1.44,64,-3,1424.59898083
GEMS228,2018_Apr_20_1025,George,EG,orientation,8,6,14,34-17;11-24;9-9;3-17,4,SimpleHill,3-17,34,28,selected,32-12,34-12;38-10;27-13;30-14;36-12;38-13,38-10,1.22,65,1,1429.36503025
GEMS228,2018_Apr_20_1025,George,EG,orientation,8,6,14,34-17;11-24;9-9;3-17,4,SimpleHill,3-17,34,29,selected,38-10,37-4;42-8;37-7;38-12;39-11;38-15,39-11,0.83,67,2,1433.75167952
GEMS228,2018_Apr_20_1025,George,EG,orientation,8,6,14,34-17;11-24;9-9;3-17,4,SimpleHill,3-17,34,30,selected,39-11,45-6;34-12;43-6;40-7;34-16;35-16,34-16,1.43,71,4,1438.75458148
GEMS228,2018_Apr_20_1025,George,EG,orientation,8,6,14,34-17;11-24;9-9;3-17,4,SimpleHill,3-17,34,31,selected,34-16,35-10;32-23;37-9;38-15;31-23;37-13,31-23,0.63,78,7,1442.95736692
GEMS228,2018_Apr_20_1025,George,EG,orientation,8,6,14,34-17;11-24;9-9;3-17,4,SimpleHill,3-17,34,32,selected,31-23,29-24;38-23;25-20;24-20;34-28;38-22,34-28,0.62,85,7,1447.15803623
GEMS228,2018_Apr_20_1025,George,EG,orientation,8,6,14,34-17;11-24;9-9;3-17,4,SimpleHill,3-17,34,33,selected,34-28,31-22;30-24;29-32;28-29;38-31;32-31,32-31,0.88,86,1,1451.60366217
GEMS228,2018_Apr_20_1025,George,EG,orientation,8,6,14,34-17;11-24;9-9;3-17,4,SimpleHill,3-17,34,34,selected,32-31,35-27;34-24;40-31;29-28;34-36;38-28,34-36,0.79,90,4,1455.97221472
GEMS228,2018_Apr_20_1025,George,EG,orientation,8,6,14,34-17;11-24;9-9;3-17,4,SimpleHill,3-17,34,35,selected,34-36,35-34;38-38;38-40;34-41;27-34;28-39,38-40,1.09,95,5,1460.63937486
GEMS228,2018_Apr_20_1025,George,EG,orientation,8,6,14,34-17;11-24;9-9;3-17,4,SimpleHill,3-17,34,36,selected,38-40,34-39;39-47;33-37;38-38;31-39;35-45,39-47,0.58,97,2,1464.79769053
GEMS228,2018_Apr_20_1025,George,EG,orientation,8,6,14,34-17;11-24;9-9;3-17,4,SimpleHill,3-17,34,37,selected,39-47,44-47;33-46;46-45;43-43;45-52;35-43,45-52,1.09,99,2,1469.45708396
GEMS228,2018_Apr_20_1025,George,EG,orientation,8,6,14,34-17;11-24;9-9;3-17,4,SimpleHill,3-17,34,38,selected,45-52,44-49;51-47;45-51;44-56;52-55;50-58,50-58,0.94,98,-1,1473.9509846
GEMS228,2018_Apr_20_1025,George,EG,orientation,8,6,14,34-17;11-24;9-9;3-17,4,SimpleHill,3-17,34,39,selected,50-58,50-60;47-65;50-63;44-54;47-54;43-55,44-54,1.05,98,0,1478.56833936
