subj_id,date,computer,experimenter,instructions,sight_radius,n_gabors,start_pos_list_ix,start_pos_list,landscape_ix,landscape_name,starting_pos,starting_score,trial,feedback,pos,stims,selected,rt,score,delta,exp_time
GEMS210,2018_Mar_21_1331,George,SF,spatial_frequency,8,6,5,29-33;8-11;16-17;7-31,0,SpatialFrequencyBias,0-0,0,0,training,0-0,3-6;2-3;6-2;2-7;2-0;2-2,3-6,4.8,22,22,119.009616228
GEMS210,2018_Mar_21_1331,George,SF,spatial_frequency,8,6,5,29-33;8-11;16-17;7-31,0,SpatialFrequencyBias,0-0,0,1,training,3-6,5-3;0-9;3-9;7-3;5-12;11-6,5-12,3.32,42,20,129.376143291
GEMS210,2018_Mar_21_1331,George,SF,spatial_frequency,8,6,5,29-33;8-11;16-17;7-31,0,SpatialFrequencyBias,0-0,0,2,training,5-12,6-6;8-5;1-18;5-4;9-9;7-5,1-18,2.64,59,17,141.151683336
GEMS210,2018_Mar_21_1331,George,SF,spatial_frequency,8,6,5,29-33;8-11;16-17;7-31,0,SpatialFrequencyBias,0-0,0,3,training,1-18,4-24;7-17;3-25;5-19;0-24;1-11,4-24,3.48,72,13,148.877224245
GEMS210,2018_Mar_21_1331,George,SF,spatial_frequency,8,6,5,29-33;8-11;16-17;7-31,0,SpatialFrequencyBias,0-0,0,4,training,4-24,1-24;9-27;0-30;4-17;3-18;7-24,1-24,3.28,72,0,163.944051299
GEMS210,2018_Mar_21_1331,George,SF,spatial_frequency,8,6,5,29-33;8-11;16-17;7-31,0,SpatialFrequencyBias,0-0,0,5,training,1-24,4-23;9-24;3-23;2-18;6-24;4-31,6-24,5.07,72,0,173.896135648
GEMS210,2018_Mar_21_1331,George,SF,spatial_frequency,8,6,5,29-33;8-11;16-17;7-31,0,SpatialFrequencyBias,0-0,0,6,training,6-24,1-27;13-25;4-29;0-27;9-20;1-25,13-25,3.05,75,3,180.617589932
GEMS210,2018_Mar_21_1331,George,SF,spatial_frequency,8,6,5,29-33;8-11;16-17;7-31,0,SpatialFrequencyBias,0-0,0,7,training,13-25,15-21;13-19;15-24;13-18;11-24;19-20,15-24,2.42,72,-3,186.692854632
GEMS210,2018_Mar_21_1331,George,SF,spatial_frequency,8,6,5,29-33;8-11;16-17;7-31,0,SpatialFrequencyBias,0-0,0,8,training,15-24,23-24;9-22;21-26;20-26;10-18;18-29,23-24,3.48,72,0,195.984861851
GEMS210,2018_Mar_21_1331,George,SF,spatial_frequency,8,6,5,29-33;8-11;16-17;7-31,0,SpatialFrequencyBias,0-0,0,9,training,23-24,20-19;22-29;24-25;22-22;21-18;26-31,26-31,1.75,85,13,202.179557337
GEMS210,2018_Mar_21_1331,George,SF,spatial_frequency,8,6,5,29-33;8-11;16-17;7-31,0,SpatialFrequencyBias,0-0,0,10,training,26-31,19-31;19-28;24-24;26-28;20-36;25-33,20-36,2.02,92,7,206.692379295
GEMS210,2018_Mar_21_1331,George,SF,spatial_frequency,8,6,5,29-33;8-11;16-17;7-31,0,SpatialFrequencyBias,0-0,0,11,training,20-36,21-43;21-38;23-34;25-33;17-29;27-34,21-43,3.81,98,6,213.695115128
GEMS210,2018_Mar_21_1331,George,SF,spatial_frequency,8,6,5,29-33;8-11;16-17;7-31,0,SpatialFrequencyBias,0-0,0,12,training,21-43,17-39;19-47;23-45;20-49;19-44;19-40,23-45,4.73,99,1,221.317110817
GEMS210,2018_Mar_21_1331,George,SF,spatial_frequency,8,6,5,29-33;8-11;16-17;7-31,0,SpatialFrequencyBias,0-0,0,13,training,23-45,21-40;29-50;20-52;20-48;22-46;25-48,21-40,1.72,96,-3,228.699048748
GEMS210,2018_Mar_21_1331,George,SF,spatial_frequency,8,6,5,29-33;8-11;16-17;7-31,0,SpatialFrequencyBias,0-0,0,14,training,21-40,15-40;27-40;16-35;24-39;18-39;25-39,15-40,3.84,96,0,238.469038704
GEMS210,2018_Mar_21_1331,George,SF,spatial_frequency,8,6,5,29-33;8-11;16-17;7-31,0,SpatialFrequencyBias,0-0,0,15,training,15-40,18-40;19-35;11-37;13-39;18-34;15-44,13-39,2.67,95,-1,244.511748686
GEMS210,2018_Mar_21_1331,George,SF,spatial_frequency,8,6,5,29-33;8-11;16-17;7-31,0,SpatialFrequencyBias,0-0,0,16,training,13-39,19-36;12-36;7-43;17-41;18-36;13-32,7-43,3.11,98,3,250.887697681
GEMS210,2018_Mar_21_1331,George,SF,spatial_frequency,8,6,5,29-33;8-11;16-17;7-31,0,SpatialFrequencyBias,0-0,0,17,training,7-43,9-46;4-37;1-45;6-38;6-45;13-43,13-43,3.69,98,0,257.023429833
GEMS210,2018_Mar_21_1331,George,SF,spatial_frequency,8,6,5,29-33;8-11;16-17;7-31,0,SpatialFrequencyBias,0-0,0,18,training,13-43,16-38;10-42;18-46;11-41;9-38;17-48,17-48,1.66,99,1,262.001583819
GEMS210,2018_Mar_21_1331,George,SF,spatial_frequency,8,6,5,29-33;8-11;16-17;7-31,0,SpatialFrequencyBias,0-0,0,19,training,17-48,18-52;19-49;21-54;20-55;18-48;17-40,20-55,2.4,99,0,267.085894022
GEMS210,2018_Mar_21_1331,George,SF,spatial_frequency,8,6,5,29-33;8-11;16-17;7-31,0,SpatialFrequencyBias,0-0,0,20,training,20-55,14-59;23-53;20-47;18-49;18-48;19-55,14-59,1.44,96,-3,271.505191905
GEMS210,2018_Mar_21_1331,George,SF,spatial_frequency,8,6,5,29-33;8-11;16-17;7-31,0,SpatialFrequencyBias,0-0,0,21,training,14-59,19-57;11-54;8-55;8-59;18-59;18-60,11-54,2.26,99,3,278.452753022
GEMS210,2018_Mar_21_1331,George,SF,spatial_frequency,8,6,5,29-33;8-11;16-17;7-31,0,SpatialFrequencyBias,0-0,0,22,training,11-54,7-48;15-56;10-60;17-49;7-49;13-61,7-48,3.14,99,0,285.473592024
GEMS210,2018_Mar_21_1331,George,SF,spatial_frequency,8,6,5,29-33;8-11;16-17;7-31,0,SpatialFrequencyBias,0-0,0,23,training,7-48,7-45;4-42;4-48;3-49;7-52;4-50,7-52,2.05,99,0,291.801384978
GEMS210,2018_Mar_21_1331,George,SF,spatial_frequency,8,6,5,29-33;8-11;16-17;7-31,0,SpatialFrequencyBias,0-0,0,24,training,7-52,3-50;1-47;11-53;11-52;4-45;7-58,7-58,1.57,97,-2,297.921233164
GEMS210,2018_Mar_21_1331,George,SF,spatial_frequency,8,6,5,29-33;8-11;16-17;7-31,0,SpatialFrequencyBias,0-0,0,25,training,7-58,14-58;7-62;3-61;1-63;11-53;12-52,7-62,1.87,94,-3,303.070666888
GEMS210,2018_Mar_21_1331,George,SF,spatial_frequency,8,6,5,29-33;8-11;16-17;7-31,0,SpatialFrequencyBias,0-0,0,26,training,7-62,1-66;7-69;11-67;13-62;14-63;2-57,2-57,1.57,98,4,307.661662869
GEMS210,2018_Mar_21_1331,George,SF,spatial_frequency,8,6,5,29-33;8-11;16-17;7-31,0,SpatialFrequencyBias,0-0,0,27,training,2-57,7-63;6-61;6-57;6-51;3-55;3-54,3-55,2.19,99,1,312.899309688
GEMS210,2018_Mar_21_1331,George,SF,spatial_frequency,8,6,5,29-33;8-11;16-17;7-31,0,SpatialFrequencyBias,0-0,0,28,training,3-55,10-52;8-59;6-53;5-50;9-56;3-58,8-59,1.37,96,-3,317.528057734
GEMS210,2018_Mar_21_1331,George,SF,spatial_frequency,8,6,5,29-33;8-11;16-17;7-31,0,SpatialFrequencyBias,0-0,0,29,training,8-59,12-56;2-63;8-62;5-62;7-59;10-61,12-56,1.58,98,2,323.075306953
GEMS210,2018_Mar_21_1331,George,SF,spatial_frequency,8,6,5,29-33;8-11;16-17;7-31,1,SimpleHill,29-33,85,0,selected,29-33,35-30;34-33;30-27;24-28;25-30;35-37,35-37,4.51,92,7,348.705445483
GEMS210,2018_Mar_21_1331,George,SF,spatial_frequency,8,6,5,29-33;8-11;16-17;7-31,1,SimpleHill,29-33,85,1,selected,35-37,39-37;40-43;29-32;37-36;30-32;31-33,40-43,1.96,97,5,354.205259509
GEMS210,2018_Mar_21_1331,George,SF,spatial_frequency,8,6,5,29-33;8-11;16-17;7-31,1,SimpleHill,29-33,85,2,selected,40-43,41-42;43-41;43-42;39-49;44-49;35-37,44-49,2.17,99,2,359.939234223
GEMS210,2018_Mar_21_1331,George,SF,spatial_frequency,8,6,5,29-33;8-11;16-17;7-31,1,SimpleHill,29-33,85,3,selected,44-49,38-48;47-50;42-55;43-47;40-43;45-42,42-55,2.87,98,-1,366.376677526
GEMS210,2018_Mar_21_1331,George,SF,spatial_frequency,8,6,5,29-33;8-11;16-17;7-31,1,SimpleHill,29-33,85,4,selected,42-55,44-58;45-51;47-58;46-51;39-58;39-48,44-58,1.49,98,0,371.435442083
GEMS210,2018_Mar_21_1331,George,SF,spatial_frequency,8,6,5,29-33;8-11;16-17;7-31,1,SimpleHill,29-33,85,5,selected,44-58,41-62;39-54;45-54;47-57;51-56;41-65,41-65,1.79,93,-5,376.811100434
GEMS210,2018_Mar_21_1331,George,SF,spatial_frequency,8,6,5,29-33;8-11;16-17;7-31,1,SimpleHill,29-33,85,6,selected,41-65,34-67;42-65;39-65;37-61;42-58;48-65,37-61,1.47,94,1,381.84264494
GEMS210,2018_Mar_21_1331,George,SF,spatial_frequency,8,6,5,29-33;8-11;16-17;7-31,1,SimpleHill,29-33,85,7,selected,37-61,35-61;44-60;43-64;31-61;32-67;35-59,31-61,1.88,90,-4,387.299088952
GEMS210,2018_Mar_21_1331,George,SF,spatial_frequency,8,6,5,29-33;8-11;16-17;7-31,1,SimpleHill,29-33,85,8,selected,31-61,27-64;26-56;36-56;37-62;34-57;33-68,36-56,4.67,95,5,395.536731289
GEMS210,2018_Mar_21_1331,George,SF,spatial_frequency,8,6,5,29-33;8-11;16-17;7-31,1,SimpleHill,29-33,85,9,selected,36-56,41-50;38-53;37-59;43-58;39-63;40-57,41-50,3.22,98,3,402.31826123
GEMS210,2018_Mar_21_1331,George,SF,spatial_frequency,8,6,5,29-33;8-11;16-17;7-31,1,SimpleHill,29-33,85,10,selected,41-50,35-48;46-45;36-47;39-51;38-46;38-55,38-46,3.63,96,-2,409.507539466
GEMS210,2018_Mar_21_1331,George,SF,spatial_frequency,8,6,5,29-33;8-11;16-17;7-31,1,SimpleHill,29-33,85,11,selected,38-46,42-48;42-50;37-46;43-49;39-43;42-44,43-49,2.36,99,3,415.429332472
GEMS210,2018_Mar_21_1331,George,SF,spatial_frequency,8,6,5,29-33;8-11;16-17;7-31,1,SimpleHill,29-33,85,12,selected,43-49,46-53;44-50;47-51;42-49;47-45;49-49,44-50,2.65,99,0,421.652951544
GEMS210,2018_Mar_21_1331,George,SF,spatial_frequency,8,6,5,29-33;8-11;16-17;7-31,1,SimpleHill,29-33,85,13,selected,44-50,43-57;40-51;39-49;42-48;44-53;47-54,40-51,8.93,97,-2,434.14628049
GEMS210,2018_Mar_21_1331,George,SF,spatial_frequency,8,6,5,29-33;8-11;16-17;7-31,1,SimpleHill,29-33,85,14,selected,40-51,38-56;36-45;46-51;45-54;38-44;34-51,45-54,3.2,99,2,440.897732911
GEMS210,2018_Mar_21_1331,George,SF,spatial_frequency,8,6,5,29-33;8-11;16-17;7-31,1,SimpleHill,29-33,85,15,selected,45-54,39-57;41-55;45-59;44-51;51-58;44-52,41-55,2.14,97,-2,446.620438117
GEMS210,2018_Mar_21_1331,George,SF,spatial_frequency,8,6,5,29-33;8-11;16-17;7-31,1,SimpleHill,29-33,85,16,selected,41-55,40-61;49-55;41-54;39-60;47-59;43-56,39-60,3.52,95,-2,453.701308603
GEMS210,2018_Mar_21_1331,George,SF,spatial_frequency,8,6,5,29-33;8-11;16-17;7-31,1,SimpleHill,29-33,85,17,selected,39-60,43-65;35-54;37-59;41-61;36-63;35-59,37-59,7.57,95,0,464.824737348
GEMS210,2018_Mar_21_1331,George,SF,spatial_frequency,8,6,5,29-33;8-11;16-17;7-31,1,SimpleHill,29-33,85,18,selected,37-59,40-54;37-55;43-59;36-55;33-62;33-61,37-55,1.13,96,1,469.537829207
GEMS210,2018_Mar_21_1331,George,SF,spatial_frequency,8,6,5,29-33;8-11;16-17;7-31,1,SimpleHill,29-33,85,19,selected,37-55,31-54;38-57;34-53;37-57;36-60;33-61,31-54,1.32,92,-4,474.432227391
GEMS210,2018_Mar_21_1331,George,SF,spatial_frequency,8,6,5,29-33;8-11;16-17;7-31,1,SimpleHill,29-33,85,20,selected,31-54,34-58;31-60;24-55;32-59;36-56;29-51,24-55,2.32,85,-7,480.330726284
GEMS210,2018_Mar_21_1331,George,SF,spatial_frequency,8,6,5,29-33;8-11;16-17;7-31,1,SimpleHill,29-33,85,21,selected,24-55,19-52;18-50;27-62;26-61;27-51;21-50,19-52,2.77,80,-5,486.673620576
GEMS210,2018_Mar_21_1331,George,SF,spatial_frequency,8,6,5,29-33;8-11;16-17;7-31,1,SimpleHill,29-33,85,22,selected,19-52,22-48;14-57;21-51;21-45;18-54;16-55,18-54,1.84,79,-1,492.093361147
GEMS210,2018_Mar_21_1331,George,SF,spatial_frequency,8,6,5,29-33;8-11;16-17;7-31,1,SimpleHill,29-33,85,23,selected,18-54,23-57;13-56;20-53;24-53;20-60;16-55,20-53,4.06,81,2,499.724801174
GEMS210,2018_Mar_21_1331,George,SF,spatial_frequency,8,6,5,29-33;8-11;16-17;7-31,1,SimpleHill,29-33,85,24,selected,20-53,12-53;20-45;21-60;16-50;22-52;16-54,12-53,1.91,70,-11,505.200783971
GEMS210,2018_Mar_21_1331,George,SF,spatial_frequency,8,6,5,29-33;8-11;16-17;7-31,1,SimpleHill,29-33,85,25,selected,12-53,14-54;9-60;14-46;8-49;18-56;10-48,9-60,1.88,64,-6,510.637393753
GEMS210,2018_Mar_21_1331,George,SF,spatial_frequency,8,6,5,29-33;8-11;16-17;7-31,1,SimpleHill,29-33,85,26,selected,9-60,4-55;2-59;14-59;14-57;9-68;10-56,4-55,3.3,57,-7,517.509138329
GEMS210,2018_Mar_21_1331,George,SF,spatial_frequency,8,6,5,29-33;8-11;16-17;7-31,1,SimpleHill,29-33,85,27,selected,4-55,7-56;6-52;3-62;5-51;6-56;9-61,7-56,1.16,62,5,522.23582485
GEMS210,2018_Mar_21_1331,George,SF,spatial_frequency,8,6,5,29-33;8-11;16-17;7-31,1,SimpleHill,29-33,85,28,selected,7-56,5-53;2-51;14-57;4-57;12-60;11-62,2-51,3.42,53,-9,529.231999101
GEMS210,2018_Mar_21_1331,George,SF,spatial_frequency,8,6,5,29-33;8-11;16-17;7-31,1,SimpleHill,29-33,85,29,selected,2-51,6-53;6-54;7-50;2-50;2-46;0-46,2-50,1.87,53,0,534.663373125
GEMS210,2018_Mar_21_1331,George,SF,spatial_frequency,8,6,5,29-33;8-11;16-17;7-31,1,SimpleHill,29-33,85,30,selected,2-50,7-50;8-47;9-51;5-44;3-57;0-49,5-44,2.44,58,5,540.669603091
GEMS210,2018_Mar_21_1331,George,SF,spatial_frequency,8,6,5,29-33;8-11;16-17;7-31,1,SimpleHill,29-33,85,31,selected,5-44,11-48;9-39;0-50;7-38;2-45;11-44,11-48,2.85,69,11,547.096627054
GEMS210,2018_Mar_21_1331,George,SF,spatial_frequency,8,6,5,29-33;8-11;16-17;7-31,1,SimpleHill,29-33,85,32,selected,11-48,12-52;9-48;13-50;16-48;11-41;17-44,9-48,4.43,66,-3,555.095764724
GEMS210,2018_Mar_21_1331,George,SF,spatial_frequency,8,6,5,29-33;8-11;16-17;7-31,1,SimpleHill,29-33,85,33,selected,9-48,5-47;12-49;12-53;11-51;15-50;12-51,11-51,2.8,69,3,561.479635376
GEMS210,2018_Mar_21_1331,George,SF,spatial_frequency,8,6,5,29-33;8-11;16-17;7-31,1,SimpleHill,29-33,85,34,selected,11-51,9-49;9-45;11-52;9-47;13-53;5-49,9-47,4.36,66,-3,569.395719527
GEMS210,2018_Mar_21_1331,George,SF,spatial_frequency,8,6,5,29-33;8-11;16-17;7-31,1,SimpleHill,29-33,85,35,selected,9-47,3-50;8-54;14-50;9-44;13-48;4-49,3-50,2.2,55,-11,575.154125964
GEMS210,2018_Mar_21_1331,George,SF,spatial_frequency,8,6,5,29-33;8-11;16-17;7-31,1,SimpleHill,29-33,85,36,selected,3-50,3-58;4-53;0-44;3-52;6-47;10-53,0-44,3.45,49,-6,582.187820213
GEMS210,2018_Mar_21_1331,George,SF,spatial_frequency,8,6,5,29-33;8-11;16-17;7-31,1,SimpleHill,29-33,85,37,selected,0-44,3-47;5-48;2-44;0-39;0-50;8-44,5-48,6.44,59,10,592.192034555
GEMS210,2018_Mar_21_1331,George,SF,spatial_frequency,8,6,5,29-33;8-11;16-17;7-31,1,SimpleHill,29-33,85,38,selected,5-48,1-49;4-42;10-43;0-48;0-49;8-48,0-48,7.56,49,-10,603.32146952
GEMS210,2018_Mar_21_1331,George,SF,spatial_frequency,8,6,5,29-33;8-11;16-17;7-31,1,SimpleHill,29-33,85,39,selected,0-48,3-47;5-42;5-49;2-46;3-45;2-55,2-46,2.93,53,4,609.841986829
GEMS210,2018_Mar_21_1331,George,SF,spatial_frequency,8,6,5,29-33;8-11;16-17;7-31,2,SimpleHill,8-11,34,0,selected,8-11,6-9;7-5;4-11;10-12;4-6;13-11,4-6,2.78,18,-16,627.130457022
GEMS210,2018_Mar_21_1331,George,SF,spatial_frequency,8,6,5,29-33;8-11;16-17;7-31,2,SimpleHill,8-11,34,1,selected,4-6,8-9;10-10;10-7;1-12;9-9;0-11,10-7,4.1,31,13,634.789922454
GEMS210,2018_Mar_21_1331,George,SF,spatial_frequency,8,6,5,29-33;8-11;16-17;7-31,2,SimpleHill,8-11,34,2,selected,10-7,13-10;14-12;16-9;6-6;13-11;6-11,13-10,6.65,40,9,645.012204178
GEMS210,2018_Mar_21_1331,George,SF,spatial_frequency,8,6,5,29-33;8-11;16-17;7-31,2,SimpleHill,8-11,34,3,selected,13-10,13-12;10-8;13-8;7-5;15-10;16-8,13-8,2.38,37,-3,650.953890312
GEMS210,2018_Mar_21_1331,George,SF,spatial_frequency,8,6,5,29-33;8-11;16-17;7-31,2,SimpleHill,8-11,34,4,selected,13-8,11-7;6-8;12-15;11-2;14-9;13-0,12-15,5.19,46,9,659.716661214
GEMS210,2018_Mar_21_1331,George,SF,spatial_frequency,8,6,5,29-33;8-11;16-17;7-31,2,SimpleHill,8-11,34,5,selected,12-15,19-13;13-14;14-13;14-12;12-18;7-18,7-18,2.62,42,-4,665.915088663
GEMS210,2018_Mar_21_1331,George,SF,spatial_frequency,8,6,5,29-33;8-11;16-17;7-31,2,SimpleHill,8-11,34,6,selected,7-18,7-10;5-11;5-23;8-20;11-12;8-17,5-23,5.91,44,2,675.392709054
GEMS210,2018_Mar_21_1331,George,SF,spatial_frequency,8,6,5,29-33;8-11;16-17;7-31,2,SimpleHill,8-11,34,7,selected,5-23,1-27;5-16;12-24;1-21;10-21;8-23,1-27,2.07,41,-3,681.008460373
GEMS210,2018_Mar_21_1331,George,SF,spatial_frequency,8,6,5,29-33;8-11;16-17;7-31,2,SimpleHill,8-11,34,8,selected,1-27,7-24;3-31;8-24;0-20;1-29;1-26,3-31,2.74,48,7,687.308069475
GEMS210,2018_Mar_21_1331,George,SF,spatial_frequency,8,6,5,29-33;8-11;16-17;7-31,2,SimpleHill,8-11,34,9,selected,3-31,7-30;1-38;8-28;7-29;2-38;5-38,7-29,2.19,54,6,693.04332296
GEMS210,2018_Mar_21_1331,George,SF,spatial_frequency,8,6,5,29-33;8-11;16-17;7-31,2,SimpleHill,8-11,34,10,selected,7-29,6-28;5-29;14-30;2-28;7-24;4-28,7-24,4.08,49,-5,700.677583005
GEMS210,2018_Mar_21_1331,George,SF,spatial_frequency,8,6,5,29-33;8-11;16-17;7-31,2,SimpleHill,8-11,34,11,selected,7-24,1-25;6-28;1-19;7-27;3-19;9-28,1-19,1.67,32,-17,705.909775442
GEMS210,2018_Mar_21_1331,George,SF,spatial_frequency,8,6,5,29-33;8-11;16-17;7-31,2,SimpleHill,8-11,34,12,selected,1-19,5-25;5-17;5-24;7-16;4-19;7-18,5-25,2.11,47,15,711.601433568
GEMS210,2018_Mar_21_1331,George,SF,spatial_frequency,8,6,5,29-33;8-11;16-17;7-31,2,SimpleHill,8-11,34,13,selected,5-25,3-31;2-27;6-20;10-25;1-23;4-25,4-25,1.19,45,-2,717.00355175
GEMS210,2018_Mar_21_1331,George,SF,spatial_frequency,8,6,5,29-33;8-11;16-17;7-31,2,SimpleHill,8-11,34,14,selected,4-25,4-24;6-18;3-21;1-22;4-33;8-19,3-21,4.19,39,-6,724.931029284
GEMS210,2018_Mar_21_1331,George,SF,spatial_frequency,8,6,5,29-33;8-11;16-17;7-31,2,SimpleHill,8-11,34,15,selected,3-21,7-20;7-22;4-20;6-25;5-27;5-18,4-20,3.08,39,0,732.312943529
GEMS210,2018_Mar_21_1331,George,SF,spatial_frequency,8,6,5,29-33;8-11;16-17;7-31,2,SimpleHill,8-11,34,16,selected,4-20,4-14;3-14;4-16;2-14;0-17;0-23,4-14,2.95,31,-8,738.825936095
GEMS210,2018_Mar_21_1331,George,SF,spatial_frequency,8,6,5,29-33;8-11;16-17;7-31,2,SimpleHill,8-11,34,17,selected,4-14,2-7;3-12;6-14;10-10;7-18;6-7,7-18,2.81,42,11,745.205177245
GEMS210,2018_Mar_21_1331,George,SF,spatial_frequency,8,6,5,29-33;8-11;16-17;7-31,2,SimpleHill,8-11,34,18,selected,7-18,4-11;2-20;5-23;8-22;8-23;3-17,5-23,2.74,44,2,751.5010339
GEMS210,2018_Mar_21_1331,George,SF,spatial_frequency,8,6,5,29-33;8-11;16-17;7-31,2,SimpleHill,8-11,34,19,selected,5-23,13-23;10-21;12-21;4-17;0-29;4-20,13-23,4.71,58,14,759.76190153
GEMS210,2018_Mar_21_1331,George,SF,spatial_frequency,8,6,5,29-33;8-11;16-17;7-31,2,SimpleHill,8-11,34,20,selected,13-23,11-25;14-26;19-24;16-23;19-23;17-18,14-26,14.91,62,4,778.257204169
GEMS210,2018_Mar_21_1331,George,SF,spatial_frequency,8,6,5,29-33;8-11;16-17;7-31,2,SimpleHill,8-11,34,21,selected,14-26,11-26;10-30;18-31;19-22;10-29;13-22,19-22,3.34,65,3,785.170071387
GEMS210,2018_Mar_21_1331,George,SF,spatial_frequency,8,6,5,29-33;8-11;16-17;7-31,2,SimpleHill,8-11,34,22,selected,19-22,22-25;25-18;25-25;13-20;23-24;23-23,23-23,0.12,70,5,792.18274194
GEMS210,2018_Mar_21_1331,George,SF,spatial_frequency,8,6,5,29-33;8-11;16-17;7-31,2,SimpleHill,8-11,34,23,selected,23-23,24-28;28-23;16-22;27-26;30-26;21-20,24-28,16.86,76,6,812.610413771
GEMS210,2018_Mar_21_1331,George,SF,spatial_frequency,8,6,5,29-33;8-11;16-17;7-31,2,SimpleHill,8-11,34,24,selected,24-28,29-23;26-21;19-34;20-31;18-26;24-36,18-26,2.89,68,-8,819.07881645
GEMS210,2018_Mar_21_1331,George,SF,spatial_frequency,8,6,5,29-33;8-11;16-17;7-31,2,SimpleHill,8-11,34,25,selected,18-26,16-30;13-29;21-19;15-29;20-33;18-34,21-19,1.21,63,-5,823.853163189
GEMS210,2018_Mar_21_1331,George,SF,spatial_frequency,8,6,5,29-33;8-11;16-17;7-31,2,SimpleHill,8-11,34,26,selected,21-19,25-13;20-18;14-19;23-23;23-24;14-20,14-20,0.67,56,-7,828.08792149
GEMS210,2018_Mar_21_1331,George,SF,spatial_frequency,8,6,5,29-33;8-11;16-17;7-31,2,SimpleHill,8-11,34,27,selected,14-20,20-16;8-17;16-19;20-19;14-22;10-16,8-17,0.16,42,-14,831.81391469
GEMS210,2018_Mar_21_1331,George,SF,spatial_frequency,8,6,5,29-33;8-11;16-17;7-31,2,SimpleHill,8-11,34,28,selected,8-17,6-16;11-19;3-14;9-21;9-10;9-23,9-10,0.18,34,-8,835.566277455
GEMS210,2018_Mar_21_1331,George,SF,spatial_frequency,8,6,5,29-33;8-11;16-17;7-31,2,SimpleHill,8-11,34,29,selected,9-10,10-10;15-10;8-10;9-8;12-5;16-8,10-10,0.0,36,2,839.140157434
GEMS210,2018_Mar_21_1331,George,SF,spatial_frequency,8,6,5,29-33;8-11;16-17;7-31,2,SimpleHill,8-11,34,30,selected,10-10,11-8;15-6;11-10;10-17;8-10;10-13,10-17,0.38,46,10,843.051932816
GEMS210,2018_Mar_21_1331,George,SF,spatial_frequency,8,6,5,29-33;8-11;16-17;7-31,2,SimpleHill,8-11,34,31,selected,10-17,8-15;6-20;13-19;13-15;10-21;10-23,10-23,0.14,53,7,846.771666602
GEMS210,2018_Mar_21_1331,George,SF,spatial_frequency,8,6,5,29-33;8-11;16-17;7-31,2,SimpleHill,8-11,34,32,selected,10-23,8-21;10-15;12-22;11-18;14-22;6-26,12-22,0.39,55,2,850.724175393
GEMS210,2018_Mar_21_1331,George,SF,spatial_frequency,8,6,5,29-33;8-11;16-17;7-31,2,SimpleHill,8-11,34,33,selected,12-22,14-29;9-20;10-22;8-18;8-20;14-16,14-29,0.11,65,10,854.387814195
GEMS210,2018_Mar_21_1331,George,SF,spatial_frequency,8,6,5,29-33;8-11;16-17;7-31,2,SimpleHill,8-11,34,34,selected,14-29,10-26;16-35;15-30;14-31;7-31;9-24,16-35,0.13,72,7,858.094678329
GEMS210,2018_Mar_21_1331,George,SF,spatial_frequency,8,6,5,29-33;8-11;16-17;7-31,2,SimpleHill,8-11,34,35,selected,16-35,13-39;18-40;14-42;18-32;17-30;12-38,12-38,0.25,68,-4,861.916280048
GEMS210,2018_Mar_21_1331,George,SF,spatial_frequency,8,6,5,29-33;8-11;16-17;7-31,2,SimpleHill,8-11,34,36,selected,12-38,11-34;11-43;5-39;7-39;5-38;6-40,5-39,0.17,57,-11,865.661522349
GEMS210,2018_Mar_21_1331,George,SF,spatial_frequency,8,6,5,29-33;8-11;16-17;7-31,2,SimpleHill,8-11,34,37,selected,5-39,5-41;5-32;9-42;1-43;6-46;10-35,5-41,0.24,57,0,869.471827032
GEMS210,2018_Mar_21_1331,George,SF,spatial_frequency,8,6,5,29-33;8-11;16-17;7-31,2,SimpleHill,8-11,34,38,selected,5-41,7-35;9-36;5-41;4-35;2-45;10-41,2-45,0.22,53,-4,873.256869992
GEMS210,2018_Mar_21_1331,George,SF,spatial_frequency,8,6,5,29-33;8-11;16-17;7-31,2,SimpleHill,8-11,34,39,selected,2-45,6-50;0-50;4-51;5-38;8-43;5-40,6-50,0.18,61,8,877.0080705
GEMS210,2018_Mar_21_1331,George,SF,spatial_frequency,8,6,5,29-33;8-11;16-17;7-31,3,SimpleHill,16-17,55,0,selected,16-17,9-16;14-13;19-13;19-23;16-18;16-13,16-18,0.27,56,1,886.762384551
GEMS210,2018_Mar_21_1331,George,SF,spatial_frequency,8,6,5,29-33;8-11;16-17;7-31,3,SimpleHill,16-17,55,1,selected,16-18,16-24;19-22;20-18;16-14;21-19;22-18,20-18,0.95,61,5,891.27697374
GEMS210,2018_Mar_21_1331,George,SF,spatial_frequency,8,6,5,29-33;8-11;16-17;7-31,3,SimpleHill,16-17,55,2,selected,20-18,21-16;19-23;24-17;13-18;16-16;26-23,13-18,0.18,52,-9,895.048251109
GEMS210,2018_Mar_21_1331,George,SF,spatial_frequency,8,6,5,29-33;8-11;16-17;7-31,3,SimpleHill,16-17,55,3,selected,13-18,16-23;12-15;13-26;18-17;10-12;12-11,16-23,0.41,62,10,899.024635622
GEMS210,2018_Mar_21_1331,George,SF,spatial_frequency,8,6,5,29-33;8-11;16-17;7-31,3,SimpleHill,16-17,55,4,selected,16-23,16-30;21-17;18-24;18-23;15-20;12-29,18-24,0.19,66,4,902.774533033
GEMS210,2018_Mar_21_1331,George,SF,spatial_frequency,8,6,5,29-33;8-11;16-17;7-31,3,SimpleHill,16-17,55,5,selected,18-24,18-22;17-29;13-30;23-28;19-22;16-24,19-22,0.18,65,-1,906.536931347
GEMS210,2018_Mar_21_1331,George,SF,spatial_frequency,8,6,5,29-33;8-11;16-17;7-31,3,SimpleHill,16-17,55,6,selected,19-22,26-19;24-21;21-16;19-19;19-22;20-17,20-17,0.09,60,-5,910.196893243
GEMS210,2018_Mar_21_1331,George,SF,spatial_frequency,8,6,5,29-33;8-11;16-17;7-31,3,SimpleHill,16-17,55,7,selected,20-17,17-16;24-14;27-18;15-14;17-18;24-18,17-18,0.15,57,-3,913.915832558
GEMS210,2018_Mar_21_1331,George,SF,spatial_frequency,8,6,5,29-33;8-11;16-17;7-31,3,SimpleHill,16-17,55,8,selected,17-18,21-16;17-15;12-14;25-18;12-13;12-17,17-15,0.18,53,-4,917.65628371
GEMS210,2018_Mar_21_1331,George,SF,spatial_frequency,8,6,5,29-33;8-11;16-17;7-31,3,SimpleHill,16-17,55,9,selected,17-15,12-20;20-15;16-10;18-14;14-15;11-20,11-20,0.34,51,-2,921.579197681
GEMS210,2018_Mar_21_1331,George,SF,spatial_frequency,8,6,5,29-33;8-11;16-17;7-31,3,SimpleHill,16-17,55,10,selected,11-20,4-21;11-28;9-24;11-13;15-23;4-19,11-28,0.14,59,8,925.334790502
GEMS210,2018_Mar_21_1331,George,SF,spatial_frequency,8,6,5,29-33;8-11;16-17;7-31,3,SimpleHill,16-17,55,11,selected,11-28,6-32;13-28;15-32;16-30;13-26;11-31,11-31,0.18,62,3,929.083061841
GEMS210,2018_Mar_21_1331,George,SF,spatial_frequency,8,6,5,29-33;8-11;16-17;7-31,3,SimpleHill,16-17,55,12,selected,11-31,4-34;6-33;10-31;17-33;12-35;14-31,10-31,0.2,60,-2,932.843156128
GEMS210,2018_Mar_21_1331,George,SF,spatial_frequency,8,6,5,29-33;8-11;16-17;7-31,3,SimpleHill,16-17,55,13,selected,10-31,9-29;9-31;5-26;7-27;10-39;7-33,10-39,0.14,65,5,936.56174078
GEMS210,2018_Mar_21_1331,George,SF,spatial_frequency,8,6,5,29-33;8-11;16-17;7-31,3,SimpleHill,16-17,55,14,selected,10-39,17-37;16-39;7-39;16-43;6-40;3-38,3-38,0.15,52,-13,940.270849725
GEMS210,2018_Mar_21_1331,George,SF,spatial_frequency,8,6,5,29-33;8-11;16-17;7-31,3,SimpleHill,16-17,55,15,selected,3-38,9-42;1-32;4-45;2-44;4-40;1-43,9-42,0.2,65,13,944.026494081
GEMS210,2018_Mar_21_1331,George,SF,spatial_frequency,8,6,5,29-33;8-11;16-17;7-31,3,SimpleHill,16-17,55,16,selected,9-42,9-43;6-38;3-44;5-38;3-37;14-43,14-43,0.2,73,8,947.891147641
GEMS210,2018_Mar_21_1331,George,SF,spatial_frequency,8,6,5,29-33;8-11;16-17;7-31,3,SimpleHill,16-17,55,17,selected,14-43,20-42;10-42;20-38;19-42;8-42;12-37,19-42,0.18,79,6,951.647943372
GEMS210,2018_Mar_21_1331,George,SF,spatial_frequency,8,6,5,29-33;8-11;16-17;7-31,3,SimpleHill,16-17,55,18,selected,19-42,19-45;18-35;19-36;19-34;20-41;14-39,19-34,0.1,75,-4,955.310823234
GEMS210,2018_Mar_21_1331,George,SF,spatial_frequency,8,6,5,29-33;8-11;16-17;7-31,3,SimpleHill,16-17,55,19,selected,19-34,16-32;18-29;13-38;24-29;26-36;21-31,21-31,0.18,75,0,959.068055251
GEMS210,2018_Mar_21_1331,George,SF,spatial_frequency,8,6,5,29-33;8-11;16-17;7-31,3,SimpleHill,16-17,55,20,selected,21-31,17-26;27-33;21-29;20-35;16-36;23-29,23-29,0.19,76,1,962.824351316
GEMS210,2018_Mar_21_1331,George,SF,spatial_frequency,8,6,5,29-33;8-11;16-17;7-31,3,SimpleHill,16-17,55,21,selected,23-29,24-23;16-30;27-33;17-29;26-24;18-28,26-24,0.09,74,-2,966.460741578
GEMS210,2018_Mar_21_1331,George,SF,spatial_frequency,8,6,5,29-33;8-11;16-17;7-31,3,SimpleHill,16-17,55,22,selected,26-24,20-19;28-26;20-26;33-27;19-22;25-17,20-19,0.18,62,-12,970.199583623
GEMS210,2018_Mar_21_1331,George,SF,spatial_frequency,8,6,5,29-33;8-11;16-17;7-31,3,SimpleHill,16-17,55,23,selected,20-19,14-19;13-16;26-23;20-25;20-22;23-21,14-19,0.54,54,-8,974.303147729
GEMS210,2018_Mar_21_1331,George,SF,spatial_frequency,8,6,5,29-33;8-11;16-17;7-31,3,SimpleHill,16-17,55,24,selected,14-19,16-16;13-19;19-15;18-16;17-12;17-24,19-15,1.27,56,2,979.147423541
GEMS210,2018_Mar_21_1331,George,SF,spatial_frequency,8,6,5,29-33;8-11;16-17;7-31,3,SimpleHill,16-17,55,25,selected,19-15,21-12;22-22;19-10;23-18;21-16;13-20,21-16,0.2,60,4,982.915795107
GEMS210,2018_Mar_21_1331,George,SF,spatial_frequency,8,6,5,29-33;8-11;16-17;7-31,3,SimpleHill,16-17,55,26,selected,21-16,24-18;26-16;19-15;18-23;17-19;23-21,19-15,0.46,56,-4,986.956859813
GEMS210,2018_Mar_21_1331,George,SF,spatial_frequency,8,6,5,29-33;8-11;16-17;7-31,3,SimpleHill,16-17,55,27,selected,19-15,16-19;18-12;24-11;12-16;16-15;20-14,16-19,0.17,57,1,990.685909899
GEMS210,2018_Mar_21_1331,George,SF,spatial_frequency,8,6,5,29-33;8-11;16-17;7-31,3,SimpleHill,16-17,55,28,selected,16-19,9-20;11-22;21-15;16-12;12-19;22-19,22-19,0.21,65,8,994.457966054
GEMS210,2018_Mar_21_1331,George,SF,spatial_frequency,8,6,5,29-33;8-11;16-17;7-31,3,SimpleHill,16-17,55,29,selected,22-19,26-23;15-19;23-15;17-23;22-17;20-24,17-23,0.36,63,-2,998.39821209
GEMS210,2018_Mar_21_1331,George,SF,spatial_frequency,8,6,5,29-33;8-11;16-17;7-31,3,SimpleHill,16-17,55,30,selected,17-23,24-25;18-18;10-20;14-21;11-28;20-28,20-28,0.36,72,9,1002.32199863
GEMS210,2018_Mar_21_1331,George,SF,spatial_frequency,8,6,5,29-33;8-11;16-17;7-31,3,SimpleHill,16-17,55,31,selected,20-28,17-24;23-21;21-32;12-28;24-27;16-23,21-32,1.28,76,4,1007.18149582
GEMS210,2018_Mar_21_1331,George,SF,spatial_frequency,8,6,5,29-33;8-11;16-17;7-31,3,SimpleHill,16-17,55,32,selected,21-32,18-31;28-30;20-39;25-30;25-33;17-35,17-35,1.65,73,-3,1012.39407585
GEMS210,2018_Mar_21_1331,George,SF,spatial_frequency,8,6,5,29-33;8-11;16-17;7-31,3,SimpleHill,16-17,55,33,selected,17-35,14-28;15-41;17-28;14-37;17-42;18-32,17-28,0.21,68,-5,1016.14443195
GEMS210,2018_Mar_21_1331,George,SF,spatial_frequency,8,6,5,29-33;8-11;16-17;7-31,3,SimpleHill,16-17,55,34,selected,17-28,24-31;20-29;16-34;19-32;12-25;22-32,20-29,0.62,73,5,1020.32167758
GEMS210,2018_Mar_21_1331,George,SF,spatial_frequency,8,6,5,29-33;8-11;16-17;7-31,3,SimpleHill,16-17,55,35,selected,20-29,23-22;24-29;18-29;25-33;21-25;25-34,18-29,0.21,70,-3,1024.1070003
GEMS210,2018_Mar_21_1331,George,SF,spatial_frequency,8,6,5,29-33;8-11;16-17;7-31,3,SimpleHill,16-17,55,36,selected,18-29,23-32;13-26;13-24;15-33;17-27;25-27,25-27,0.44,76,6,1028.1103728
GEMS210,2018_Mar_21_1331,George,SF,spatial_frequency,8,6,5,29-33;8-11;16-17;7-31,3,SimpleHill,16-17,55,37,selected,25-27,23-33;22-32;29-28;26-29;26-21;30-30,30-30,0.16,84,8,1031.85400247
GEMS210,2018_Mar_21_1331,George,SF,spatial_frequency,8,6,5,29-33;8-11;16-17;7-31,3,SimpleHill,16-17,55,38,selected,30-30,28-27;30-34;26-33;32-24;30-28;33-23,32-24,0.22,80,-4,1035.64022657
GEMS210,2018_Mar_21_1331,George,SF,spatial_frequency,8,6,5,29-33;8-11;16-17;7-31,3,SimpleHill,16-17,55,39,selected,32-24,34-28;26-28;40-24;38-21;35-23;29-19,26-28,0.85,78,-2,1040.0333223
GEMS210,2018_Mar_21_1331,George,SF,spatial_frequency,8,6,5,29-33;8-11;16-17;7-31,4,SimpleHill,7-31,55,0,selected,7-31,13-35;2-36;5-27;5-37;7-32;3-26,3-26,5.65,44,-11,1055.0180097
GEMS210,2018_Mar_21_1331,George,SF,spatial_frequency,8,6,5,29-33;8-11;16-17;7-31,4,SimpleHill,7-31,55,1,selected,3-26,6-21;6-30;8-31;3-34;10-27;3-29,3-34,2.12,50,6,1060.71022799
GEMS210,2018_Mar_21_1331,George,SF,spatial_frequency,8,6,5,29-33;8-11;16-17;7-31,4,SimpleHill,7-31,55,2,selected,3-34,11-34;0-32;2-27;8-29;6-29;5-33,8-29,0.2,55,5,1064.48868376
GEMS210,2018_Mar_21_1331,George,SF,spatial_frequency,8,6,5,29-33;8-11;16-17;7-31,4,SimpleHill,7-31,55,3,selected,8-29,5-22;7-36;7-30;9-31;12-31;3-33,12-31,0.17,63,8,1068.21437031
GEMS210,2018_Mar_21_1331,George,SF,spatial_frequency,8,6,5,29-33;8-11;16-17;7-31,4,SimpleHill,7-31,55,4,selected,12-31,16-33;15-28;12-25;6-33;10-24;16-37,12-25,0.12,58,-5,1071.9254219
GEMS210,2018_Mar_21_1331,George,SF,spatial_frequency,8,6,5,29-33;8-11;16-17;7-31,4,SimpleHill,7-31,55,5,selected,12-25,16-25;16-27;11-31;14-31;10-18;8-20,16-27,0.24,66,8,1075.72389403
GEMS210,2018_Mar_21_1331,George,SF,spatial_frequency,8,6,5,29-33;8-11;16-17;7-31,4,SimpleHill,7-31,55,6,selected,16-27,17-25;23-25;11-22;12-21;18-22;20-32,20-32,3.47,75,9,1082.75896628
GEMS210,2018_Mar_21_1331,George,SF,spatial_frequency,8,6,5,29-33;8-11;16-17;7-31,4,SimpleHill,7-31,55,7,selected,20-32,20-26;15-35;22-35;20-24;14-37;26-35,22-35,0.39,79,4,1086.72461456
GEMS210,2018_Mar_21_1331,George,SF,spatial_frequency,8,6,5,29-33;8-11;16-17;7-31,4,SimpleHill,7-31,55,8,selected,22-35,19-34;21-30;25-40;27-35;22-27;24-33,22-27,0.34,73,-6,1090.60722405
GEMS210,2018_Mar_21_1331,George,SF,spatial_frequency,8,6,5,29-33;8-11;16-17;7-31,4,SimpleHill,7-31,55,9,selected,22-27,21-28;25-30;22-35;27-24;17-27;23-21,17-27,0.45,67,-6,1094.62082031
GEMS210,2018_Mar_21_1331,George,SF,spatial_frequency,8,6,5,29-33;8-11;16-17;7-31,4,SimpleHill,7-31,55,10,selected,17-27,16-21;20-29;11-32;17-34;18-32;20-21,18-32,0.22,73,6,1098.41623267
GEMS210,2018_Mar_21_1331,George,SF,spatial_frequency,8,6,5,29-33;8-11;16-17;7-31,4,SimpleHill,7-31,55,11,selected,18-32,18-38;24-30;19-30;13-27;23-34;13-32,23-34,0.09,80,7,1102.09561268
GEMS210,2018_Mar_21_1331,George,SF,spatial_frequency,8,6,5,29-33;8-11;16-17;7-31,4,SimpleHill,7-31,55,12,selected,23-34,30-37;21-41;27-37;25-29;17-38;20-27,25-29,0.34,78,-2,1106.00914889
GEMS210,2018_Mar_21_1331,George,SF,spatial_frequency,8,6,5,29-33;8-11;16-17;7-31,4,SimpleHill,7-31,55,13,selected,25-29,26-32;26-33;18-31;23-36;30-26;24-26,24-26,0.19,74,-4,1109.75702652
GEMS210,2018_Mar_21_1331,George,SF,spatial_frequency,8,6,5,29-33;8-11;16-17;7-31,4,SimpleHill,7-31,55,14,selected,24-26,19-22;18-24;19-30;29-32;26-22;27-24,29-32,0.46,84,10,1113.78687101
GEMS210,2018_Mar_21_1331,George,SF,spatial_frequency,8,6,5,29-33;8-11;16-17;7-31,4,SimpleHill,7-31,55,15,selected,29-32,24-28;27-30;30-31;26-25;27-38;28-33,28-33,1.42,84,0,1118.79054279
GEMS210,2018_Mar_21_1331,George,SF,spatial_frequency,8,6,5,29-33;8-11;16-17;7-31,4,SimpleHill,7-31,55,16,selected,28-33,23-36;28-27;30-31;34-36;28-29;26-27,26-27,0.18,77,-7,1122.53900843
GEMS210,2018_Mar_21_1331,George,SF,spatial_frequency,8,6,5,29-33;8-11;16-17;7-31,4,SimpleHill,7-31,55,17,selected,26-27,27-22;31-25;32-23;22-33;21-33;27-21,27-22,0.29,73,-4,1126.39753829
GEMS210,2018_Mar_21_1331,George,SF,spatial_frequency,8,6,5,29-33;8-11;16-17;7-31,4,SimpleHill,7-31,55,18,selected,27-22,26-15;22-22;30-26;25-15;25-24;28-27,25-24,1.05,73,0,1131.00969113
GEMS210,2018_Mar_21_1331,George,SF,spatial_frequency,8,6,5,29-33;8-11;16-17;7-31,4,SimpleHill,7-31,55,19,selected,25-24,18-23;23-30;30-25;25-18;22-18;21-21,22-18,0.76,63,-10,1135.33385135
GEMS210,2018_Mar_21_1331,George,SF,spatial_frequency,8,6,5,29-33;8-11;16-17;7-31,4,SimpleHill,7-31,55,20,selected,22-18,27-20;25-15;28-19;16-21;26-15;23-22,28-19,1.52,71,8,1140.41662671
GEMS210,2018_Mar_21_1331,George,SF,spatial_frequency,8,6,5,29-33;8-11;16-17;7-31,4,SimpleHill,7-31,55,21,selected,28-19,32-19;34-23;29-19;23-21;35-20;29-18,32-19,1.09,74,3,1145.05909649
GEMS210,2018_Mar_21_1331,George,SF,spatial_frequency,8,6,5,29-33;8-11;16-17;7-31,4,SimpleHill,7-31,55,22,selected,32-19,35-13;32-19;32-20;26-22;30-19;29-15,26-22,1.0,72,-2,1149.63103383
GEMS210,2018_Mar_21_1331,George,SF,spatial_frequency,8,6,5,29-33;8-11;16-17;7-31,4,SimpleHill,7-31,55,23,selected,26-22,33-22;20-21;29-15;29-22;22-24;28-22,28-22,1.17,74,2,1154.36331077
GEMS210,2018_Mar_21_1331,George,SF,spatial_frequency,8,6,5,29-33;8-11;16-17;7-31,4,SimpleHill,7-31,55,24,selected,28-22,21-22;35-22;31-17;28-25;30-25;34-22,28-25,1.12,77,3,1159.04401308
GEMS210,2018_Mar_21_1331,George,SF,spatial_frequency,8,6,5,29-33;8-11;16-17;7-31,4,SimpleHill,7-31,55,25,selected,28-25,25-22;33-30;35-25;28-17;31-24;34-24,25-22,0.97,71,-6,1163.57966758
GEMS210,2018_Mar_21_1331,George,SF,spatial_frequency,8,6,5,29-33;8-11;16-17;7-31,4,SimpleHill,7-31,55,26,selected,25-22,25-29;20-17;21-16;19-25;27-28;26-18,25-29,1.77,78,7,1168.9210267
GEMS210,2018_Mar_21_1331,George,SF,spatial_frequency,8,6,5,29-33;8-11;16-17;7-31,4,SimpleHill,7-31,55,27,selected,25-29,26-22;27-29;26-35;25-27;28-31;24-31,25-27,1.06,76,-2,1173.54711126
GEMS210,2018_Mar_21_1331,George,SF,spatial_frequency,8,6,5,29-33;8-11;16-17;7-31,4,SimpleHill,7-31,55,28,selected,25-27,20-27;27-22;32-25;29-30;19-29;24-20,24-20,0.11,68,-8,1177.28287849
GEMS210,2018_Mar_21_1331,George,SF,spatial_frequency,8,6,5,29-33;8-11;16-17;7-31,4,SimpleHill,7-31,55,29,selected,24-20,27-20;23-20;28-17;23-19;27-17;25-20,23-20,0.1,67,-1,1180.95955147
GEMS210,2018_Mar_21_1331,George,SF,spatial_frequency,8,6,5,29-33;8-11;16-17;7-31,4,SimpleHill,7-31,55,30,selected,23-20,23-25;27-19;19-21;18-20;20-17;21-26,19-21,0.05,63,-4,1184.57908501
GEMS210,2018_Mar_21_1331,George,SF,spatial_frequency,8,6,5,29-33;8-11;16-17;7-31,4,SimpleHill,7-31,55,31,selected,19-21,19-19;16-18;18-28;18-27;23-26;20-28,19-19,0.14,61,-2,1188.28160228
GEMS210,2018_Mar_21_1331,George,SF,spatial_frequency,8,6,5,29-33;8-11;16-17;7-31,4,SimpleHill,7-31,55,32,selected,19-19,16-13;26-18;19-11;21-14;17-13;19-21,19-11,0.14,50,-11,1191.98238401
GEMS210,2018_Mar_21_1331,George,SF,spatial_frequency,8,6,5,29-33;8-11;16-17;7-31,4,SimpleHill,7-31,55,33,selected,19-11,13-10;19-7;21-11;15-5;19-4;15-7,19-7,0.48,43,-7,1196.03245421
GEMS210,2018_Mar_21_1331,George,SF,spatial_frequency,8,6,5,29-33;8-11;16-17;7-31,4,SimpleHill,7-31,55,34,selected,19-7,20-11;17-5;25-10;23-4;21-6;15-5,20-11,0.19,51,8,1199.79603271
GEMS210,2018_Mar_21_1331,George,SF,spatial_frequency,8,6,5,29-33;8-11;16-17;7-31,4,SimpleHill,7-31,55,35,selected,20-11,25-7;17-13;21-5;25-10;23-5;14-16,23-5,0.77,44,-7,1204.12881847
GEMS210,2018_Mar_21_1331,George,SF,spatial_frequency,8,6,5,29-33;8-11;16-17;7-31,4,SimpleHill,7-31,55,36,selected,23-5,23-12;18-9;24-11;24-6;21-11;26-8,26-8,0.14,53,9,1207.83158125
GEMS210,2018_Mar_21_1331,George,SF,spatial_frequency,8,6,5,29-33;8-11;16-17;7-31,4,SimpleHill,7-31,55,37,selected,26-8,30-10;25-13;28-12;29-3;26-16;29-14,28-12,0.12,61,8,1211.52736665
GEMS210,2018_Mar_21_1331,George,SF,spatial_frequency,8,6,5,29-33;8-11;16-17;7-31,4,SimpleHill,7-31,55,38,selected,28-12,24-11;29-6;30-17;29-9;32-14;25-19,24-11,0.01,56,-5,1215.09353688
GEMS210,2018_Mar_21_1331,George,SF,spatial_frequency,8,6,5,29-33;8-11;16-17;7-31,4,SimpleHill,7-31,55,39,selected,24-11,28-14;27-11;19-6;23-18;30-16;22-15,27-11,0.16,59,3,1218.80966482
