subj_id,date,computer,experimenter,version,generation,inherit_from,sight_radius,n_gabors,block_ix,landscape_name,starting_pos,starting_score,trial,pos,stims,selected,rt,score,delta,exp_time,landscape_ix
GEMS257,2018_Nov_01_1220,George,AG,1.3,2,GEMS232,10,6,1,SimpleHill,0-0,1,0,0-0,6-3;2-7;1-5;0-0;7-1;3-7,3-7,8.94,19,18,90.2662441235,1
GEMS257,2018_Nov_01_1220,George,AG,1.3,2,GEMS232,10,6,1,SimpleHill,0-0,1,1,3-7,8-6;2-9;1-6;4-11;9-11;6-7,6-7,3.8,25,6,98.21021356879999,1
GEMS257,2018_Nov_01_1220,George,AG,1.3,2,GEMS232,10,6,1,SimpleHill,0-0,1,2,6-7,12-5;12-14;1-1;11-9;3-5;8-10,11-9,0.9,36,11,103.188848369,1
GEMS257,2018_Nov_01_1220,George,AG,1.3,2,GEMS232,10,6,1,SimpleHill,0-0,1,3,11-9,8-7;17-14;6-9;16-5;5-2;5-6,16-5,0.76,37,1,108.02308569600001,1
GEMS257,2018_Nov_01_1220,George,AG,1.3,2,GEMS232,10,6,1,SimpleHill,0-0,1,4,16-5,12-0;18-5;8-1;15-4;15-7;22-5,8-1,0.98,17,-20,113.087144806,1
GEMS257,2018_Nov_01_1220,George,AG,1.3,2,GEMS232,10,6,1,SimpleHill,0-0,1,5,8-1,12-5;1-2;5-4;0-5;12-4;13-0,0-5,3.85,10,-7,121.022989028,1
GEMS257,2018_Nov_01_1220,George,AG,1.3,2,GEMS232,10,6,1,SimpleHill,0-0,1,6,0-5,2-1;1-13;8-3;7-10;7-3;8-11,7-10,1.83,32,22,126.93405842799999,1
GEMS257,2018_Nov_01_1220,George,AG,1.3,2,GEMS232,10,6,1,SimpleHill,0-0,1,7,7-10,0-12;16-6;1-18;7-11;11-15;3-10,11-15,1.87,46,14,132.870257633,1
GEMS257,2018_Nov_01_1220,George,AG,1.3,2,GEMS232,10,6,1,SimpleHill,0-0,1,8,11-15,20-13;18-8;11-24;7-11;5-19;14-15,11-24,1.21,57,11,138.136350032,1
GEMS257,2018_Nov_01_1220,George,AG,1.3,2,GEMS232,10,6,1,SimpleHill,0-0,1,9,11-24,16-24;8-18;10-28;11-32;13-28;10-20,10-28,0.85,59,2,143.074837257,1
GEMS257,2018_Nov_01_1220,George,AG,1.3,2,GEMS232,10,6,1,SimpleHill,0-0,1,10,10-28,14-19;11-34;13-26;6-23;3-33;3-29,6-23,1.45,47,-12,148.607245801,1
GEMS257,2018_Nov_01_1220,George,AG,1.3,2,GEMS232,10,6,1,SimpleHill,0-0,1,11,6-23,9-17;5-19;8-32;15-21;8-29;14-29,15-21,0.64,59,12,153.319952729,1
GEMS257,2018_Nov_01_1220,George,AG,1.3,2,GEMS232,10,6,1,SimpleHill,0-0,1,12,15-21,17-25;12-30;9-14;16-22;23-16;19-19,12-30,2.6,64,5,160.01204699299998,1
GEMS257,2018_Nov_01_1220,George,AG,1.3,2,GEMS232,10,6,1,SimpleHill,0-0,1,13,12-30,8-28;12-24;13-30;18-30;8-32;7-35,8-28,0.82,56,-8,164.905365035,1
GEMS257,2018_Nov_01_1220,George,AG,1.3,2,GEMS232,10,6,1,SimpleHill,0-0,1,14,8-28,9-20;18-28;3-33;10-32;8-25;15-26,18-28,0.94,70,14,169.927138673,1
GEMS257,2018_Nov_01_1220,George,AG,1.3,2,GEMS232,10,6,1,SimpleHill,0-0,1,15,18-28,18-20;17-31;20-30;14-26;8-28;26-25,17-31,1.76,72,2,175.741098153,1
GEMS257,2018_Nov_01_1220,George,AG,1.3,2,GEMS232,10,6,1,SimpleHill,0-0,1,16,17-31,19-40;11-26;26-30;21-28;14-23;11-34,26-30,1.82,81,9,181.634291359,1
GEMS257,2018_Nov_01_1220,George,AG,1.3,2,GEMS232,10,6,1,SimpleHill,0-0,1,17,26-30,24-26;28-39;25-38;19-23;28-31;25-35,25-38,3.09,85,4,188.78353823,1
GEMS257,2018_Nov_01_1220,George,AG,1.3,2,GEMS232,10,6,1,SimpleHill,0-0,1,18,25-38,28-31;20-36;26-30;31-31;19-46;16-38,26-30,1.63,81,-4,194.48993293700002,1
GEMS257,2018_Nov_01_1220,George,AG,1.3,2,GEMS232,10,6,1,SimpleHill,0-0,1,19,26-30,30-27;18-35;21-30;34-36;21-28;31-36,21-30,4.2,76,-5,202.759727525,1
GEMS257,2018_Nov_01_1220,George,AG,1.3,2,GEMS232,10,6,1,SimpleHill,0-0,1,20,21-30,30-30;29-35;18-29;17-21;21-38;30-28,21-38,2.14,81,5,208.977162375,1
GEMS257,2018_Nov_01_1220,George,AG,1.3,2,GEMS232,10,6,1,SimpleHill,0-0,1,21,21-38,21-46;18-38;25-35;23-46;17-39;14-34,17-39,0.7,76,-5,213.74142176700002,1
GEMS257,2018_Nov_01_1220,George,AG,1.3,2,GEMS232,10,6,1,SimpleHill,0-0,1,22,17-39,25-42;24-37;15-33;11-37;11-39;10-46,11-37,0.34,67,-9,218.149747815,1
GEMS257,2018_Nov_01_1220,George,AG,1.3,2,GEMS232,10,6,1,SimpleHill,0-0,1,23,11-37,8-28;15-36;11-44;17-31;5-29;6-37,8-28,2.49,56,-11,224.68874385900003,1
GEMS257,2018_Nov_01_1220,George,AG,1.3,2,GEMS232,10,6,1,SimpleHill,0-0,1,24,8-28,8-18;8-20;13-35;2-32;15-31;2-31,8-20,1.73,47,-9,230.488198677,1
GEMS257,2018_Nov_01_1220,George,AG,1.3,2,GEMS232,10,6,1,SimpleHill,0-0,1,25,8-20,3-25;15-25;3-13;10-19;11-18;4-12,11-18,2.2,50,3,236.758316878,1
GEMS257,2018_Nov_01_1220,George,AG,1.3,2,GEMS232,10,6,1,SimpleHill,0-0,1,26,11-18,14-27;12-13;7-16;17-11;6-17;8-22,12-13,1.19,44,-6,242.018038161,1
GEMS257,2018_Nov_01_1220,George,AG,1.3,2,GEMS232,10,6,1,SimpleHill,0-0,1,27,12-13,11-20;12-5;20-10;10-15;15-22;6-12,15-22,2.83,60,16,248.909834804,1
GEMS257,2018_Nov_01_1220,George,AG,1.3,2,GEMS232,10,6,1,SimpleHill,0-0,1,28,15-22,15-17;17-13;11-23;12-19;16-22;12-26,16-22,1.85,62,2,254.82463071799998,1
GEMS257,2018_Nov_01_1220,George,AG,1.3,2,GEMS232,10,6,1,SimpleHill,0-0,1,29,16-22,18-14;15-22;14-13;24-25;19-21;14-17,15-22,2.69,60,-2,261.59274242,1
GEMS257,2018_Nov_01_1220,George,AG,1.3,2,GEMS232,10,6,1,SimpleHill,0-0,1,30,15-22,22-26;10-27;20-29;23-26;22-27;11-19,23-26,1.36,74,14,267.03110016700003,1
GEMS257,2018_Nov_01_1220,George,AG,1.3,2,GEMS232,10,6,1,SimpleHill,0-0,1,31,23-26,23-22;22-25;26-17;31-22;28-26;15-20,28-26,4.33,79,5,275.44079461,1
GEMS257,2018_Nov_01_1220,George,AG,1.3,2,GEMS232,10,6,1,SimpleHill,0-0,1,32,28-26,27-25;32-34;33-27;28-22;31-17;35-28,33-27,2.9,84,5,282.39781677900004,1
GEMS257,2018_Nov_01_1220,George,AG,1.3,2,GEMS232,10,6,1,SimpleHill,0-0,1,33,33-27,36-33;38-19;34-19;31-19;36-29;35-26,36-29,2.99,88,4,289.449800086,1
GEMS257,2018_Nov_01_1220,George,AG,1.3,2,GEMS232,10,6,1,SimpleHill,0-0,1,34,36-29,43-35;43-27;28-30;40-36;34-33;33-23,40-36,1.6,95,7,295.122587985,1
GEMS257,2018_Nov_01_1220,George,AG,1.3,2,GEMS232,10,6,1,SimpleHill,0-0,1,35,40-36,38-29;36-36;48-40;37-41;44-36;36-39,38-29,0.99,89,-6,300.191815304,1
GEMS257,2018_Nov_01_1220,George,AG,1.3,2,GEMS232,10,6,1,SimpleHill,0-0,1,36,38-29,46-26;44-32;36-28;34-32;37-31;42-24,37-31,1.2,90,1,305.467718213,1
GEMS257,2018_Nov_01_1220,George,AG,1.3,2,GEMS232,10,6,1,SimpleHill,0-0,1,37,37-31,29-33;39-35;35-22;38-38;41-24;31-31,38-38,1.41,95,5,310.959063717,1
GEMS257,2018_Nov_01_1220,George,AG,1.3,2,GEMS232,10,6,1,SimpleHill,0-0,1,38,38-38,42-31;44-37;30-40;31-44;42-42;41-43,31-44,2.68,93,-2,317.695232449,1
GEMS257,2018_Nov_01_1220,George,AG,1.3,2,GEMS232,10,6,1,SimpleHill,0-0,1,39,31-44,30-39;31-54;35-52;22-45;34-51;33-37,34-51,1.64,95,2,323.413937266,1
GEMS257,2018_Nov_01_1220,George,AG,1.3,2,GEMS232,10,6,1,SimpleHill,0-0,1,40,34-51,30-50;36-58;28-52;30-57;24-51;33-54,36-58,3.92,95,0,331.404726291,1
GEMS257,2018_Nov_01_1220,George,AG,1.3,2,GEMS232,10,6,1,SimpleHill,0-0,1,41,36-58,45-54;37-50;43-51;40-52;41-61;32-66,32-66,3.57,89,-6,339.046298469,1
GEMS257,2018_Nov_01_1220,George,AG,1.3,2,GEMS232,10,6,1,SimpleHill,0-0,1,42,32-66,35-59;25-63;32-70;25-67;25-62;39-62,25-62,1.43,85,-4,344.54528233599996,1
GEMS257,2018_Nov_01_1220,George,AG,1.3,2,GEMS232,10,6,1,SimpleHill,0-0,1,43,25-62,25-56;26-59;30-70;33-62;27-60;25-61,30-70,1.22,85,0,349.832586611,1
GEMS257,2018_Nov_01_1220,George,AG,1.3,2,GEMS232,10,6,1,SimpleHill,0-0,1,44,30-70,35-64;28-63;21-66;31-67;20-70;27-69,28-63,2.5,87,2,356.403507059,1
GEMS257,2018_Nov_01_1220,George,AG,1.3,2,GEMS232,10,6,1,SimpleHill,0-0,1,45,28-63,37-60;22-59;30-60;30-57;22-58;35-56,30-57,2.27,92,5,362.748545101,1
GEMS257,2018_Nov_01_1220,George,AG,1.3,2,GEMS232,10,6,1,SimpleHill,0-0,1,46,30-57,24-56;24-54;31-55;30-56;27-61;35-62,27-61,4.43,88,-4,371.261740745,1
GEMS257,2018_Nov_01_1220,George,AG,1.3,2,GEMS232,10,6,1,SimpleHill,0-0,1,47,27-61,35-63;34-65;36-58;22-54;28-63;28-53,22-54,0.49,85,-3,375.81611402199997,1
GEMS257,2018_Nov_01_1220,George,AG,1.3,2,GEMS232,10,6,1,SimpleHill,0-0,1,48,22-54,13-55;27-51;25-58;24-54;31-55;23-46,25-58,3.98,87,2,383.86202005800004,1
GEMS257,2018_Nov_01_1220,George,AG,1.3,2,GEMS232,10,6,1,SimpleHill,0-0,1,49,25-58,30-59;31-57;26-52;29-49;24-59;16-56,16-56,1.88,77,-10,389.818747421,1
GEMS257,2018_Nov_01_1220,George,AG,1.3,2,GEMS232,10,6,1,SimpleHill,0-0,1,50,16-56,17-47;12-49;20-55;17-62;23-63;14-49,12-49,1.45,72,-5,395.357464664,1
GEMS257,2018_Nov_01_1220,George,AG,1.3,2,GEMS232,10,6,1,SimpleHill,0-0,1,51,12-49,8-44;13-41;3-49;5-56;4-51;19-55,3-49,0.39,56,-16,399.817546435,1
GEMS257,2018_Nov_01_1220,George,AG,1.3,2,GEMS232,10,6,1,SimpleHill,0-0,1,52,3-49,8-53;12-48;5-44;7-55;0-48;11-49,7-55,1.07,63,7,404.96133573199995,1
GEMS257,2018_Nov_01_1220,George,AG,1.3,2,GEMS232,10,6,1,SimpleHill,0-0,1,53,7-55,11-53;5-54;7-60;11-46;8-61;4-49,11-46,0.28,70,7,409.341620416,1
GEMS257,2018_Nov_01_1220,George,AG,1.3,2,GEMS232,10,6,1,SimpleHill,0-0,1,54,11-46,12-52;18-43;11-55;6-39;8-44;8-46,8-44,1.74,65,-5,415.13714994300005,1
GEMS257,2018_Nov_01_1220,George,AG,1.3,2,GEMS232,10,6,1,SimpleHill,0-0,1,55,8-44,0-40;12-45;13-52;2-42;0-45;14-40,13-52,0.21,73,8,419.435198436,1
GEMS257,2018_Nov_01_1220,George,AG,1.3,2,GEMS232,10,6,1,SimpleHill,0-0,1,56,13-52,17-61;12-56;13-57;15-53;7-49;9-53,17-61,0.28,76,3,423.791660892,1
GEMS257,2018_Nov_01_1220,George,AG,1.3,2,GEMS232,10,6,1,SimpleHill,0-0,1,57,17-61,19-62;15-59;9-59;14-66;27-61;20-64,27-61,0.61,88,12,428.46654123300004,1
GEMS257,2018_Nov_01_1220,George,AG,1.3,2,GEMS232,10,6,1,SimpleHill,0-0,1,58,27-61,21-64;35-64;30-67;21-54;30-65;32-63,35-64,0.7,92,4,433.25331527599997,1
GEMS257,2018_Nov_01_1220,George,AG,1.3,2,GEMS232,10,6,1,SimpleHill,0-0,1,59,35-64,29-68;34-61;28-70;35-61;26-65;27-58,27-58,0.44,89,-3,437.749523623,1
GEMS257,2018_Nov_01_1220,George,AG,1.3,2,GEMS232,10,6,1,SimpleHill,0-0,1,60,27-58,27-56;24-56;30-50;33-54;31-55;29-65,30-50,0.21,93,4,442.03800487800004,1
GEMS257,2018_Nov_01_1220,George,AG,1.3,2,GEMS232,10,6,1,SimpleHill,0-0,1,61,30-50,39-52;28-50;29-46;28-48;26-50;24-52,26-50,0.24,89,-4,446.34802002099997,1
GEMS257,2018_Nov_01_1220,George,AG,1.3,2,GEMS232,10,6,1,SimpleHill,0-0,1,62,26-50,34-44;26-45;23-46;21-42;29-57;33-53,34-44,0.41,95,6,450.844769644,1
GEMS257,2018_Nov_01_1220,George,AG,1.3,2,GEMS232,10,6,1,SimpleHill,0-0,1,63,34-44,41-48;37-53;29-50;33-44;25-47;37-38,33-44,0.21,94,-1,455.13779653,1
GEMS257,2018_Nov_01_1220,George,AG,1.3,2,GEMS232,10,6,1,SimpleHill,0-0,1,64,33-44,31-45;33-42;32-38;24-43;34-44;33-51,24-43,0.21,86,-8,459.412671301,1
GEMS257,2018_Nov_01_1220,George,AG,1.3,2,GEMS232,10,6,1,SimpleHill,0-0,1,65,24-43,20-52;25-51;25-41;25-49;23-34;26-35,26-35,0.28,84,-2,463.76135231300003,1
GEMS257,2018_Nov_01_1220,George,AG,1.3,2,GEMS232,10,6,1,SimpleHill,0-0,1,66,26-35,25-27;32-29;22-37;23-26;22-30;25-31,32-29,0.24,85,1,468.08951316800005,1
GEMS257,2018_Nov_01_1220,George,AG,1.3,2,GEMS232,10,6,1,SimpleHill,0-0,1,67,32-29,28-28;31-25;32-30;38-34;38-35;35-26,32-30,0.24,86,1,472.396034825,1
GEMS257,2018_Nov_01_1220,George,AG,1.3,2,GEMS232,10,6,1,SimpleHill,0-0,1,68,32-30,38-31;29-22;34-32;29-23;37-34;39-26,37-34,0.23,92,6,476.69598626699997,1
GEMS257,2018_Nov_01_1220,George,AG,1.3,2,GEMS232,10,6,1,SimpleHill,0-0,1,69,37-34,38-32;41-42;27-34;38-26;38-31;37-29,38-26,0.28,86,-6,481.05869116199995,1
GEMS257,2018_Nov_01_1220,George,AG,1.3,2,GEMS232,10,6,1,SimpleHill,0-0,1,70,38-26,46-25;32-25;32-21;36-22;34-19;43-20,43-20,0.23,82,-4,485.37715162,1
GEMS257,2018_Nov_01_1220,George,AG,1.3,2,GEMS232,10,6,1,SimpleHill,0-0,1,71,43-20,37-27;40-22;37-21;51-25;34-19;45-20,40-22,0.36,83,1,489.81899485300005,1
GEMS257,2018_Nov_01_1220,George,AG,1.3,2,GEMS232,10,6,1,SimpleHill,0-0,1,72,40-22,37-16;33-17;47-28;37-20;46-26;39-23,39-23,8.53,84,1,502.419470382,1
GEMS257,2018_Nov_01_1220,George,AG,1.3,2,GEMS232,10,6,1,SimpleHill,0-0,1,73,39-23,47-23;39-20;36-20;37-22;41-15;44-15,39-20,2.23,80,-4,508.732661161,1
GEMS257,2018_Nov_01_1220,George,AG,1.3,2,GEMS232,10,6,1,SimpleHill,0-0,1,74,39-20,30-19;43-23;42-24;35-18;38-19;37-16,38-19,2.04,78,-2,514.841158363,1
GEMS257,2018_Nov_01_1220,George,AG,1.3,2,GEMS232,10,6,1,SimpleHill,0-0,1,75,38-19,38-21;34-27;41-25;46-23;39-15;36-14,41-25,0.25,86,8,519.168846122,1
GEMS257,2018_Nov_01_1220,George,AG,1.3,2,GEMS232,10,6,1,SimpleHill,0-0,1,76,41-25,35-21;45-32;43-21;38-33;49-25;41-18,38-33,0.88,92,6,524.108368205,1
GEMS257,2018_Nov_01_1220,George,AG,1.3,2,GEMS232,10,6,1,SimpleHill,0-0,1,77,38-33,36-27;38-35;35-40;36-25;46-28;31-36,35-40,1.41,94,2,529.570161189,1
GEMS257,2018_Nov_01_1220,George,AG,1.3,2,GEMS232,10,6,1,SimpleHill,0-0,1,78,35-40,40-36;31-45;35-47;34-47;35-42;26-41,34-47,1.02,95,1,534.649226545,1
GEMS257,2018_Nov_01_1220,George,AG,1.3,2,GEMS232,10,6,1,SimpleHill,0-0,1,79,34-47,28-55;32-56;37-38;34-45;28-39;26-53,28-39,2.09,88,-7,540.811430752,1
GEMS257,2018_Nov_01_1220,George,AG,1.3,2,GEMS232,10,6,2,SimpleHill,0-0,1,0,0-0,3-4;6-6;8-6;6-7;4-1;7-3,6-7,6.38,25,24,660.445141783,1
GEMS257,2018_Nov_01_1220,George,AG,1.3,2,GEMS232,10,6,2,SimpleHill,0-0,1,1,6-7,11-7;0-8;12-0;1-4;7-8;10-4,1-4,0.74,10,-15,665.2219321480001,1
GEMS257,2018_Nov_01_1220,George,AG,1.3,2,GEMS232,10,6,2,SimpleHill,0-0,1,2,1-4,8-9;2-2;0-6;3-7;2-9;2-13,2-2,0.86,8,-2,670.130413281,1
GEMS257,2018_Nov_01_1220,George,AG,1.3,2,GEMS232,10,6,2,SimpleHill,0-0,1,3,2-2,9-3;10-1;6-5;2-11;4-8;7-3,6-5,2.3,21,13,676.515822962,1
GEMS257,2018_Nov_01_1220,George,AG,1.3,2,GEMS232,10,6,2,SimpleHill,0-0,1,4,6-5,3-9;7-3;0-5;12-6;6-5;10-1,10-1,0.49,20,-1,681.092449055,1
GEMS257,2018_Nov_01_1220,George,AG,1.3,2,GEMS232,10,6,2,SimpleHill,0-0,1,5,10-1,3-7;9-3;17-2;2-2;14-2;19-0,2-2,0.75,8,-12,685.9125046930001,1
GEMS257,2018_Nov_01_1220,George,AG,1.3,2,GEMS232,10,6,2,SimpleHill,0-0,1,6,2-2,0-8;5-3;3-3;1-3;5-8;7-0,5-3,0.62,16,8,690.595456802,1
GEMS257,2018_Nov_01_1220,George,AG,1.3,2,GEMS232,10,6,2,SimpleHill,0-0,1,7,5-3,8-7;2-5;13-0;10-8;10-2;1-9,2-5,1.44,14,-2,696.1119804460001,1
GEMS257,2018_Nov_01_1220,George,AG,1.3,2,GEMS232,10,6,2,SimpleHill,0-0,1,8,2-5,0-8;5-4;3-3;4-0;9-9;3-6,3-3,0.92,12,-2,701.096118593,1
GEMS257,2018_Nov_01_1220,George,AG,1.3,2,GEMS232,10,6,2,SimpleHill,0-0,1,9,3-3,6-2;4-10;10-7;3-6;2-12;6-6,3-6,1.58,18,6,706.752652525,1
GEMS257,2018_Nov_01_1220,George,AG,1.3,2,GEMS232,10,6,2,SimpleHill,0-0,1,10,3-6,1-15;6-7;10-9;0-9;8-14;1-11,8-14,1.23,39,21,712.0585660060001,1
GEMS257,2018_Nov_01_1220,George,AG,1.3,2,GEMS232,10,6,2,SimpleHill,0-0,1,11,8-14,2-7;6-11;11-6;13-18;12-20;3-15,13-18,2.41,53,14,718.544098635,1
GEMS257,2018_Nov_01_1220,George,AG,1.3,2,GEMS232,10,6,2,SimpleHill,0-0,1,12,13-18,11-27;3-18;8-23;17-9;14-10;14-14,3-18,0.75,36,-17,723.373898202,1
GEMS257,2018_Nov_01_1220,George,AG,1.3,2,GEMS232,10,6,2,SimpleHill,0-0,1,13,3-18,8-13;2-12;0-16;8-15;3-11;7-25,0-16,0.62,27,-9,728.070099571,1
GEMS257,2018_Nov_01_1220,George,AG,1.3,2,GEMS232,10,6,2,SimpleHill,0-0,1,14,0-16,0-25;8-22;4-21;4-14;4-25;5-10,0-25,1.25,38,11,733.3834548780002,1
GEMS257,2018_Nov_01_1220,George,AG,1.3,2,GEMS232,10,6,2,SimpleHill,0-0,1,15,0-25,5-20;3-20;0-25;6-32;0-27;0-29,0-27,0.69,40,2,738.1498287989999,1
GEMS257,2018_Nov_01_1220,George,AG,1.3,2,GEMS232,10,6,2,SimpleHill,0-0,1,16,0-27,6-25;2-36;4-33;8-22;5-32;3-29,4-33,1.13,52,12,743.3411905319998,1
GEMS257,2018_Nov_01_1220,George,AG,1.3,2,GEMS232,10,6,2,SimpleHill,0-0,1,17,4-33,3-35;0-28;6-26;11-27;7-25;7-35,7-35,1.91,59,7,749.319092961,1
GEMS257,2018_Nov_01_1220,George,AG,1.3,2,GEMS232,10,6,2,SimpleHill,0-0,1,18,7-35,10-33;10-43;12-29;0-42;14-42;12-27,10-43,1.24,68,9,754.6206720719998,1
GEMS257,2018_Nov_01_1220,George,AG,1.3,2,GEMS232,10,6,2,SimpleHill,0-0,1,19,10-43,8-45;13-36;13-52;5-49;13-47;6-46,13-47,2.79,73,5,761.485275595,1
GEMS257,2018_Nov_01_1220,George,AG,1.3,2,GEMS232,10,6,2,SimpleHill,0-0,1,20,13-47,10-42;15-54;17-49;9-43;9-55;23-47,9-55,3.13,66,-7,768.667523981,1
GEMS257,2018_Nov_01_1220,George,AG,1.3,2,GEMS232,10,6,2,SimpleHill,0-0,1,21,9-55,5-58;10-56;9-61;15-50;12-52;1-60,15-50,1.26,76,10,773.986870775,1
GEMS257,2018_Nov_01_1220,George,AG,1.3,2,GEMS232,10,6,2,SimpleHill,0-0,1,22,15-50,22-54;15-43;14-51;7-46;13-58;7-48,15-43,2.54,75,-1,780.58313741,1
GEMS257,2018_Nov_01_1220,George,AG,1.3,2,GEMS232,10,6,2,SimpleHill,0-0,1,23,15-43,16-40;15-49;18-44;7-39;20-41;8-50,7-39,0.76,61,-14,785.414173815,1
GEMS257,2018_Nov_01_1220,George,AG,1.3,2,GEMS232,10,6,2,SimpleHill,0-0,1,24,7-39,13-39;16-37;13-32;0-46;15-37;5-42,15-37,4.92,73,12,794.4148472889999,1
GEMS257,2018_Nov_01_1220,George,AG,1.3,2,GEMS232,10,6,2,SimpleHill,0-0,1,25,15-37,9-31;6-41;7-31;22-37;15-35;9-30,22-37,2.81,81,8,801.3051439789999,1
GEMS257,2018_Nov_01_1220,George,AG,1.3,2,GEMS232,10,6,2,SimpleHill,0-0,1,26,22-37,16-35;21-32;17-40;19-36;16-43;30-40,17-40,3.16,77,-4,808.540365718,1
GEMS257,2018_Nov_01_1220,George,AG,1.3,2,GEMS232,10,6,2,SimpleHill,0-0,1,27,17-40,12-47;11-37;21-47;12-33;11-45;18-42,21-47,4.08,84,7,816.6793052969998,1
GEMS257,2018_Nov_01_1220,George,AG,1.3,2,GEMS232,10,6,2,SimpleHill,0-0,1,28,21-47,21-45;25-39;26-44;25-56;15-46;28-40,25-56,4.63,87,3,825.3794988569998,1
GEMS257,2018_Nov_01_1220,George,AG,1.3,2,GEMS232,10,6,2,SimpleHill,0-0,1,29,25-56,30-61;30-60;19-50;16-53;27-62;22-62,22-62,4.2,82,-5,833.653379422,1
GEMS257,2018_Nov_01_1220,George,AG,1.3,2,GEMS232,10,6,2,SimpleHill,0-0,1,30,22-62,21-58;15-57;31-64;12-62;13-58;20-67,15-57,5.47,75,-7,843.183239392,1
GEMS257,2018_Nov_01_1220,George,AG,1.3,2,GEMS232,10,6,2,SimpleHill,0-0,1,31,15-57,10-65;22-57;11-60;18-52;22-59;22-60,10-65,0.32,64,-11,847.5656357239999,1
GEMS257,2018_Nov_01_1220,George,AG,1.3,2,GEMS232,10,6,2,SimpleHill,0-0,1,32,10-65,15-58;17-62;19-66;5-57;6-59;7-62,19-66,0.66,76,12,852.2975120189999,1
GEMS257,2018_Nov_01_1220,George,AG,1.3,2,GEMS232,10,6,2,SimpleHill,0-0,1,33,19-66,19-70;23-65;25-66;14-66;18-59;25-70,14-66,1.22,69,-7,857.5864538860001,1
GEMS257,2018_Nov_01_1220,George,AG,1.3,2,GEMS232,10,6,2,SimpleHill,0-0,1,34,14-66,17-63;13-63;16-66;8-69;11-58;21-65,11-58,1.25,69,0,862.912872799,1
GEMS257,2018_Nov_01_1220,George,AG,1.3,2,GEMS232,10,6,2,SimpleHill,0-0,1,35,11-58,10-56;8-60;10-52;6-62;5-59;8-62,10-52,0.82,68,-1,867.810303067,1
GEMS257,2018_Nov_01_1220,George,AG,1.3,2,GEMS232,10,6,2,SimpleHill,0-0,1,36,10-52,6-60;11-49;5-48;13-43;13-50;10-54,13-43,0.24,72,4,872.126090755,1
GEMS257,2018_Nov_01_1220,George,AG,1.3,2,GEMS232,10,6,2,SimpleHill,0-0,1,37,13-43,18-43;11-44;11-43;17-48;16-42;12-49,12-49,0.72,72,0,876.911292184,1
GEMS257,2018_Nov_01_1220,George,AG,1.3,2,GEMS232,10,6,2,SimpleHill,0-0,1,38,12-49,2-49;6-42;13-58;6-51;15-49;9-40,6-42,1.22,61,-11,882.2033952830002,1
GEMS257,2018_Nov_01_1220,George,AG,1.3,2,GEMS232,10,6,2,SimpleHill,0-0,1,39,6-42,14-45;0-50;14-48;13-49;13-39;8-44,13-49,0.26,73,12,886.526537091,1
GEMS257,2018_Nov_01_1220,George,AG,1.3,2,GEMS232,10,6,2,SimpleHill,0-0,1,40,13-49,9-46;19-42;6-48;19-53;18-56;17-45,9-46,0.88,67,-6,891.465119063,1
GEMS257,2018_Nov_01_1220,George,AG,1.3,2,GEMS232,10,6,2,SimpleHill,0-0,1,41,9-46,1-52;15-44;1-48;14-53;10-46;10-47,1-48,2.2,52,-15,897.736217386,1
GEMS257,2018_Nov_01_1220,George,AG,1.3,2,GEMS232,10,6,2,SimpleHill,0-0,1,42,1-48,3-46;0-52;7-46;1-45;6-51;10-50,6-51,0.33,62,10,902.1441260339999,1
GEMS257,2018_Nov_01_1220,George,AG,1.3,2,GEMS232,10,6,2,SimpleHill,0-0,1,43,6-51,12-59;0-48;12-45;6-50;11-44;6-41,0-48,0.25,50,-12,906.464329395,1
GEMS257,2018_Nov_01_1220,George,AG,1.3,2,GEMS232,10,6,2,SimpleHill,0-0,1,44,0-48,8-53;8-45;7-51;1-56;0-48;3-40,3-40,0.25,54,4,910.783826633,1
GEMS257,2018_Nov_01_1220,George,AG,1.3,2,GEMS232,10,6,2,SimpleHill,0-0,1,45,3-40,4-32;9-47;12-40;1-47;8-34;0-47,12-40,0.42,70,16,915.262169989,1
GEMS257,2018_Nov_01_1220,George,AG,1.3,2,GEMS232,10,6,2,SimpleHill,0-0,1,46,12-40,9-48;21-42;20-36;20-34;7-43;9-34,20-34,1.13,77,7,920.482423252,1
GEMS257,2018_Nov_01_1220,George,AG,1.3,2,GEMS232,10,6,2,SimpleHill,0-0,1,47,20-34,16-41;12-37;17-37;21-29;19-29;23-32,12-37,2.75,68,-9,927.29612826,1
GEMS257,2018_Nov_01_1220,George,AG,1.3,2,GEMS232,10,6,2,SimpleHill,0-0,1,48,12-37,9-43;8-35;14-33;15-45;9-38;6-41,6-41,4.28,60,-8,935.6555342839999,1
GEMS257,2018_Nov_01_1220,George,AG,1.3,2,GEMS232,10,6,2,SimpleHill,0-0,1,49,6-41,13-35;2-42;5-40;8-40;9-48;11-47,9-48,0.52,67,7,940.244686548,1
GEMS257,2018_Nov_01_1220,George,AG,1.3,2,GEMS232,10,6,2,SimpleHill,0-0,1,50,9-48,10-54;12-55;9-39;2-42;8-53;6-40,10-54,0.61,68,1,944.904162768,1
GEMS257,2018_Nov_01_1220,George,AG,1.3,2,GEMS232,10,6,2,SimpleHill,0-0,1,51,10-54,8-49;8-45;19-51;16-62;13-56;8-52,8-45,0.66,65,-3,949.625274679,1
GEMS257,2018_Nov_01_1220,George,AG,1.3,2,GEMS232,10,6,2,SimpleHill,0-0,1,52,8-45,5-43;3-52;2-51;5-51;11-37;3-37,11-37,0.73,67,2,954.41387901,1
GEMS257,2018_Nov_01_1220,George,AG,1.3,2,GEMS232,10,6,2,SimpleHill,0-0,1,53,11-37,6-32;11-28;8-31;14-29;12-36;10-35,14-29,0.52,66,-1,959.0036100010001,1
GEMS257,2018_Nov_01_1220,George,AG,1.3,2,GEMS232,10,6,2,SimpleHill,0-0,1,54,14-29,9-25;17-25;10-22;12-27;9-24;7-28,9-25,0.91,54,-12,963.9765750060001,1
GEMS257,2018_Nov_01_1220,George,AG,1.3,2,GEMS232,10,6,2,SimpleHill,0-0,1,55,9-25,4-27;14-33;4-22;13-26;16-18;7-25,4-22,0.94,43,-11,968.988545818,1
GEMS257,2018_Nov_01_1220,George,AG,1.3,2,GEMS232,10,6,2,SimpleHill,0-0,1,56,4-22,11-25;10-22;10-16;2-21;1-15;9-16,2-21,1.72,38,-5,974.775340666,1
GEMS257,2018_Nov_01_1220,George,AG,1.3,2,GEMS232,10,6,2,SimpleHill,0-0,1,57,2-21,0-30;5-26;3-29;3-21;8-26;2-30,0-30,3.83,43,5,982.6533608569999,1
GEMS257,2018_Nov_01_1220,George,AG,1.3,2,GEMS232,10,6,2,SimpleHill,0-0,1,58,0-30,5-25;2-31;8-35;0-28;4-23;7-23,2-31,0.94,47,4,987.649446769,1
GEMS257,2018_Nov_01_1220,George,AG,1.3,2,GEMS232,10,6,2,SimpleHill,0-0,1,59,2-31,1-23;7-23;4-27;3-31;10-37;2-22,7-23,1.82,49,2,993.5351238869999,1
GEMS257,2018_Nov_01_1220,George,AG,1.3,2,GEMS232,10,6,2,SimpleHill,0-0,1,60,7-23,8-18;1-29;7-18;11-23;3-16;8-29,11-23,0.96,56,7,998.5600571560001,1
GEMS257,2018_Nov_01_1220,George,AG,1.3,2,GEMS232,10,6,2,SimpleHill,0-0,1,61,11-23,14-22;10-27;19-20;10-14;4-18;10-28,10-27,0.92,58,2,1003.56176293,1
GEMS257,2018_Nov_01_1220,George,AG,1.3,2,GEMS232,10,6,2,SimpleHill,0-0,1,62,10-27,6-24;4-34;1-27;16-34;9-29;6-32,4-34,0.69,53,-5,1008.32238639,1
GEMS257,2018_Nov_01_1220,George,AG,1.3,2,GEMS232,10,6,2,SimpleHill,0-0,1,63,4-34,0-29;13-36;5-35;3-42;8-36;0-33,5-35,0.88,56,3,1013.26828951,1
GEMS257,2018_Nov_01_1220,George,AG,1.3,2,GEMS232,10,6,2,SimpleHill,0-0,1,64,5-35,9-28;4-40;5-38;0-29;13-40;2-37,2-37,1.5,51,-5,1018.82891355,1
GEMS257,2018_Nov_01_1220,George,AG,1.3,2,GEMS232,10,6,2,SimpleHill,0-0,1,65,2-37,7-35;5-39;7-32;8-34;5-28;1-37,7-35,2.1,59,8,1025.01114497,1
GEMS257,2018_Nov_01_1220,George,AG,1.3,2,GEMS232,10,6,2,SimpleHill,0-0,1,66,7-35,2-31;6-44;1-36;9-28;0-29;0-31,1-36,0.61,49,-10,1029.68452248,1
GEMS257,2018_Nov_01_1220,George,AG,1.3,2,GEMS232,10,6,2,SimpleHill,0-0,1,67,1-36,7-42;1-38;6-38;7-30;5-40;4-41,4-41,5.16,57,8,1038.92133796,1
GEMS257,2018_Nov_01_1220,George,AG,1.3,2,GEMS232,10,6,2,SimpleHill,0-0,1,68,4-41,4-43;9-36;6-49;9-44;1-37;12-40,4-43,2.22,57,0,1045.21404251,1
GEMS257,2018_Nov_01_1220,George,AG,1.3,2,GEMS232,10,6,2,SimpleHill,0-0,1,69,4-43,2-34;1-50;12-45;0-48;4-48;3-49,2-34,0.25,49,-8,1049.52519654,1
GEMS257,2018_Nov_01_1220,George,AG,1.3,2,GEMS232,10,6,2,SimpleHill,0-0,1,70,2-34,2-27;11-31;2-40;3-25;9-33;9-27,2-40,2.69,52,3,1056.27465295,1
GEMS257,2018_Nov_01_1220,George,AG,1.3,2,GEMS232,10,6,2,SimpleHill,0-0,1,71,2-40,3-36;9-38;6-33;0-33;6-48;4-39,6-48,3.55,62,10,1063.91104987,1
GEMS257,2018_Nov_01_1220,George,AG,1.3,2,GEMS232,10,6,2,SimpleHill,0-0,1,72,6-48,5-44;2-41;14-50;0-54;5-57;14-48,5-57,2.38,59,-3,1070.34511614,1
GEMS257,2018_Nov_01_1220,George,AG,1.3,2,GEMS232,10,6,2,SimpleHill,0-0,1,73,5-57,4-63;0-64;8-57;3-64;12-64;2-56,8-57,1.83,64,5,1076.24780937,1
GEMS257,2018_Nov_01_1220,George,AG,1.3,2,GEMS232,10,6,2,SimpleHill,0-0,1,74,8-57,0-59;3-52;8-57;9-64;5-53;4-55,9-64,1.81,63,-1,1082.13746075,1
GEMS257,2018_Nov_01_1220,George,AG,1.3,2,GEMS232,10,6,2,SimpleHill,0-0,1,75,9-64,16-67;4-64;10-59;17-60;4-61;6-70,4-64,1.24,54,-9,1087.43455857,1
GEMS257,2018_Nov_01_1220,George,AG,1.3,2,GEMS232,10,6,2,SimpleHill,0-0,1,76,4-64,3-62;5-69;11-65;5-66;0-60;2-60,5-66,1.44,55,1,1092.94070514,1
GEMS257,2018_Nov_01_1220,George,AG,1.3,2,GEMS232,10,6,2,SimpleHill,0-0,1,77,5-66,10-65;4-63;9-64;1-66;10-66;11-60,10-66,1.52,63,8,1098.53626214,1
GEMS257,2018_Nov_01_1220,George,AG,1.3,2,GEMS232,10,6,2,SimpleHill,0-0,1,78,10-66,13-66;1-67;12-69;8-61;13-64;4-67,12-69,2.5,64,1,1105.10473484,1
GEMS257,2018_Nov_01_1220,George,AG,1.3,2,GEMS232,10,6,2,SimpleHill,0-0,1,79,12-69,8-61;15-66;3-67;7-61;20-64;10-69,10-69,3.05,61,-3,1112.24396506,1
