subj_id,date,computer,experimenter,instructions,sight_radius,n_gabors,start_pos_list_ix,start_pos_list,landscape_ix,landscape_name,starting_pos,starting_score,trial,feedback,pos,stims,selected,rt,score,delta,exp_time
GEMS231,2018_Apr_20_1313,George,SF,spatial_frequency,8,6,16,31-30;4-8;26-8;9-39,0,SpatialFrequencyBias,0-0,0,0,training,0-0,6-1;2-5;6-2;4-1;0-8;1-4,1-4,4.86,15,15,310.790050895
GEMS231,2018_Apr_20_1313,George,SF,spatial_frequency,8,6,16,31-30;4-8;26-8;9-39,0,SpatialFrequencyBias,0-0,0,1,training,1-4,3-6;4-11;7-6;7-3;1-5;3-8,4-11,5.46,39,24,328.021509235
GEMS231,2018_Apr_20_1313,George,SF,spatial_frequency,8,6,16,31-30;4-8;26-8;9-39,0,SpatialFrequencyBias,0-0,0,2,training,4-11,8-10;6-17;2-18;4-19;5-17;2-8,4-19,6.18,61,22,339.478082008
GEMS231,2018_Apr_20_1313,George,SF,spatial_frequency,8,6,16,31-30;4-8;26-8;9-39,0,SpatialFrequencyBias,0-0,0,3,training,4-19,1-19;11-21;2-25;3-20;2-17;6-19,11-21,3.83,66,5,346.985612496
GEMS231,2018_Apr_20_1313,George,SF,spatial_frequency,8,6,16,31-30;4-8;26-8;9-39,0,SpatialFrequencyBias,0-0,0,4,training,11-21,6-22;7-25;18-24;10-14;14-17;7-18,18-24,3.01,72,6,357.034045325
GEMS231,2018_Apr_20_1313,George,SF,spatial_frequency,8,6,16,31-30;4-8;26-8;9-39,0,SpatialFrequencyBias,0-0,0,5,training,18-24,24-22;15-18;18-31;16-20;11-24;18-18,24-22,2.76,68,-4,364.805699561
GEMS231,2018_Apr_20_1313,George,SF,spatial_frequency,8,6,16,31-30;4-8;26-8;9-39,0,SpatialFrequencyBias,0-0,0,6,training,24-22,26-23;28-17;25-21;22-26;25-25;27-28,27-28,2.58,80,12,370.629260267
GEMS231,2018_Apr_20_1313,George,SF,spatial_frequency,8,6,16,31-30;4-8;26-8;9-39,0,SpatialFrequencyBias,0-0,0,7,training,27-28,28-24;26-28;24-33;26-34;31-22;31-28,24-33,5.78,88,8,379.428218047
GEMS231,2018_Apr_20_1313,George,SF,spatial_frequency,8,6,16,31-30;4-8;26-8;9-39,0,SpatialFrequencyBias,0-0,0,8,training,24-33,19-39;27-29;29-30;25-32;22-29;22-39,19-39,2.34,95,7,385.271644313
GEMS231,2018_Apr_20_1313,George,SF,spatial_frequency,8,6,16,31-30;4-8;26-8;9-39,0,SpatialFrequencyBias,0-0,0,9,training,19-39,19-44;13-35;13-44;20-41;18-34;18-41,13-44,3.54,98,3,393.310811114
GEMS231,2018_Apr_20_1313,George,SF,spatial_frequency,8,6,16,31-30;4-8;26-8;9-39,0,SpatialFrequencyBias,0-0,0,10,training,13-44,17-40;13-37;8-42;9-41;10-50;11-46,10-50,7.48,100,2,405.415773183
GEMS231,2018_Apr_20_1313,George,SF,spatial_frequency,8,6,16,31-30;4-8;26-8;9-39,0,SpatialFrequencyBias,0-0,0,11,training,10-50,17-52;16-52;5-48;15-45;11-49;17-53,17-53,4.86,99,-1,413.201954483
GEMS231,2018_Apr_20_1313,George,SF,spatial_frequency,8,6,16,31-30;4-8;26-8;9-39,0,SpatialFrequencyBias,0-0,0,12,training,17-53,19-59;12-58;12-50;20-46;11-58;11-48,19-59,3.81,96,-3,420.812632438
GEMS231,2018_Apr_20_1313,George,SF,spatial_frequency,8,6,16,31-30;4-8;26-8;9-39,0,SpatialFrequencyBias,0-0,0,13,training,19-59,24-65;25-60;16-58;22-63;21-57;23-54,16-58,1.33,97,1,426.018068244
GEMS231,2018_Apr_20_1313,George,SF,spatial_frequency,8,6,16,31-30;4-8;26-8;9-39,0,SpatialFrequencyBias,0-0,0,14,training,16-58,13-61;16-54;19-58;21-57;14-59;21-54,21-54,3.56,99,2,433.210388272
GEMS231,2018_Apr_20_1313,George,SF,spatial_frequency,8,6,16,31-30;4-8;26-8;9-39,0,SpatialFrequencyBias,0-0,0,15,training,21-54,24-55;18-52;24-54;27-54;27-57;28-55,24-54,2.11,99,0,438.239518581
GEMS231,2018_Apr_20_1313,George,SF,spatial_frequency,8,6,16,31-30;4-8;26-8;9-39,0,SpatialFrequencyBias,0-0,0,16,training,24-54,29-53;25-52;30-56;19-49;30-59;29-48,30-59,4.28,96,-3,445.677206235
GEMS231,2018_Apr_20_1313,George,SF,spatial_frequency,8,6,16,31-30;4-8;26-8;9-39,0,SpatialFrequencyBias,0-0,0,17,training,30-59,23-57;24-58;35-63;24-56;29-57;37-56,24-58,4.17,97,1,454.009628693
GEMS231,2018_Apr_20_1313,George,SF,spatial_frequency,8,6,16,31-30;4-8;26-8;9-39,0,SpatialFrequencyBias,0-0,0,18,training,24-58,18-54;25-64;24-54;19-60;19-61;21-57,24-54,2.8,99,2,460.237515765
GEMS231,2018_Apr_20_1313,George,SF,spatial_frequency,8,6,16,31-30;4-8;26-8;9-39,0,SpatialFrequencyBias,0-0,0,19,training,24-54,17-57;27-47;25-54;30-54;23-60;28-59,28-59,3.72,96,-3,466.80117986
GEMS231,2018_Apr_20_1313,George,SF,spatial_frequency,8,6,16,31-30;4-8;26-8;9-39,0,SpatialFrequencyBias,0-0,0,20,training,28-59,31-52;26-64;21-56;29-60;33-54;34-55,31-52,2.59,99,3,472.403272622
GEMS231,2018_Apr_20_1313,George,SF,spatial_frequency,8,6,16,31-30;4-8;26-8;9-39,0,SpatialFrequencyBias,0-0,0,21,training,31-52,27-50;32-54;29-58;28-45;35-52;30-59,32-54,4.62,99,0,479.645874972
GEMS231,2018_Apr_20_1313,George,SF,spatial_frequency,8,6,16,31-30;4-8;26-8;9-39,0,SpatialFrequencyBias,0-0,0,22,training,32-54,34-59;29-53;34-58;26-54;37-48;30-58,26-54,2.62,99,0,485.071306296
GEMS231,2018_Apr_20_1313,George,SF,spatial_frequency,8,6,16,31-30;4-8;26-8;9-39,0,SpatialFrequencyBias,0-0,0,23,training,26-54,25-49;31-57;22-56;24-52;22-52;28-56,22-52,2.44,99,0,491.133291828
GEMS231,2018_Apr_20_1313,George,SF,spatial_frequency,8,6,16,31-30;4-8;26-8;9-39,0,SpatialFrequencyBias,0-0,0,24,training,22-52,21-49;25-50;20-49;17-51;24-52;18-49,20-49,4.23,99,0,498.287081719
GEMS231,2018_Apr_20_1313,George,SF,spatial_frequency,8,6,16,31-30;4-8;26-8;9-39,0,SpatialFrequencyBias,0-0,0,25,training,20-49,19-55;19-49;20-46;14-51;21-44;26-46,21-44,2.82,98,-1,504.28194424
GEMS231,2018_Apr_20_1313,George,SF,spatial_frequency,8,6,16,31-30;4-8;26-8;9-39,0,SpatialFrequencyBias,0-0,0,26,training,21-44,26-50;23-44;14-45;16-48;25-45;23-43,26-50,2.37,100,2,509.607578503
GEMS231,2018_Apr_20_1313,George,SF,spatial_frequency,8,6,16,31-30;4-8;26-8;9-39,0,SpatialFrequencyBias,0-0,0,27,training,26-50,27-45;30-45;30-44;26-45;24-46;19-48,30-45,1.85,99,-1,514.810872251
GEMS231,2018_Apr_20_1313,George,SF,spatial_frequency,8,6,16,31-30;4-8;26-8;9-39,0,SpatialFrequencyBias,0-0,0,28,training,30-45,28-48;30-53;34-42;23-46;26-49;27-51,34-42,2.84,97,-2,521.740995487
GEMS231,2018_Apr_20_1313,George,SF,spatial_frequency,8,6,16,31-30;4-8;26-8;9-39,0,SpatialFrequencyBias,0-0,0,29,training,34-42,31-35;40-45;28-45;29-48;38-39;38-44,31-35,1.82,91,-6,528.029561474
GEMS231,2018_Apr_20_1313,George,SF,spatial_frequency,8,6,16,31-30;4-8;26-8;9-39,1,SimpleHill,31-30,84,0,selected,31-30,37-30;32-25;35-32;30-33;25-31;28-31,25-31,4.7,80,-4,560.550495503
GEMS231,2018_Apr_20_1313,George,SF,spatial_frequency,8,6,16,31-30;4-8;26-8;9-39,1,SimpleHill,31-30,84,1,selected,25-31,32-34;20-27;26-28;25-27;25-34;19-34,25-34,3.97,82,2,568.083511091
GEMS231,2018_Apr_20_1313,George,SF,spatial_frequency,8,6,16,31-30;4-8;26-8;9-39,1,SimpleHill,31-30,84,2,selected,25-34,28-33;24-37;29-36;26-32;23-40;25-32,23-40,5.27,83,1,576.926696969
GEMS231,2018_Apr_20_1313,George,SF,spatial_frequency,8,6,16,31-30;4-8;26-8;9-39,1,SimpleHill,31-30,84,3,selected,23-40,21-38;17-39;24-41;22-45;21-44;25-46,21-38,3.09,80,-3,583.593936814
GEMS231,2018_Apr_20_1313,George,SF,spatial_frequency,8,6,16,31-30;4-8;26-8;9-39,1,SimpleHill,31-30,84,4,selected,21-38,23-37;25-44;26-34;14-36;14-37;23-42,25-44,2.52,86,6,589.687999744
GEMS231,2018_Apr_20_1313,George,SF,spatial_frequency,8,6,16,31-30;4-8;26-8;9-39,1,SimpleHill,31-30,84,5,selected,25-44,28-37;26-44;20-46;23-46;21-43;17-44,21-43,2.06,82,-4,595.330006722
GEMS231,2018_Apr_20_1313,George,SF,spatial_frequency,8,6,16,31-30;4-8;26-8;9-39,1,SimpleHill,31-30,84,6,selected,21-43,28-45;28-44;18-46;20-44;15-46;22-48,28-44,1.17,89,7,600.073657373
GEMS231,2018_Apr_20_1313,George,SF,spatial_frequency,8,6,16,31-30;4-8;26-8;9-39,1,SimpleHill,31-30,84,7,selected,28-44,31-39;26-40;23-48;31-46;26-48;26-51,31-46,2.17,92,3,605.799954867
GEMS231,2018_Apr_20_1313,George,SF,spatial_frequency,8,6,16,31-30;4-8;26-8;9-39,1,SimpleHill,31-30,84,8,selected,31-46,32-53;27-49;30-41;28-43;37-43;30-49,28-43,0.81,89,-3,610.182226881
GEMS231,2018_Apr_20_1313,George,SF,spatial_frequency,8,6,16,31-30;4-8;26-8;9-39,1,SimpleHill,31-30,84,9,selected,28-43,26-36;31-40;32-43;27-50;33-45;22-47,33-45,7.66,93,4,621.421068468
GEMS231,2018_Apr_20_1313,George,SF,spatial_frequency,8,6,16,31-30;4-8;26-8;9-39,1,SimpleHill,31-30,84,10,selected,33-45,36-52;30-44;36-50;32-45;38-49;33-51,30-44,1.1,91,-2,626.092960533
GEMS231,2018_Apr_20_1313,George,SF,spatial_frequency,8,6,16,31-30;4-8;26-8;9-39,1,SimpleHill,31-30,84,11,selected,30-44,26-47;26-44;28-37;27-40;27-47;37-43,26-44,1.89,87,-4,631.546243718
GEMS231,2018_Apr_20_1313,George,SF,spatial_frequency,8,6,16,31-30;4-8;26-8;9-39,1,SimpleHill,31-30,84,12,selected,26-44,28-39;31-47;26-51;20-41;25-49;33-43,20-41,1.17,80,-7,636.292323229
GEMS231,2018_Apr_20_1313,George,SF,spatial_frequency,8,6,16,31-30;4-8;26-8;9-39,1,SimpleHill,31-30,84,13,selected,20-41,21-42;17-36;23-42;21-46;17-43;25-42,21-46,2.45,82,2,642.29541692
GEMS231,2018_Apr_20_1313,George,SF,spatial_frequency,8,6,16,31-30;4-8;26-8;9-39,1,SimpleHill,31-30,84,14,selected,21-46,19-45;15-51;26-41;18-48;26-40;24-47,15-51,1.82,75,-7,647.680020166
GEMS231,2018_Apr_20_1313,George,SF,spatial_frequency,8,6,16,31-30;4-8;26-8;9-39,1,SimpleHill,31-30,84,15,selected,15-51,11-51;9-48;13-56;21-54;12-47;17-46,13-56,1.7,71,-4,652.947541052
GEMS231,2018_Apr_20_1313,George,SF,spatial_frequency,8,6,16,31-30;4-8;26-8;9-39,1,SimpleHill,31-30,84,16,selected,13-56,11-62;13-60;7-60;19-52;9-54;6-59,6-59,1.86,59,-12,658.389285554
GEMS231,2018_Apr_20_1313,George,SF,spatial_frequency,8,6,16,31-30;4-8;26-8;9-39,1,SimpleHill,31-30,84,17,selected,6-59,5-65;11-55;9-57;7-55;4-62;8-63,7-55,1.71,62,3,663.657163343
GEMS231,2018_Apr_20_1313,George,SF,spatial_frequency,8,6,16,31-30;4-8;26-8;9-39,1,SimpleHill,31-30,84,18,selected,7-55,12-50;8-53;5-49;7-60;3-60;5-50,7-60,3.24,61,-1,670.464655741
GEMS231,2018_Apr_20_1313,George,SF,spatial_frequency,8,6,16,31-30;4-8;26-8;9-39,1,SimpleHill,31-30,84,19,selected,7-60,1-62;14-59;6-64;7-58;6-59;4-64,6-64,2.39,57,-4,676.407978298
GEMS231,2018_Apr_20_1313,George,SF,spatial_frequency,8,6,16,31-30;4-8;26-8;9-39,1,SimpleHill,31-30,84,20,selected,6-64,4-58;2-63;5-65;10-60;13-61;8-60,2-63,2.15,50,-7,682.120165167
GEMS231,2018_Apr_20_1313,George,SF,spatial_frequency,8,6,16,31-30;4-8;26-8;9-39,1,SimpleHill,31-30,84,21,selected,2-63,4-66;5-60;1-68;0-65;6-60;0-56,5-60,2.38,57,7,688.072503761
GEMS231,2018_Apr_20_1313,George,SF,spatial_frequency,8,6,16,31-30;4-8;26-8;9-39,1,SimpleHill,31-30,84,22,selected,5-60,8-64;3-58;12-63;7-58;7-66;7-57,8-64,1.32,60,3,692.950267917
GEMS231,2018_Apr_20_1313,George,SF,spatial_frequency,8,6,16,31-30;4-8;26-8;9-39,1,SimpleHill,31-30,84,23,selected,8-64,3-70;5-60;12-60;7-61;15-66;11-62,11-62,1.1,66,6,697.621317499
GEMS231,2018_Apr_20_1313,George,SF,spatial_frequency,8,6,16,31-30;4-8;26-8;9-39,1,SimpleHill,31-30,84,24,selected,11-62,9-57;8-66;9-64;16-68;14-64;19-62,14-64,0.72,70,4,701.883746039
GEMS231,2018_Apr_20_1313,George,SF,spatial_frequency,8,6,16,31-30;4-8;26-8;9-39,1,SimpleHill,31-30,84,25,selected,14-64,15-69;21-64;14-68;20-64;18-69;8-64,20-64,0.66,78,8,706.114958868
GEMS231,2018_Apr_20_1313,George,SF,spatial_frequency,8,6,16,31-30;4-8;26-8;9-39,1,SimpleHill,31-30,84,26,selected,20-64,16-63;23-65;25-69;26-65;20-66;23-61,25-69,0.56,80,2,710.262651964
GEMS231,2018_Apr_20_1313,George,SF,spatial_frequency,8,6,16,31-30;4-8;26-8;9-39,1,SimpleHill,31-30,84,27,selected,25-69,20-69;20-68;31-70;23-64;22-67;23-65,20-68,0.63,75,-5,714.447953971
GEMS231,2018_Apr_20_1313,George,SF,spatial_frequency,8,6,16,31-30;4-8;26-8;9-39,1,SimpleHill,31-30,84,28,selected,20-68,23-66;19-62;17-66;20-67;26-65;26-67,23-66,0.5,80,5,718.505365385
GEMS231,2018_Apr_20_1313,George,SF,spatial_frequency,8,6,16,31-30;4-8;26-8;9-39,1,SimpleHill,31-30,84,29,selected,23-66,21-69;21-68;24-63;23-64;22-65;27-65,27-65,0.5,84,4,722.588273743
GEMS231,2018_Apr_20_1313,George,SF,spatial_frequency,8,6,16,31-30;4-8;26-8;9-39,1,SimpleHill,31-30,84,30,selected,27-65,33-69;25-66;25-59;28-62;29-59;28-60,29-59,0.52,89,5,726.679325246
GEMS231,2018_Apr_20_1313,George,SF,spatial_frequency,8,6,16,31-30;4-8;26-8;9-39,1,SimpleHill,31-30,84,31,selected,29-59,25-58;23-54;36-59;22-56;28-66;35-54,22-56,0.52,83,-6,730.776095515
GEMS231,2018_Apr_20_1313,George,SF,spatial_frequency,8,6,16,31-30;4-8;26-8;9-39,1,SimpleHill,31-30,84,32,selected,22-56,27-50;27-59;21-57;18-61;26-50;20-49,21-57,0.69,82,-1,735.036533722
GEMS231,2018_Apr_20_1313,George,SF,spatial_frequency,8,6,16,31-30;4-8;26-8;9-39,1,SimpleHill,31-30,84,33,selected,21-57,27-53;25-52;15-61;18-51;18-60;22-55,25-52,0.35,87,5,738.965245991
GEMS231,2018_Apr_20_1313,George,SF,spatial_frequency,8,6,16,31-30;4-8;26-8;9-39,1,SimpleHill,31-30,84,34,selected,25-52,22-55;19-47;19-48;18-51;18-49;21-50,22-55,0.82,83,-4,743.345825998
GEMS231,2018_Apr_20_1313,George,SF,spatial_frequency,8,6,16,31-30;4-8;26-8;9-39,1,SimpleHill,31-30,84,35,selected,22-55,19-51;28-56;19-55;26-59;27-61;23-57,28-56,0.24,89,6,747.160267597
GEMS231,2018_Apr_20_1313,George,SF,spatial_frequency,8,6,16,31-30;4-8;26-8;9-39,1,SimpleHill,31-30,84,36,selected,28-56,33-59;24-54;28-63;34-55;26-63;26-56,24-54,0.76,86,-3,751.490703883
GEMS231,2018_Apr_20_1313,George,SF,spatial_frequency,8,6,16,31-30;4-8;26-8;9-39,1,SimpleHill,31-30,84,37,selected,24-54,21-55;17-56;19-53;21-54;23-61;18-53,23-61,0.85,83,-3,755.907791044
GEMS231,2018_Apr_20_1313,George,SF,spatial_frequency,8,6,16,31-30;4-8;26-8;9-39,1,SimpleHill,31-30,84,38,selected,23-61,19-64;23-69;29-61;21-57;16-63;26-55,26-55,0.3,87,4,759.760219903
GEMS231,2018_Apr_20_1313,George,SF,spatial_frequency,8,6,16,31-30;4-8;26-8;9-39,1,SimpleHill,31-30,84,39,selected,26-55,33-54;30-52;24-59;34-55;22-54;20-53,22-54,0.56,84,-3,763.899392465
GEMS231,2018_Apr_20_1313,George,SF,spatial_frequency,8,6,16,31-30;4-8;26-8;9-39,2,SimpleHill,4-8,22,0,selected,4-8,9-11;0-11;0-13;1-10;9-14;1-13,1-10,8.43,19,-3,787.050592811
GEMS231,2018_Apr_20_1313,George,SF,spatial_frequency,8,6,16,31-30;4-8;26-8;9-39,2,SimpleHill,4-8,22,1,selected,1-10,3-10;1-14;0-15;6-16;2-4;6-15,1-14,4.49,26,7,795.095157645
GEMS231,2018_Apr_20_1313,George,SF,spatial_frequency,8,6,16,31-30;4-8;26-8;9-39,2,SimpleHill,4-8,22,2,selected,1-14,1-11;1-8;1-20;9-14;4-13;2-7,2-7,2.31,16,-10,800.985351941
GEMS231,2018_Apr_20_1313,George,SF,spatial_frequency,8,6,16,31-30;4-8;26-8;9-39,2,SimpleHill,4-8,22,3,selected,2-7,2-2;4-14;0-8;9-4;4-2;9-6,4-14,1.14,31,15,805.712718543
GEMS231,2018_Apr_20_1313,George,SF,spatial_frequency,8,6,16,31-30;4-8;26-8;9-39,2,SimpleHill,4-8,22,4,selected,4-14,6-17;6-11;11-16;1-13;5-16;0-16,11-16,2.99,46,15,812.26555488
GEMS231,2018_Apr_20_1313,George,SF,spatial_frequency,8,6,16,31-30;4-8;26-8;9-39,2,SimpleHill,4-8,22,5,selected,11-16,12-22;13-21;12-10;12-15;11-12;14-14,12-22,4.3,55,9,820.12569444
GEMS231,2018_Apr_20_1313,George,SF,spatial_frequency,8,6,16,31-30;4-8;26-8;9-39,2,SimpleHill,4-8,22,6,selected,12-22,15-26;8-27;14-17;10-25;7-18;14-22,14-22,5.78,58,3,829.45243014
GEMS231,2018_Apr_20_1313,George,SF,spatial_frequency,8,6,16,31-30;4-8;26-8;9-39,2,SimpleHill,4-8,22,7,selected,14-22,16-19;18-22;9-27;8-24;18-24;17-18,8-24,1.68,51,-7,834.707280817
GEMS231,2018_Apr_20_1313,George,SF,spatial_frequency,8,6,16,31-30;4-8;26-8;9-39,2,SimpleHill,4-8,22,8,selected,8-24,2-19;10-27;8-24;4-20;15-27;11-18,10-27,2.1,57,6,840.394538587
GEMS231,2018_Apr_20_1313,George,SF,spatial_frequency,8,6,16,31-30;4-8;26-8;9-39,2,SimpleHill,4-8,22,9,selected,10-27,5-28;15-29;16-29;9-27;4-22;10-30,10-30,1.86,60,3,845.830643065
GEMS231,2018_Apr_20_1313,George,SF,spatial_frequency,8,6,16,31-30;4-8;26-8;9-39,2,SimpleHill,4-8,22,10,selected,10-30,11-27;15-24;13-37;15-35;12-37;16-31,15-24,2.09,61,1,851.481534842
GEMS231,2018_Apr_20_1313,George,SF,spatial_frequency,8,6,16,31-30;4-8;26-8;9-39,2,SimpleHill,4-8,22,11,selected,15-24,18-22;8-26;21-29;15-30;20-25;8-23,18-22,1.55,63,2,856.590147883
GEMS231,2018_Apr_20_1313,George,SF,spatial_frequency,8,6,16,31-30;4-8;26-8;9-39,2,SimpleHill,4-8,22,12,selected,18-22,20-26;16-24;22-16;15-15;23-18;18-29,15-15,2.61,51,-12,862.77441119
GEMS231,2018_Apr_20_1313,George,SF,spatial_frequency,8,6,16,31-30;4-8;26-8;9-39,2,SimpleHill,4-8,22,13,selected,15-15,19-18;20-17;22-14;18-22;22-17;12-17,20-17,2.39,60,9,868.746549406
GEMS231,2018_Apr_20_1313,George,SF,spatial_frequency,8,6,16,31-30;4-8;26-8;9-39,2,SimpleHill,4-8,22,14,selected,20-17,19-19;23-10;26-19;25-21;15-15;20-17,19-19,1.06,61,1,873.365864089
GEMS231,2018_Apr_20_1313,George,SF,spatial_frequency,8,6,16,31-30;4-8;26-8;9-39,2,SimpleHill,4-8,22,15,selected,19-19,19-27;24-22;15-13;15-14;21-19;17-12,19-27,2.41,70,9,879.355742134
GEMS231,2018_Apr_20_1313,George,SF,spatial_frequency,8,6,16,31-30;4-8;26-8;9-39,2,SimpleHill,4-8,22,16,selected,19-27,21-27;20-27;12-29;14-29;11-27;19-21,21-27,1.81,72,2,884.753262059
GEMS231,2018_Apr_20_1313,George,SF,spatial_frequency,8,6,16,31-30;4-8;26-8;9-39,2,SimpleHill,4-8,22,17,selected,21-27,16-23;25-28;17-25;27-28;25-23;19-28,16-23,0.9,62,-10,889.220856887
GEMS231,2018_Apr_20_1313,George,SF,spatial_frequency,8,6,16,31-30;4-8;26-8;9-39,2,SimpleHill,4-8,22,18,selected,16-23,18-21;13-30;15-29;11-21;16-28;18-25,11-21,1.71,52,-10,894.517195352
GEMS231,2018_Apr_20_1313,George,SF,spatial_frequency,8,6,16,31-30;4-8;26-8;9-39,2,SimpleHill,4-8,22,19,selected,11-21,8-28;7-21;8-26;4-24;17-22;6-26,7-21,1.04,46,-6,899.127571461
GEMS231,2018_Apr_20_1313,George,SF,spatial_frequency,8,6,16,31-30;4-8;26-8;9-39,2,SimpleHill,4-8,22,20,selected,7-21,0-21;1-19;6-15;8-14;2-23;5-28,6-15,1.38,36,-10,904.080648507
GEMS231,2018_Apr_20_1313,George,SF,spatial_frequency,8,6,16,31-30;4-8;26-8;9-39,2,SimpleHill,4-8,22,21,selected,6-15,1-21;1-15;0-10;3-21;10-19;1-13,1-13,1.2,24,-12,908.8396511
GEMS231,2018_Apr_20_1313,George,SF,spatial_frequency,8,6,16,31-30;4-8;26-8;9-39,2,SimpleHill,4-8,22,22,selected,1-13,6-16;5-9;8-15;1-16;0-14;3-10,1-16,2.01,28,4,914.413007266
GEMS231,2018_Apr_20_1313,George,SF,spatial_frequency,8,6,16,31-30;4-8;26-8;9-39,2,SimpleHill,4-8,22,23,selected,1-16,0-17;4-23;5-19;0-14;1-24;0-16,4-23,1.56,43,15,919.555985084
GEMS231,2018_Apr_20_1313,George,SF,spatial_frequency,8,6,16,31-30;4-8;26-8;9-39,2,SimpleHill,4-8,22,24,selected,4-23,6-19;2-28;2-22;1-25;2-17;6-26,2-28,3.08,44,1,926.191560449
GEMS231,2018_Apr_20_1313,George,SF,spatial_frequency,8,6,16,31-30;4-8;26-8;9-39,2,SimpleHill,4-8,22,25,selected,2-28,7-22;5-29;9-28;4-25;4-32;2-20,5-29,1.01,50,6,930.76506898
GEMS231,2018_Apr_20_1313,George,SF,spatial_frequency,8,6,16,31-30;4-8;26-8;9-39,2,SimpleHill,4-8,22,26,selected,5-29,10-26;11-31;11-34;7-24;0-33;0-28,11-34,1.95,64,14,936.291473384
GEMS231,2018_Apr_20_1313,George,SF,spatial_frequency,8,6,16,31-30;4-8;26-8;9-39,2,SimpleHill,4-8,22,27,selected,11-34,10-31;10-34;14-28;8-39;11-30;10-32,8-39,1.59,62,-2,941.460488781
GEMS231,2018_Apr_20_1313,George,SF,spatial_frequency,8,6,16,31-30;4-8;26-8;9-39,2,SimpleHill,4-8,22,28,selected,8-39,15-39;11-44;10-36;10-35;5-40;3-43,10-35,2.48,63,1,947.499986236
GEMS231,2018_Apr_20_1313,George,SF,spatial_frequency,8,6,16,31-30;4-8;26-8;9-39,2,SimpleHill,4-8,22,29,selected,10-35,7-34;16-31;7-40;7-29;7-37;13-39,7-40,1.45,61,-2,952.532478154
GEMS231,2018_Apr_20_1313,George,SF,spatial_frequency,8,6,16,31-30;4-8;26-8;9-39,2,SimpleHill,4-8,22,30,selected,7-40,7-34;3-42;3-35;10-35;11-35;4-45,3-35,1.42,51,-10,957.523530297
GEMS231,2018_Apr_20_1313,George,SF,spatial_frequency,8,6,16,31-30;4-8;26-8;9-39,2,SimpleHill,4-8,22,31,selected,3-35,2-29;10-35;9-35;3-29;8-33;8-35,10-35,0.44,63,12,961.53104286
GEMS231,2018_Apr_20_1313,George,SF,spatial_frequency,8,6,16,31-30;4-8;26-8;9-39,2,SimpleHill,4-8,22,32,selected,10-35,9-34;7-39;12-31;14-32;15-31;9-36,7-39,0.94,60,-3,966.025935789
GEMS231,2018_Apr_20_1313,George,SF,spatial_frequency,8,6,16,31-30;4-8;26-8;9-39,2,SimpleHill,4-8,22,33,selected,7-39,6-46;2-38;6-39;10-40;14-38;4-45,2-38,0.34,51,-9,969.949810826
GEMS231,2018_Apr_20_1313,George,SF,spatial_frequency,8,6,16,31-30;4-8;26-8;9-39,2,SimpleHill,4-8,22,34,selected,2-38,0-40;4-41;1-36;0-34;6-39;9-41,4-41,0.4,56,5,973.904769053
GEMS231,2018_Apr_20_1313,George,SF,spatial_frequency,8,6,16,31-30;4-8;26-8;9-39,2,SimpleHill,4-8,22,35,selected,4-41,5-43;7-46;5-48;7-37;7-41;4-35,4-35,0.98,53,-3,978.453671137
GEMS231,2018_Apr_20_1313,George,SF,spatial_frequency,8,6,16,31-30;4-8;26-8;9-39,2,SimpleHill,4-8,22,36,selected,4-35,7-28;6-28;7-38;0-39;2-38;8-39,2-38,0.75,51,-2,982.788826542
GEMS231,2018_Apr_20_1313,George,SF,spatial_frequency,8,6,16,31-30;4-8;26-8;9-39,2,SimpleHill,4-8,22,37,selected,2-38,5-42;4-32;1-42;3-33;5-32;6-37,5-42,0.71,58,7,987.074816747
GEMS231,2018_Apr_20_1313,George,SF,spatial_frequency,8,6,16,31-30;4-8;26-8;9-39,2,SimpleHill,4-8,22,38,selected,5-42,7-46;13-42;6-48;3-45;6-44;5-46,3-45,0.65,55,-3,991.300445568
GEMS231,2018_Apr_20_1313,George,SF,spatial_frequency,8,6,16,31-30;4-8;26-8;9-39,2,SimpleHill,4-8,22,39,selected,3-45,2-46;5-48;3-50;1-41;2-51;0-49,5-48,0.43,59,4,995.304876284
GEMS231,2018_Apr_20_1313,George,SF,spatial_frequency,8,6,16,31-30;4-8;26-8;9-39,3,SimpleHill,26-8,53,0,selected,26-8,29-11;23-12;24-2;19-9;28-3;20-3,29-11,2.33,60,7,1011.95245063
GEMS231,2018_Apr_20_1313,George,SF,spatial_frequency,8,6,16,31-30;4-8;26-8;9-39,3,SimpleHill,26-8,53,1,selected,29-11,23-12;29-5;24-6;22-11;32-17;25-8,32-17,2.44,71,11,1017.95328351
GEMS231,2018_Apr_20_1313,George,SF,spatial_frequency,8,6,16,31-30;4-8;26-8;9-39,3,SimpleHill,26-8,53,2,selected,32-17,32-19;38-18;27-15;26-12;33-18;32-11,38-18,3.57,76,5,1025.08910246
GEMS231,2018_Apr_20_1313,George,SF,spatial_frequency,8,6,16,31-30;4-8;26-8;9-39,3,SimpleHill,26-8,53,3,selected,38-18,43-20;40-15;39-17;45-19;37-14;39-23,43-20,1.33,81,5,1029.98968311
GEMS231,2018_Apr_20_1313,George,SF,spatial_frequency,8,6,16,31-30;4-8;26-8;9-39,3,SimpleHill,26-8,53,4,selected,43-20,50-19;44-21;38-19;45-17;43-13;46-18,43-13,3.26,71,-10,1036.80478634
GEMS231,2018_Apr_20_1313,George,SF,spatial_frequency,8,6,16,31-30;4-8;26-8;9-39,3,SimpleHill,26-8,53,5,selected,43-13,45-8;48-19;49-16;49-14;42-15;36-15,48-19,2.22,80,9,1042.60041836
GEMS231,2018_Apr_20_1313,George,SF,spatial_frequency,8,6,16,31-30;4-8;26-8;9-39,3,SimpleHill,26-8,53,6,selected,48-19,47-23;46-20;45-26;41-21;41-20;53-23,53-23,2.26,85,5,1048.41841618
GEMS231,2018_Apr_20_1313,George,SF,spatial_frequency,8,6,16,31-30;4-8;26-8;9-39,3,SimpleHill,26-8,53,7,selected,53-23,52-16;48-22;53-18;55-30;50-24;56-17,56-17,1.31,77,-8,1053.28826318
GEMS231,2018_Apr_20_1313,George,SF,spatial_frequency,8,6,16,31-30;4-8;26-8;9-39,3,SimpleHill,26-8,53,8,selected,56-17,60-19;59-13;50-14;56-12;61-14;54-13,59-13,2.2,71,-6,1059.03740693
GEMS231,2018_Apr_20_1313,George,SF,spatial_frequency,8,6,16,31-30;4-8;26-8;9-39,3,SimpleHill,26-8,53,9,selected,59-13,54-9;56-10;62-19;64-12;65-17;62-6,65-17,1.77,73,2,1064.37902916
GEMS231,2018_Apr_20_1313,George,SF,spatial_frequency,8,6,16,31-30;4-8;26-8;9-39,3,SimpleHill,26-8,53,10,selected,65-17,66-17;66-12;69-23;58-17;67-11;68-23,67-11,0.93,63,-10,1068.87311738
GEMS231,2018_Apr_20_1313,George,SF,spatial_frequency,8,6,16,31-30;4-8;26-8;9-39,3,SimpleHill,26-8,53,11,selected,67-11,69-12;65-10;70-7;68-4;64-17;64-11,64-17,2.51,74,11,1074.95506418
GEMS231,2018_Apr_20_1313,George,SF,spatial_frequency,8,6,16,31-30;4-8;26-8;9-39,3,SimpleHill,26-8,53,12,selected,64-17,70-22;66-12;62-11;68-15;59-12;59-11,70-22,2.45,76,2,1080.97103582
GEMS231,2018_Apr_20_1313,George,SF,spatial_frequency,8,6,16,31-30;4-8;26-8;9-39,3,SimpleHill,26-8,53,13,selected,70-22,65-19;65-20;69-19;64-26;65-24;66-26,65-24,1.36,81,5,1085.89673346
GEMS231,2018_Apr_20_1313,George,SF,spatial_frequency,8,6,16,31-30;4-8;26-8;9-39,3,SimpleHill,26-8,53,14,selected,65-24,68-29;62-29;59-23;64-27;60-26;60-29,64-27,0.78,85,4,1090.25440287
GEMS231,2018_Apr_20_1313,George,SF,spatial_frequency,8,6,16,31-30;4-8;26-8;9-39,3,SimpleHill,26-8,53,15,selected,64-27,64-31;63-21;66-28;57-27;69-33;65-26,65-26,1.33,83,-2,1095.15739413
GEMS231,2018_Apr_20_1313,George,SF,spatial_frequency,8,6,16,31-30;4-8;26-8;9-39,3,SimpleHill,26-8,53,16,selected,65-26,64-23;59-23;66-26;65-31;66-30;69-31,59-23,3.43,83,0,1102.16222432
GEMS231,2018_Apr_20_1313,George,SF,spatial_frequency,8,6,16,31-30;4-8;26-8;9-39,3,SimpleHill,26-8,53,17,selected,59-23,65-21;61-25;56-17;56-26;58-19;57-29,65-21,1.7,78,-5,1107.44097436
GEMS231,2018_Apr_20_1313,George,SF,spatial_frequency,8,6,16,31-30;4-8;26-8;9-39,3,SimpleHill,26-8,53,18,selected,65-21,70-19;66-21;62-22;67-21;62-19;61-27,70-19,2.74,72,-6,1113.75442687
GEMS231,2018_Apr_20_1313,George,SF,spatial_frequency,8,6,16,31-30;4-8;26-8;9-39,3,SimpleHill,26-8,53,19,selected,70-19,63-22;65-23;65-20;65-16;68-16;68-20,68-16,0.82,70,-2,1118.15102045
GEMS231,2018_Apr_20_1313,George,SF,spatial_frequency,8,6,16,31-30;4-8;26-8;9-39,3,SimpleHill,26-8,53,20,selected,68-16,70-20;68-11;66-15;61-15;66-19;67-14,70-20,1.1,74,4,1122.81241093
GEMS231,2018_Apr_20_1313,George,SF,spatial_frequency,8,6,16,31-30;4-8;26-8;9-39,3,SimpleHill,26-8,53,21,selected,70-20,63-17;65-16;67-16;68-19;65-25;65-24,65-25,1.58,83,9,1127.96343075
GEMS231,2018_Apr_20_1313,George,SF,spatial_frequency,8,6,16,31-30;4-8;26-8;9-39,3,SimpleHill,26-8,53,22,selected,65-25,65-28;65-32;64-26;68-31;64-27;64-31,68-31,1.66,86,3,1133.20474153
GEMS231,2018_Apr_20_1313,George,SF,spatial_frequency,8,6,16,31-30;4-8;26-8;9-39,3,SimpleHill,26-8,53,23,selected,68-31,65-38;68-28;68-37;67-32;66-26;64-28,67-32,0.95,87,1,1137.73652284
GEMS231,2018_Apr_20_1313,George,SF,spatial_frequency,8,6,16,31-30;4-8;26-8;9-39,3,SimpleHill,26-8,53,24,selected,67-32,67-38;69-34;63-37;67-32;62-26;70-38,70-38,3.12,89,2,1144.42496239
GEMS231,2018_Apr_20_1313,George,SF,spatial_frequency,8,6,16,31-30;4-8;26-8;9-39,3,SimpleHill,26-8,53,25,selected,70-38,65-42;67-44;69-42;66-44;67-36;65-41,66-44,0.86,94,5,1148.83361864
GEMS231,2018_Apr_20_1313,George,SF,spatial_frequency,8,6,16,31-30;4-8;26-8;9-39,3,SimpleHill,26-8,53,26,selected,66-44,61-40;68-45;59-47;65-42;66-49;68-42,68-45,1.77,93,-1,1154.17202554
GEMS231,2018_Apr_20_1313,George,SF,spatial_frequency,8,6,16,31-30;4-8;26-8;9-39,3,SimpleHill,26-8,53,27,selected,68-45,64-49;69-40;65-51;66-52;70-41;67-44,66-52,0.84,94,1,1158.57656861
GEMS231,2018_Apr_20_1313,George,SF,spatial_frequency,8,6,16,31-30;4-8;26-8;9-39,3,SimpleHill,26-8,53,28,selected,66-52,61-51;61-53;65-45;63-52;64-49;70-50,63-52,0.8,96,2,1162.94688806
GEMS231,2018_Apr_20_1313,George,SF,spatial_frequency,8,6,16,31-30;4-8;26-8;9-39,3,SimpleHill,26-8,53,29,selected,63-52,61-53;66-59;66-56;62-59;60-47;65-56,66-59,2.81,93,-3,1169.32156365
GEMS231,2018_Apr_20_1313,George,SF,spatial_frequency,8,6,16,31-30;4-8;26-8;9-39,3,SimpleHill,26-8,53,30,selected,66-59,67-62;63-56;68-56;65-63;69-65;64-59,64-59,0.94,94,1,1173.82890016
GEMS231,2018_Apr_20_1313,George,SF,spatial_frequency,8,6,16,31-30;4-8;26-8;9-39,3,SimpleHill,26-8,53,31,selected,64-59,68-54;65-60;67-64;65-57;59-57;65-53,65-53,0.8,95,1,1178.1635988
GEMS231,2018_Apr_20_1313,George,SF,spatial_frequency,8,6,16,31-30;4-8;26-8;9-39,3,SimpleHill,26-8,53,32,selected,65-53,69-50;59-53;70-55;64-56;64-48;67-60,64-48,1.29,96,1,1183.01869658
GEMS231,2018_Apr_20_1313,George,SF,spatial_frequency,8,6,16,31-30;4-8;26-8;9-39,3,SimpleHill,26-8,53,33,selected,64-48,61-46;62-52;61-45;65-52;61-48;67-45,67-45,1.33,93,-3,1187.92253801
GEMS231,2018_Apr_20_1313,George,SF,spatial_frequency,8,6,16,31-30;4-8;26-8;9-39,3,SimpleHill,26-8,53,34,selected,67-45,61-48;61-49;61-46;62-41;65-39;69-51,62-41,1.39,95,2,1192.88517909
GEMS231,2018_Apr_20_1313,George,SF,spatial_frequency,8,6,16,31-30;4-8;26-8;9-39,3,SimpleHill,26-8,53,35,selected,62-41,63-34;66-47;59-45;56-37;66-35;56-40,63-34,1.77,91,-4,1198.23644506
GEMS231,2018_Apr_20_1313,George,SF,spatial_frequency,8,6,16,31-30;4-8;26-8;9-39,3,SimpleHill,26-8,53,36,selected,63-34,59-33;67-32;67-38;70-31;58-34;67-34,67-34,1.4,89,-2,1203.22309369
GEMS231,2018_Apr_20_1313,George,SF,spatial_frequency,8,6,16,31-30;4-8;26-8;9-39,3,SimpleHill,26-8,53,37,selected,67-34,68-30;67-39;62-34;61-39;66-29;62-38,66-29,2.17,86,-3,1208.95518901
GEMS231,2018_Apr_20_1313,George,SF,spatial_frequency,8,6,16,31-30;4-8;26-8;9-39,3,SimpleHill,26-8,53,38,selected,66-29,69-26;61-23;66-34;69-34;68-35;60-33,61-23,1.34,83,-3,1213.8671595
GEMS231,2018_Apr_20_1313,George,SF,spatial_frequency,8,6,16,31-30;4-8;26-8;9-39,3,SimpleHill,26-8,53,39,selected,61-23,59-17;68-23;66-21;63-24;67-22;54-21,66-21,1.85,78,-5,1219.27657565
GEMS231,2018_Apr_20_1313,George,SF,spatial_frequency,8,6,16,31-30;4-8;26-8;9-39,4,SimpleHill,9-39,63,0,selected,9-39,14-44;4-39;5-36;9-37;16-39;10-34,10-34,1.51,62,-1,1231.1900861
GEMS231,2018_Apr_20_1313,George,SF,spatial_frequency,8,6,16,31-30;4-8;26-8;9-39,4,SimpleHill,9-39,63,1,selected,10-34,7-40;17-36;6-30;6-34;16-39;4-36,7-40,1.52,61,-1,1236.2796623
GEMS231,2018_Apr_20_1313,George,SF,spatial_frequency,8,6,16,31-30;4-8;26-8;9-39,4,SimpleHill,9-39,63,2,selected,7-40,8-46;9-38;13-41;3-39;10-43;2-38,2-38,0.77,51,-10,1240.60101917
GEMS231,2018_Apr_20_1313,George,SF,spatial_frequency,8,6,16,31-30;4-8;26-8;9-39,4,SimpleHill,9-39,63,3,selected,2-38,0-35;7-43;3-44;3-35;2-30;5-44,2-30,0.78,45,-6,1244.95584872
GEMS231,2018_Apr_20_1313,George,SF,spatial_frequency,8,6,16,31-30;4-8;26-8;9-39,4,SimpleHill,9-39,63,4,selected,2-30,4-31;3-29;9-28;1-25;4-33;3-26,3-29,0.95,47,2,1249.48841522
GEMS231,2018_Apr_20_1313,George,SF,spatial_frequency,8,6,16,31-30;4-8;26-8;9-39,4,SimpleHill,9-39,63,5,selected,3-29,6-24;5-29;5-24;7-25;8-31;0-31,6-24,0.66,47,0,1253.73767549
GEMS231,2018_Apr_20_1313,George,SF,spatial_frequency,8,6,16,31-30;4-8;26-8;9-39,4,SimpleHill,9-39,63,6,selected,6-24,10-26;8-28;9-25;1-20;6-19;5-20,5-20,1.01,41,-6,1258.33086425
GEMS231,2018_Apr_20_1313,George,SF,spatial_frequency,8,6,16,31-30;4-8;26-8;9-39,4,SimpleHill,9-39,63,7,selected,5-20,0-25;8-22;8-23;11-15;9-15;3-23,9-15,0.74,41,0,1262.66947857
GEMS231,2018_Apr_20_1313,George,SF,spatial_frequency,8,6,16,31-30;4-8;26-8;9-39,4,SimpleHill,9-39,63,8,selected,9-15,8-11;14-14;15-20;14-12;15-11;2-17,14-12,2.75,45,4,1268.98874812
GEMS231,2018_Apr_20_1313,George,SF,spatial_frequency,8,6,16,31-30;4-8;26-8;9-39,4,SimpleHill,9-39,63,9,selected,14-12,20-12;8-15;18-7;19-16;15-6;12-12,15-6,2.38,36,-9,1274.95788547
GEMS231,2018_Apr_20_1313,George,SF,spatial_frequency,8,6,16,31-30;4-8;26-8;9-39,4,SimpleHill,9-39,63,10,selected,15-6,9-1;15-13;17-4;17-3;12-13;9-11,9-1,1.01,18,-18,1279.53408726
GEMS231,2018_Apr_20_1313,George,SF,spatial_frequency,8,6,16,31-30;4-8;26-8;9-39,4,SimpleHill,9-39,63,11,selected,9-1,1-1;5-2;3-6;6-2;5-7;8-6,5-2,0.48,13,-5,1283.58134951
GEMS231,2018_Apr_20_1313,George,SF,spatial_frequency,8,6,16,31-30;4-8;26-8;9-39,4,SimpleHill,9-39,63,12,selected,5-2,1-0;3-9;5-4;5-5;5-9;9-0,5-9,1.34,25,12,1288.47065875
GEMS231,2018_Apr_20_1313,George,SF,spatial_frequency,8,6,16,31-30;4-8;26-8;9-39,4,SimpleHill,9-39,63,13,selected,5-9,5-6;6-16;3-15;12-11;2-10;2-16,2-10,1.03,21,-4,1293.07964214
GEMS231,2018_Apr_20_1313,George,SF,spatial_frequency,8,6,16,31-30;4-8;26-8;9-39,4,SimpleHill,9-39,63,14,selected,2-10,0-5;2-18;5-13;1-6;1-14;1-8,1-6,1.65,13,-8,1298.30030825
GEMS231,2018_Apr_20_1313,George,SF,spatial_frequency,8,6,16,31-30;4-8;26-8;9-39,4,SimpleHill,9-39,63,15,selected,1-6,0-3;3-0;3-7;4-11;3-6;0-9,3-6,0.95,17,4,1302.83411511
GEMS231,2018_Apr_20_1313,George,SF,spatial_frequency,8,6,16,31-30;4-8;26-8;9-39,4,SimpleHill,9-39,63,16,selected,3-6,8-6;4-0;6-4;8-5;2-5;6-2,2-5,0.75,13,-4,1307.14646522
GEMS231,2018_Apr_20_1313,George,SF,spatial_frequency,8,6,16,31-30;4-8;26-8;9-39,4,SimpleHill,9-39,63,17,selected,2-5,0-12;5-4;2-4;3-2;2-7;1-0,2-4,0.82,11,-2,1311.53631638
GEMS231,2018_Apr_20_1313,George,SF,spatial_frequency,8,6,16,31-30;4-8;26-8;9-39,4,SimpleHill,9-39,63,18,selected,2-4,0-0;2-11;10-4;4-3;0-1;6-3,2-11,0.82,23,12,1315.93232323
GEMS231,2018_Apr_20_1313,George,SF,spatial_frequency,8,6,16,31-30;4-8;26-8;9-39,4,SimpleHill,9-39,63,19,selected,2-11,2-17;3-7;3-11;2-13;4-15;3-12,2-17,1.17,32,9,1320.68108543
GEMS231,2018_Apr_20_1313,George,SF,spatial_frequency,8,6,16,31-30;4-8;26-8;9-39,4,SimpleHill,9-39,63,20,selected,2-17,4-13;0-15;7-12;0-21;6-21;1-10,6-21,1.42,44,12,1325.66924074
GEMS231,2018_Apr_20_1313,George,SF,spatial_frequency,8,6,16,31-30;4-8;26-8;9-39,4,SimpleHill,9-39,63,21,selected,6-21,11-18;2-19;4-22;0-20;2-15;4-14,0-20,1.5,32,-12,1330.73422394
GEMS231,2018_Apr_20_1313,George,SF,spatial_frequency,8,6,16,31-30;4-8;26-8;9-39,4,SimpleHill,9-39,63,22,selected,0-20,5-21;2-27;1-14;3-22;1-22;5-16,3-22,0.8,40,8,1335.10499728
GEMS231,2018_Apr_20_1313,George,SF,spatial_frequency,8,6,16,31-30;4-8;26-8;9-39,4,SimpleHill,9-39,63,23,selected,3-22,3-14;1-28;4-27;0-19;8-24;1-26,1-28,2.92,42,2,1341.586664
GEMS231,2018_Apr_20_1313,George,SF,spatial_frequency,8,6,16,31-30;4-8;26-8;9-39,4,SimpleHill,9-39,63,24,selected,1-28,5-26;0-28;4-30;5-34;8-27;1-34,5-26,1.0,47,5,1346.14842835
GEMS231,2018_Apr_20_1313,George,SF,spatial_frequency,8,6,16,31-30;4-8;26-8;9-39,4,SimpleHill,9-39,63,25,selected,5-26,1-31;7-19;5-32;0-28;11-23;1-32,11-23,2.69,55,8,1352.39850261
GEMS231,2018_Apr_20_1313,George,SF,spatial_frequency,8,6,16,31-30;4-8;26-8;9-39,4,SimpleHill,9-39,63,26,selected,11-23,4-26;5-22;11-26;6-19;18-24;12-19,6-19,0.71,42,-13,1356.67557505
GEMS231,2018_Apr_20_1313,George,SF,spatial_frequency,8,6,16,31-30;4-8;26-8;9-39,4,SimpleHill,9-39,63,27,selected,6-19,12-20;5-12;11-16;4-13;12-16;14-19,12-20,1.05,53,11,1361.30094811
GEMS231,2018_Apr_20_1313,George,SF,spatial_frequency,8,6,16,31-30;4-8;26-8;9-39,4,SimpleHill,9-39,63,28,selected,12-20,10-26;13-20;11-26;9-25;19-22;11-13,9-25,2.5,53,0,1367.35592139
GEMS231,2018_Apr_20_1313,George,SF,spatial_frequency,8,6,16,31-30;4-8;26-8;9-39,4,SimpleHill,9-39,63,29,selected,9-25,7-19;7-32;13-30;14-28;13-19;8-21,8-21,2.2,47,-6,1373.14132678
GEMS231,2018_Apr_20_1313,George,SF,spatial_frequency,8,6,16,31-30;4-8;26-8;9-39,4,SimpleHill,9-39,63,30,selected,8-21,14-20;5-24;12-25;0-21;4-17;7-19,0-21,0.83,33,-14,1377.56741814
GEMS231,2018_Apr_20_1313,George,SF,spatial_frequency,8,6,16,31-30;4-8;26-8;9-39,4,SimpleHill,9-39,63,31,selected,0-21,6-21;3-20;1-22;3-17;1-28;1-19,3-17,0.58,34,1,1381.72835569
GEMS231,2018_Apr_20_1313,George,SF,spatial_frequency,8,6,16,31-30;4-8;26-8;9-39,4,SimpleHill,9-39,63,32,selected,3-17,3-11;6-16;9-12;10-18;9-17;2-11,6-16,1.9,38,4,1387.20760795
GEMS231,2018_Apr_20_1313,George,SF,spatial_frequency,8,6,16,31-30;4-8;26-8;9-39,4,SimpleHill,9-39,63,33,selected,6-16,12-21;7-14;5-14;2-10;9-17;9-15,12-21,3.48,54,16,1394.27011587
GEMS231,2018_Apr_20_1313,George,SF,spatial_frequency,8,6,16,31-30;4-8;26-8;9-39,4,SimpleHill,9-39,63,34,selected,12-21,9-19;9-14;6-25;18-22;8-24;17-16,8-24,1.83,51,-3,1399.68360232
GEMS231,2018_Apr_20_1313,George,SF,spatial_frequency,8,6,16,31-30;4-8;26-8;9-39,4,SimpleHill,9-39,63,35,selected,8-24,4-23;12-27;6-26;7-20;5-27;14-27,7-20,2.7,45,-6,1405.93879069
GEMS231,2018_Apr_20_1313,George,SF,spatial_frequency,8,6,16,31-30;4-8;26-8;9-39,4,SimpleHill,9-39,63,36,selected,7-20,3-26;9-19;3-18;9-16;9-23;12-18,9-16,0.72,43,-2,1410.22586313
GEMS231,2018_Apr_20_1313,George,SF,spatial_frequency,8,6,16,31-30;4-8;26-8;9-39,4,SimpleHill,9-39,63,37,selected,9-16,10-16;12-15;12-14;8-18;6-20;2-14,10-16,0.69,44,1,1414.47565059
GEMS231,2018_Apr_20_1313,George,SF,spatial_frequency,8,6,16,31-30;4-8;26-8;9-39,4,SimpleHill,9-39,63,38,selected,10-16,4-16;8-13;11-16;18-16;9-11;8-17,4-16,1.04,34,-10,1419.10388912
GEMS231,2018_Apr_20_1313,George,SF,spatial_frequency,8,6,16,31-30;4-8;26-8;9-39,4,SimpleHill,9-39,63,39,selected,4-16,7-17;6-22;3-13;6-18;8-18;10-11,6-18,0.75,40,6,1423.42904036
