subj_id,date,computer,experimenter,instructions,sight_radius,n_gabors,start_pos_list_ix,start_pos_list,landscape_ix,landscape_name,starting_pos,starting_score,trial,feedback,pos,stims,selected,rt,score,delta,exp_time
GEMS239,2018_Apr_24_1548,Kramer,GH,spatial_frequency,8,6,20,15-22;7-24;21-30;25-13,0,SpatialFrequencyBias,0-0,0,0,training,0-0,0-3;5-4;4-6;1-3;5-6;0-8,5-6,6.9,22,22,220.374907693
GEMS239,2018_Apr_24_1548,Kramer,GH,spatial_frequency,8,6,20,15-22;7-24;21-30;25-13,0,SpatialFrequencyBias,0-0,0,1,training,5-6,2-8;10-7;8-6;10-4;3-11;6-3,2-8,3.54,29,7,231.61264647
GEMS239,2018_Apr_24_1548,Kramer,GH,spatial_frequency,8,6,20,15-22;7-24;21-30;25-13,0,SpatialFrequencyBias,0-0,0,2,training,2-8,7-5;3-9;2-11;5-2;8-8;3-4,8-8,3.82,29,0,243.150003345
GEMS239,2018_Apr_24_1548,Kramer,GH,spatial_frequency,8,6,20,15-22;7-24;21-30;25-13,0,SpatialFrequencyBias,0-0,0,3,training,8-8,14-12;7-10;12-8;12-6;2-12;8-11,8-11,8.61,39,10,255.121315055
GEMS239,2018_Apr_24_1548,Kramer,GH,spatial_frequency,8,6,20,15-22;7-24;21-30;25-13,0,SpatialFrequencyBias,0-0,0,4,training,8-11,9-12;0-11;6-7;13-6;8-11;4-9,8-11,4.06,39,0,267.853767345
GEMS239,2018_Apr_24_1548,Kramer,GH,spatial_frequency,8,6,20,15-22;7-24;21-30;25-13,0,SpatialFrequencyBias,0-0,0,5,training,8-11,10-4;13-9;1-12;6-13;2-14;13-10,13-10,6.2,36,-3,276.979184385
GEMS239,2018_Apr_24_1548,Kramer,GH,spatial_frequency,8,6,20,15-22;7-24;21-30;25-13,0,SpatialFrequencyBias,0-0,0,6,training,13-10,14-9;6-13;7-6;7-13;20-7;20-12,20-12,4.96,42,6,284.808801711
GEMS239,2018_Apr_24_1548,Kramer,GH,spatial_frequency,8,6,20,15-22;7-24;21-30;25-13,0,SpatialFrequencyBias,0-0,0,7,training,20-12,18-13;27-14;19-8;23-7;18-18;22-8,18-18,6.69,59,17,299.421030781
GEMS239,2018_Apr_24_1548,Kramer,GH,spatial_frequency,8,6,20,15-22;7-24;21-30;25-13,0,SpatialFrequencyBias,0-0,0,8,training,18-18,22-15;16-21;22-14;14-16;12-18;19-21,16-21,7.31,66,7,309.592686463
GEMS239,2018_Apr_24_1548,Kramer,GH,spatial_frequency,8,6,20,15-22;7-24;21-30;25-13,0,SpatialFrequencyBias,0-0,0,9,training,16-21,10-23;9-20;18-25;13-26;10-20;15-16,18-25,3.31,75,9,316.097361894
GEMS239,2018_Apr_24_1548,Kramer,GH,spatial_frequency,8,6,20,15-22;7-24;21-30;25-13,0,SpatialFrequencyBias,0-0,0,10,training,18-25,16-24;13-24;11-23;13-22;18-25;21-32,21-32,2.31,87,12,322.342764965
GEMS239,2018_Apr_24_1548,Kramer,GH,spatial_frequency,8,6,20,15-22;7-24;21-30;25-13,0,SpatialFrequencyBias,0-0,0,11,training,21-32,22-33;17-30;18-32;23-28;20-34;25-27,20-34,3.2,89,2,328.227344093
GEMS239,2018_Apr_24_1548,Kramer,GH,spatial_frequency,8,6,20,15-22;7-24;21-30;25-13,0,SpatialFrequencyBias,0-0,0,12,training,20-34,17-29;19-38;15-32;21-31;14-35;17-41,17-41,1.95,96,7,332.840580174
GEMS239,2018_Apr_24_1548,Kramer,GH,spatial_frequency,8,6,20,15-22;7-24;21-30;25-13,0,SpatialFrequencyBias,0-0,0,13,training,17-41,14-34;13-47;23-45;22-39;16-42;11-42,13-47,7.8,99,3,342.768918827
GEMS239,2018_Apr_24_1548,Kramer,GH,spatial_frequency,8,6,20,15-22;7-24;21-30;25-13,0,SpatialFrequencyBias,0-0,0,14,training,13-47,16-43;18-45;10-48;18-49;9-45;8-44,18-49,9.33,99,0,354.90119609
GEMS239,2018_Apr_24_1548,Kramer,GH,spatial_frequency,8,6,20,15-22;7-24;21-30;25-13,0,SpatialFrequencyBias,0-0,0,15,training,18-49,19-42;21-46;21-49;17-44;19-49;20-53,20-53,6.77,99,0,365.968553473
GEMS239,2018_Apr_24_1548,Kramer,GH,spatial_frequency,8,6,20,15-22;7-24;21-30;25-13,0,SpatialFrequencyBias,0-0,0,16,training,20-53,20-48;17-46;22-49;20-52;24-59;14-52,24-59,3.19,96,-3,371.553422957
GEMS239,2018_Apr_24_1548,Kramer,GH,spatial_frequency,8,6,20,15-22;7-24;21-30;25-13,0,SpatialFrequencyBias,0-0,0,17,training,24-59,26-54;26-53;26-55;18-57;26-66;30-59,30-59,1.67,96,0,376.493193073
GEMS239,2018_Apr_24_1548,Kramer,GH,spatial_frequency,8,6,20,15-22;7-24;21-30;25-13,0,SpatialFrequencyBias,0-0,0,18,training,30-59,32-53;31-52;31-53;30-55;28-66;25-61,28-66,2.67,89,-7,383.595477029
GEMS239,2018_Apr_24_1548,Kramer,GH,spatial_frequency,8,6,20,15-22;7-24;21-30;25-13,0,SpatialFrequencyBias,0-0,0,19,training,28-66,28-68;35-66;28-65;30-59;26-63;26-60,30-59,1.84,96,7,388.466790884
GEMS239,2018_Apr_24_1548,Kramer,GH,spatial_frequency,8,6,20,15-22;7-24;21-30;25-13,0,SpatialFrequencyBias,0-0,0,20,training,30-59,32-52;30-60;30-67;35-59;33-63;27-65,32-52,3.05,99,3,395.935177749
GEMS239,2018_Apr_24_1548,Kramer,GH,spatial_frequency,8,6,20,15-22;7-24;21-30;25-13,0,SpatialFrequencyBias,0-0,0,21,training,32-52,32-60;27-54;30-59;28-47;30-58;28-49,28-47,1.43,99,0,400.879542473
GEMS239,2018_Apr_24_1548,Kramer,GH,spatial_frequency,8,6,20,15-22;7-24;21-30;25-13,0,SpatialFrequencyBias,0-0,0,22,training,28-47,26-43;24-43;31-44;28-54;33-52;25-43,24-43,1.74,98,-1,405.45487128
GEMS239,2018_Apr_24_1548,Kramer,GH,spatial_frequency,8,6,20,15-22;7-24;21-30;25-13,0,SpatialFrequencyBias,0-0,0,23,training,24-43,25-38;19-39;20-37;21-46;16-43;27-42,20-37,2.09,93,-5,409.947522756
GEMS239,2018_Apr_24_1548,Kramer,GH,spatial_frequency,8,6,20,15-22;7-24;21-30;25-13,0,SpatialFrequencyBias,0-0,0,24,training,20-37,22-43;19-39;18-36;23-44;17-43;15-37,22-43,7.53,98,5,419.984661168
GEMS239,2018_Apr_24_1548,Kramer,GH,spatial_frequency,8,6,20,15-22;7-24;21-30;25-13,0,SpatialFrequencyBias,0-0,0,25,training,22-43,22-45;23-39;28-46;29-44;16-41;23-41,23-39,6.04,95,-3,429.008435398
GEMS239,2018_Apr_24_1548,Kramer,GH,spatial_frequency,8,6,20,15-22;7-24;21-30;25-13,0,SpatialFrequencyBias,0-0,0,26,training,23-39,31-39;19-44;24-38;21-36;20-38;28-37,31-39,2.81,95,0,434.140391928
GEMS239,2018_Apr_24_1548,Kramer,GH,spatial_frequency,8,6,20,15-22;7-24;21-30;25-13,0,SpatialFrequencyBias,0-0,0,27,training,31-39,28-39;24-38;37-39;32-36;30-32;31-43,28-39,2.57,95,0,439.593859282
GEMS239,2018_Apr_24_1548,Kramer,GH,spatial_frequency,8,6,20,15-22;7-24;21-30;25-13,0,SpatialFrequencyBias,0-0,0,28,training,28-39,30-33;24-36;33-41;23-33;28-32;22-35,33-41,6.24,96,1,448.339220901
GEMS239,2018_Apr_24_1548,Kramer,GH,spatial_frequency,8,6,20,15-22;7-24;21-30;25-13,0,SpatialFrequencyBias,0-0,0,29,training,33-41,32-40;30-44;31-40;34-45;30-45;36-35,31-40,4.27,96,0,455.189389766
GEMS239,2018_Apr_24_1548,Kramer,GH,spatial_frequency,8,6,20,15-22;7-24;21-30;25-13,1,SimpleHill,15-22,59,0,selected,15-22,18-23;19-20;21-24;20-21;12-20;14-26,14-26,3.16,62,3,494.19992241
GEMS239,2018_Apr_24_1548,Kramer,GH,spatial_frequency,8,6,20,15-22;7-24;21-30;25-13,1,SimpleHill,15-22,59,1,selected,14-26,7-25;11-26;12-25;17-24;14-20;7-29,7-29,7.28,54,-8,505.044658344
GEMS239,2018_Apr_24_1548,Kramer,GH,spatial_frequency,8,6,20,15-22;7-24;21-30;25-13,1,SimpleHill,15-22,59,2,selected,7-29,1-29;6-27;10-33;4-35;7-35;9-25,10-33,5.42,62,8,514.046252405
GEMS239,2018_Apr_24_1548,Kramer,GH,spatial_frequency,8,6,20,15-22;7-24;21-30;25-13,1,SimpleHill,15-22,59,3,selected,10-33,17-36;16-28;8-39;5-27;14-29;13-40,8-39,2.84,62,0,520.461534325
GEMS239,2018_Apr_24_1548,Kramer,GH,spatial_frequency,8,6,20,15-22;7-24;21-30;25-13,1,SimpleHill,15-22,59,4,selected,8-39,9-42;5-37;3-43;1-40;15-37;7-34,3-43,4.94,54,-8,528.959653622
GEMS239,2018_Apr_24_1548,Kramer,GH,spatial_frequency,8,6,20,15-22;7-24;21-30;25-13,1,SimpleHill,15-22,59,5,selected,3-43,6-39;4-37;6-36;7-43;9-42;1-49,9-42,1.94,65,11,534.464246469
GEMS239,2018_Apr_24_1548,Kramer,GH,spatial_frequency,8,6,20,15-22;7-24;21-30;25-13,1,SimpleHill,15-22,59,6,selected,9-42,7-48;10-35;15-38;9-42;10-40;14-48,10-35,1.79,63,-2,539.817017205
GEMS239,2018_Apr_24_1548,Kramer,GH,spatial_frequency,8,6,20,15-22;7-24;21-30;25-13,1,SimpleHill,15-22,59,7,selected,10-35,4-37;8-36;14-40;4-30;6-33;17-32,14-40,3.05,72,9,546.450329487
GEMS239,2018_Apr_24_1548,Kramer,GH,spatial_frequency,8,6,20,15-22;7-24;21-30;25-13,1,SimpleHill,15-22,59,8,selected,14-40,17-42;13-43;18-46;14-32;21-39;15-43,13-43,4.82,71,-1,554.825599845
GEMS239,2018_Apr_24_1548,Kramer,GH,spatial_frequency,8,6,20,15-22;7-24;21-30;25-13,1,SimpleHill,15-22,59,9,selected,13-43,17-47;7-43;10-48;10-47;15-41;18-45,7-43,5.49,62,-9,563.881330829
GEMS239,2018_Apr_24_1548,Kramer,GH,spatial_frequency,8,6,20,15-22;7-24;21-30;25-13,1,SimpleHill,15-22,59,10,selected,7-43,6-37;13-45;4-42;14-43;9-43;7-40,4-42,2.33,56,-6,569.794071055
GEMS239,2018_Apr_24_1548,Kramer,GH,spatial_frequency,8,6,20,15-22;7-24;21-30;25-13,1,SimpleHill,15-22,59,11,selected,4-42,2-48;4-37;6-35;5-41;10-41;9-44,10-41,2.42,66,10,575.795415763
GEMS239,2018_Apr_24_1548,Kramer,GH,spatial_frequency,8,6,20,15-22;7-24;21-30;25-13,1,SimpleHill,15-22,59,12,selected,10-41,16-40;6-40;9-47;6-37;6-42;11-45,11-45,3.04,69,3,582.425434293
GEMS239,2018_Apr_24_1548,Kramer,GH,spatial_frequency,8,6,20,15-22;7-24;21-30;25-13,1,SimpleHill,15-22,59,13,selected,11-45,7-42;4-46;6-42;9-48;16-41;11-53,11-53,4.74,69,0,590.738295578
GEMS239,2018_Apr_24_1548,Kramer,GH,spatial_frequency,8,6,20,15-22;7-24;21-30;25-13,1,SimpleHill,15-22,59,14,selected,11-53,14-58;18-52;10-51;15-47;15-57;12-46,14-58,4.27,72,3,598.597406227
GEMS239,2018_Apr_24_1548,Kramer,GH,spatial_frequency,8,6,20,15-22;7-24;21-30;25-13,1,SimpleHill,15-22,59,15,selected,14-58,8-54;20-60;16-64;14-61;10-62;13-60,10-62,3.91,65,-7,606.071629658
GEMS239,2018_Apr_24_1548,Kramer,GH,spatial_frequency,8,6,20,15-22;7-24;21-30;25-13,1,SimpleHill,15-22,59,16,selected,10-62,16-63;13-60;14-63;5-57;3-64;17-65,13-60,1.61,70,5,611.23131228
GEMS239,2018_Apr_24_1548,Kramer,GH,spatial_frequency,8,6,20,15-22;7-24;21-30;25-13,1,SimpleHill,15-22,59,17,selected,13-60,12-63;18-60;12-62;10-60;12-55;10-65,12-55,1.73,70,0,616.535361738
GEMS239,2018_Apr_24_1548,Kramer,GH,spatial_frequency,8,6,20,15-22;7-24;21-30;25-13,1,SimpleHill,15-22,59,18,selected,12-55,13-54;17-55;13-57;10-59;14-50;18-50,17-55,1.36,77,7,621.476611642
GEMS239,2018_Apr_24_1548,Kramer,GH,spatial_frequency,8,6,20,15-22;7-24;21-30;25-13,1,SimpleHill,15-22,59,19,selected,17-55,15-62;20-48;11-55;22-51;11-54;11-53,20-48,2.75,81,4,627.811386778
GEMS239,2018_Apr_24_1548,Kramer,GH,spatial_frequency,8,6,20,15-22;7-24;21-30;25-13,1,SimpleHill,15-22,59,20,selected,20-48,19-41;14-45;16-53;16-46;15-45;22-41,16-53,9.39,76,-5,640.757507209
GEMS239,2018_Apr_24_1548,Kramer,GH,spatial_frequency,8,6,20,15-22;7-24;21-30;25-13,1,SimpleHill,15-22,59,21,selected,16-53,10-55;11-55;13-46;17-52;17-48;13-55,17-52,3.71,78,2,648.02803306
GEMS239,2018_Apr_24_1548,Kramer,GH,spatial_frequency,8,6,20,15-22;7-24;21-30;25-13,1,SimpleHill,15-22,59,22,selected,17-52,11-51;12-52;22-55;14-48;20-57;18-56,12-52,1.84,71,-7,653.434344068
GEMS239,2018_Apr_24_1548,Kramer,GH,spatial_frequency,8,6,20,15-22;7-24;21-30;25-13,1,SimpleHill,15-22,59,23,selected,12-52,12-46;16-47;14-59;15-59;9-56;12-44,15-59,4.98,73,2,661.993445786
GEMS239,2018_Apr_24_1548,Kramer,GH,spatial_frequency,8,6,20,15-22;7-24;21-30;25-13,1,SimpleHill,15-22,59,24,selected,15-59,18-53;18-62;11-61;21-62;14-58;22-56,18-62,4.34,76,3,669.910371861
GEMS239,2018_Apr_24_1548,Kramer,GH,spatial_frequency,8,6,20,15-22;7-24;21-30;25-13,1,SimpleHill,15-22,59,25,selected,18-62,12-63;14-68;21-65;19-65;16-65;17-67,21-65,1.56,78,2,675.040644705
GEMS239,2018_Apr_24_1548,Kramer,GH,spatial_frequency,8,6,20,15-22;7-24;21-30;25-13,1,SimpleHill,15-22,59,26,selected,21-65,19-58;25-61;26-68;18-63;25-68;16-66,25-61,3.11,85,7,681.725355839
GEMS239,2018_Apr_24_1548,Kramer,GH,spatial_frequency,8,6,20,15-22;7-24;21-30;25-13,1,SimpleHill,15-22,59,27,selected,25-61,18-58;32-62;28-54;32-61;21-63;22-54,32-62,2.89,90,5,688.172460714
GEMS239,2018_Apr_24_1548,Kramer,GH,spatial_frequency,8,6,20,15-22;7-24;21-30;25-13,1,SimpleHill,15-22,59,28,selected,32-62,34-58;30-65;26-63;32-64;39-65;29-58,30-65,3.19,87,-3,694.941161878
GEMS239,2018_Apr_24_1548,Kramer,GH,spatial_frequency,8,6,20,15-22;7-24;21-30;25-13,1,SimpleHill,15-22,59,29,selected,30-65,33-58;27-65;35-60;23-62;29-58;34-70,35-60,2.5,93,6,701.019789718
GEMS239,2018_Apr_24_1548,Kramer,GH,spatial_frequency,8,6,20,15-22;7-24;21-30;25-13,1,SimpleHill,15-22,59,30,selected,35-60,40-55;33-67;33-59;38-53;30-59;39-66,30-59,6.56,90,-3,711.159402221
GEMS239,2018_Apr_24_1548,Kramer,GH,spatial_frequency,8,6,20,15-22;7-24;21-30;25-13,1,SimpleHill,15-22,59,31,selected,30-59,32-64;36-56;30-55;28-59;35-64;27-57,36-56,1.73,95,5,716.469669156
GEMS239,2018_Apr_24_1548,Kramer,GH,spatial_frequency,8,6,20,15-22;7-24;21-30;25-13,1,SimpleHill,15-22,59,32,selected,36-56,38-51;43-56;43-53;42-51;40-62;35-49,40-62,3.8,95,0,723.844377431
GEMS239,2018_Apr_24_1548,Kramer,GH,spatial_frequency,8,6,20,15-22;7-24;21-30;25-13,1,SimpleHill,15-22,59,33,selected,40-62,38-61;47-59;41-68;35-68;42-68;43-65,43-65,5.61,94,-1,733.023508553
GEMS239,2018_Apr_24_1548,Kramer,GH,spatial_frequency,8,6,20,15-22;7-24;21-30;25-13,1,SimpleHill,15-22,59,34,selected,43-65,43-62;44-69;41-62;44-63;49-61;46-61,44-63,3.79,95,1,740.380415205
GEMS239,2018_Apr_24_1548,Kramer,GH,spatial_frequency,8,6,20,15-22;7-24;21-30;25-13,1,SimpleHill,15-22,59,35,selected,44-63,40-62;48-66;50-63;39-66;37-62;48-64,48-66,4.66,94,-1,748.618062115
GEMS239,2018_Apr_24_1548,Kramer,GH,spatial_frequency,8,6,20,15-22;7-24;21-30;25-13,1,SimpleHill,15-22,59,36,selected,48-66,42-66;48-65;52-66;42-62;53-65;48-60,53-65,2.02,95,1,754.208598197
GEMS239,2018_Apr_24_1548,Kramer,GH,spatial_frequency,8,6,20,15-22;7-24;21-30;25-13,1,SimpleHill,15-22,59,37,selected,53-65,57-63;49-61;56-61;52-61;48-67;58-60,57-63,4.38,95,0,762.157976209
GEMS239,2018_Apr_24_1548,Kramer,GH,spatial_frequency,8,6,20,15-22;7-24;21-30;25-13,1,SimpleHill,15-22,59,38,selected,57-63,60-61;55-67;62-67;54-70;54-68;58-61,54-70,2.94,91,-4,768.648436012
GEMS239,2018_Apr_24_1548,Kramer,GH,spatial_frequency,8,6,20,15-22;7-24;21-30;25-13,1,SimpleHill,15-22,59,39,selected,54-70,50-64;50-70;55-64;49-64;47-69;48-67,47-69,3.23,92,1,775.451258716
GEMS239,2018_Apr_24_1548,Kramer,GH,spatial_frequency,8,6,20,15-22;7-24;21-30;25-13,2,SimpleHill,7-24,49,0,selected,7-24,1-27;6-29;1-22;11-29;10-27;13-22,11-29,4.47,60,11,813.111281756
GEMS239,2018_Apr_24_1548,Kramer,GH,spatial_frequency,8,6,20,15-22;7-24;21-30;25-13,2,SimpleHill,7-24,49,1,selected,11-29,11-32;5-34;14-33;11-26;15-34;11-36,11-32,2.45,63,3,819.111617213
GEMS239,2018_Apr_24_1548,Kramer,GH,spatial_frequency,8,6,20,15-22;7-24;21-30;25-13,2,SimpleHill,7-24,49,2,selected,11-32,11-29;12-34;11-27;18-31;13-37;8-25,18-31,1.64,72,9,824.32135782
GEMS239,2018_Apr_24_1548,Kramer,GH,spatial_frequency,8,6,20,15-22;7-24;21-30;25-13,2,SimpleHill,7-24,49,3,selected,18-31,14-33;20-32;15-36;19-30;15-25;21-33,14-33,4.86,68,-4,832.737346184
GEMS239,2018_Apr_24_1548,Kramer,GH,spatial_frequency,8,6,20,15-22;7-24;21-30;25-13,2,SimpleHill,7-24,49,4,selected,14-33,9-33;17-32;14-29;19-37;17-37;14-37,17-32,1.34,71,3,837.658945289
GEMS239,2018_Apr_24_1548,Kramer,GH,spatial_frequency,8,6,20,15-22;7-24;21-30;25-13,2,SimpleHill,7-24,49,5,selected,17-32,13-29;23-31;22-33;16-28;22-32;20-31,16-28,1.99,67,-4,843.214034968
GEMS239,2018_Apr_24_1548,Kramer,GH,spatial_frequency,8,6,20,15-22;7-24;21-30;25-13,2,SimpleHill,7-24,49,6,selected,16-28,21-31;16-22;14-35;15-34;20-23;18-23,21-31,2.6,75,8,849.366546877
GEMS239,2018_Apr_24_1548,Kramer,GH,spatial_frequency,8,6,20,15-22;7-24;21-30;25-13,2,SimpleHill,7-24,49,7,selected,21-31,15-36;20-32;19-27;21-35;14-28;22-37,19-27,7.18,70,-5,860.116578967
GEMS239,2018_Apr_24_1548,Kramer,GH,spatial_frequency,8,6,20,15-22;7-24;21-30;25-13,2,SimpleHill,7-24,49,8,selected,19-27,14-28;21-20;22-33;15-22;12-26;15-33,14-28,2.83,64,-6,866.515363639
GEMS239,2018_Apr_24_1548,Kramer,GH,spatial_frequency,8,6,20,15-22;7-24;21-30;25-13,2,SimpleHill,7-24,49,9,selected,14-28,19-24;16-32;14-20;17-30;8-32;21-30,8-32,4.61,58,-6,874.711383801
GEMS239,2018_Apr_24_1548,Kramer,GH,spatial_frequency,8,6,20,15-22;7-24;21-30;25-13,2,SimpleHill,7-24,49,10,selected,8-32,14-37;8-39;7-30;6-38;3-32;6-28,7-30,2.93,55,-3,881.200877886
GEMS239,2018_Apr_24_1548,Kramer,GH,spatial_frequency,8,6,20,15-22;7-24;21-30;25-13,2,SimpleHill,7-24,49,11,selected,7-30,5-32;14-30;9-30;7-37;2-32;6-32,7-37,2.5,59,4,887.257491045
GEMS239,2018_Apr_24_1548,Kramer,GH,spatial_frequency,8,6,20,15-22;7-24;21-30;25-13,2,SimpleHill,7-24,49,12,selected,7-37,7-44;8-43;4-37;3-40;5-31;12-38,7-44,2.21,62,3,893.014869897
GEMS239,2018_Apr_24_1548,Kramer,GH,spatial_frequency,8,6,20,15-22;7-24;21-30;25-13,2,SimpleHill,7-24,49,13,selected,7-44,4-38;5-50;12-38;3-48;13-42;6-46,3-48,1.73,55,-7,898.331526838
GEMS239,2018_Apr_24_1548,Kramer,GH,spatial_frequency,8,6,20,15-22;7-24;21-30;25-13,2,SimpleHill,7-24,49,14,selected,3-48,9-49;5-41;6-47;10-45;1-50;8-47,1-50,2.19,51,-4,904.095863221
GEMS239,2018_Apr_24_1548,Kramer,GH,spatial_frequency,8,6,20,15-22;7-24;21-30;25-13,2,SimpleHill,7-24,49,15,selected,1-50,1-57;1-48;0-51;7-49;4-54;3-52,0-51,2.22,49,-2,909.854428016
GEMS239,2018_Apr_24_1548,Kramer,GH,spatial_frequency,8,6,20,15-22;7-24;21-30;25-13,2,SimpleHill,7-24,49,16,selected,0-51,0-54;4-53;5-47;3-51;5-51;1-44,5-51,2.72,59,10,916.146363573
GEMS239,2018_Apr_24_1548,Kramer,GH,spatial_frequency,8,6,20,15-22;7-24;21-30;25-13,2,SimpleHill,7-24,49,17,selected,5-51,8-47;4-51;7-47;5-46;5-43;4-55,5-43,2.1,58,-1,921.836011174
GEMS239,2018_Apr_24_1548,Kramer,GH,spatial_frequency,8,6,20,15-22;7-24;21-30;25-13,2,SimpleHill,7-24,49,18,selected,5-43,8-50;10-40;10-41;2-38;11-47;9-48,8-50,3.98,64,6,929.394845295
GEMS239,2018_Apr_24_1548,Kramer,GH,spatial_frequency,8,6,20,15-22;7-24;21-30;25-13,2,SimpleHill,7-24,49,19,selected,8-50,4-51;8-53;12-54;12-55;9-54;13-46,13-46,5.23,72,8,938.185088683
GEMS239,2018_Apr_24_1548,Kramer,GH,spatial_frequency,8,6,20,15-22;7-24;21-30;25-13,2,SimpleHill,7-24,49,20,selected,13-46,17-50;11-48;15-43;14-48;7-51;13-54,15-43,5.11,74,2,946.886285861
GEMS239,2018_Apr_24_1548,Kramer,GH,spatial_frequency,8,6,20,15-22;7-24;21-30;25-13,2,SimpleHill,7-24,49,21,selected,15-43,18-36;10-42;21-47;17-42;19-48;15-39,18-36,1.48,75,1,951.954406025
GEMS239,2018_Apr_24_1548,Kramer,GH,spatial_frequency,8,6,20,15-22;7-24;21-30;25-13,2,SimpleHill,7-24,49,22,selected,18-36,14-32;16-36;25-34;21-32;14-35;13-35,21-32,5.31,76,1,960.842404701
GEMS239,2018_Apr_24_1548,Kramer,GH,spatial_frequency,8,6,20,15-22;7-24;21-30;25-13,2,SimpleHill,7-24,49,23,selected,21-32,19-30;20-31;27-36;17-35;17-37;22-28,20-31,5.53,74,-2,969.950398467
GEMS239,2018_Apr_24_1548,Kramer,GH,spatial_frequency,8,6,20,15-22;7-24;21-30;25-13,2,SimpleHill,7-24,49,24,selected,20-31,23-33;12-31;22-29;18-31;15-28;18-27,12-31,11.55,63,-11,985.079900528
GEMS239,2018_Apr_24_1548,Kramer,GH,spatial_frequency,8,6,20,15-22;7-24;21-30;25-13,2,SimpleHill,7-24,49,25,selected,12-31,11-25;14-34;7-37;12-32;10-33;14-33,12-32,3.15,64,1,991.79627105
GEMS239,2018_Apr_24_1548,Kramer,GH,spatial_frequency,8,6,20,15-22;7-24;21-30;25-13,2,SimpleHill,7-24,49,26,selected,12-32,13-33;7-31;15-26;10-26;9-29;12-25,13-33,5.07,66,2,1000.43683119
GEMS239,2018_Apr_24_1548,Kramer,GH,spatial_frequency,8,6,20,15-22;7-24;21-30;25-13,2,SimpleHill,7-24,49,27,selected,13-33,13-39;15-38;10-34;10-35;9-39;14-34,9-39,2.7,63,-3,1006.71099265
GEMS239,2018_Apr_24_1548,Kramer,GH,spatial_frequency,8,6,20,15-22;7-24;21-30;25-13,2,SimpleHill,7-24,49,28,selected,9-39,2-39;12-42;2-42;11-36;14-34;9-47,12-42,1.65,69,6,1011.92299151
GEMS239,2018_Apr_24_1548,Kramer,GH,spatial_frequency,8,6,20,15-22;7-24;21-30;25-13,2,SimpleHill,7-24,49,29,selected,12-42,5-42;11-42;15-43;7-47;7-37;14-36,5-42,4.77,58,-11,1020.25410927
GEMS239,2018_Apr_24_1548,Kramer,GH,spatial_frequency,8,6,20,15-22;7-24;21-30;25-13,2,SimpleHill,7-24,49,30,selected,5-42,3-35;12-42;6-35;11-40;4-44;10-47,4-44,1.81,56,-2,1025.6301885
GEMS239,2018_Apr_24_1548,Kramer,GH,spatial_frequency,8,6,20,15-22;7-24;21-30;25-13,2,SimpleHill,7-24,49,31,selected,4-44,10-49;10-40;8-44;4-36;4-40;6-38,10-40,1.98,66,10,1031.18145307
GEMS239,2018_Apr_24_1548,Kramer,GH,spatial_frequency,8,6,20,15-22;7-24;21-30;25-13,2,SimpleHill,7-24,49,32,selected,10-40,5-38;11-36;12-39;18-40;10-37;11-47,11-47,3.73,69,3,1038.49269757
GEMS239,2018_Apr_24_1548,Kramer,GH,spatial_frequency,8,6,20,15-22;7-24;21-30;25-13,2,SimpleHill,7-24,49,33,selected,11-47,11-47;4-45;19-47;12-42;14-43;12-43,11-47,2.14,69,0,1044.21699582
GEMS239,2018_Apr_24_1548,Kramer,GH,spatial_frequency,8,6,20,15-22;7-24;21-30;25-13,2,SimpleHill,7-24,49,34,selected,11-47,10-48;15-45;11-50;8-41;11-49;14-50,11-50,1.38,69,0,1049.15105901
GEMS239,2018_Apr_24_1548,Kramer,GH,spatial_frequency,8,6,20,15-22;7-24;21-30;25-13,2,SimpleHill,7-24,49,35,selected,11-50,7-50;15-52;12-52;18-53;4-49;13-57,4-49,2.29,57,-12,1055.00753402
GEMS239,2018_Apr_24_1548,Kramer,GH,spatial_frequency,8,6,20,15-22;7-24;21-30;25-13,2,SimpleHill,7-24,49,36,selected,4-49,10-46;0-51;7-55;4-47;5-55;8-49,0-51,1.67,49,-8,1060.23971599
GEMS239,2018_Apr_24_1548,Kramer,GH,spatial_frequency,8,6,20,15-22;7-24;21-30;25-13,2,SimpleHill,7-24,49,37,selected,0-51,1-45;6-50;1-53;3-44;2-56;2-54,3-44,0.93,55,6,1064.73488819
GEMS239,2018_Apr_24_1548,Kramer,GH,spatial_frequency,8,6,20,15-22;7-24;21-30;25-13,2,SimpleHill,7-24,49,38,selected,3-44,4-40;7-39;6-38;6-39;9-48;3-45,4-40,9.48,55,0,1077.78715546
GEMS239,2018_Apr_24_1548,Kramer,GH,spatial_frequency,8,6,20,15-22;7-24;21-30;25-13,2,SimpleHill,7-24,49,39,selected,4-40,4-46;7-45;3-47;0-35;4-41;10-45,4-41,3.02,56,1,1084.38308574
GEMS239,2018_Apr_24_1548,Kramer,GH,spatial_frequency,8,6,20,15-22;7-24;21-30;25-13,3,SimpleHill,21-30,75,0,selected,21-30,18-29;21-36;18-36;26-33;20-25;24-35,18-36,4.52,75,0,1101.57846539
GEMS239,2018_Apr_24_1548,Kramer,GH,spatial_frequency,8,6,20,15-22;7-24;21-30;25-13,3,SimpleHill,21-30,75,1,selected,18-36,17-37;16-32;22-35;17-40;19-29;13-30,17-40,2.05,76,1,1107.20435633
GEMS239,2018_Apr_24_1548,Kramer,GH,spatial_frequency,8,6,20,15-22;7-24;21-30;25-13,3,SimpleHill,21-30,75,2,selected,17-40,23-43;13-43;15-40;22-36;10-43;16-38,13-43,10.44,71,-5,1121.2150311
GEMS239,2018_Apr_24_1548,Kramer,GH,spatial_frequency,8,6,20,15-22;7-24;21-30;25-13,3,SimpleHill,21-30,75,3,selected,13-43,8-43;9-41;10-47;10-44;19-44;17-44,10-44,1.74,67,-4,1126.54207696
GEMS239,2018_Apr_24_1548,Kramer,GH,spatial_frequency,8,6,20,15-22;7-24;21-30;25-13,3,SimpleHill,21-30,75,4,selected,10-44,14-41;10-36;4-45;7-44;5-48;4-43,14-41,2.01,72,5,1132.11679983
GEMS239,2018_Apr_24_1548,Kramer,GH,spatial_frequency,8,6,20,15-22;7-24;21-30;25-13,3,SimpleHill,21-30,75,5,selected,14-41,19-35;8-37;7-41;7-44;16-46;16-40,7-41,3.84,61,-11,1139.5293376
GEMS239,2018_Apr_24_1548,Kramer,GH,spatial_frequency,8,6,20,15-22;7-24;21-30;25-13,3,SimpleHill,21-30,75,6,selected,7-41,2-47;13-38;10-34;10-39;12-42;13-40,2-47,1.7,53,-8,1144.81881901
GEMS239,2018_Apr_24_1548,Kramer,GH,spatial_frequency,8,6,20,15-22;7-24;21-30;25-13,3,SimpleHill,21-30,75,7,selected,2-47,2-49;1-43;5-46;4-48;4-49;7-52,4-49,0.52,57,4,1148.91090514
GEMS239,2018_Apr_24_1548,Kramer,GH,spatial_frequency,8,6,20,15-22;7-24;21-30;25-13,3,SimpleHill,21-30,75,8,selected,4-49,8-53;2-54;1-43;2-53;2-46;4-57,8-53,5.84,64,7,1158.31509617
GEMS239,2018_Apr_24_1548,Kramer,GH,spatial_frequency,8,6,20,15-22;7-24;21-30;25-13,3,SimpleHill,21-30,75,9,selected,8-53,11-51;10-53;3-47;11-53;15-56;5-46,11-51,4.03,69,5,1165.90954474
GEMS239,2018_Apr_24_1548,Kramer,GH,spatial_frequency,8,6,20,15-22;7-24;21-30;25-13,3,SimpleHill,21-30,75,10,selected,11-51,17-52;9-54;8-52;12-50;9-47;11-57,12-50,1.58,71,2,1171.06012393
GEMS239,2018_Apr_24_1548,Kramer,GH,spatial_frequency,8,6,20,15-22;7-24;21-30;25-13,3,SimpleHill,21-30,75,11,selected,12-50,18-46;11-48;19-53;12-53;5-48;20-50,20-50,2.57,82,11,1177.2105386
GEMS239,2018_Apr_24_1548,Kramer,GH,spatial_frequency,8,6,20,15-22;7-24;21-30;25-13,3,SimpleHill,21-30,75,12,selected,20-50,24-55;27-48;16-45;19-51;16-56;14-49,19-51,5.37,80,-2,1186.14332269
GEMS239,2018_Apr_24_1548,Kramer,GH,spatial_frequency,8,6,20,15-22;7-24;21-30;25-13,3,SimpleHill,21-30,75,13,selected,19-51,23-53;20-47;20-49;19-45;15-50;22-57,22-57,3.1,83,3,1192.8369484
GEMS239,2018_Apr_24_1548,Kramer,GH,spatial_frequency,8,6,20,15-22;7-24;21-30;25-13,3,SimpleHill,21-30,75,14,selected,22-57,26-55;16-59;19-56;20-61;24-63;28-53,19-56,3.64,80,-3,1200.02249706
GEMS239,2018_Apr_24_1548,Kramer,GH,spatial_frequency,8,6,20,15-22;7-24;21-30;25-13,3,SimpleHill,21-30,75,15,selected,19-56,22-52;15-53;23-59;21-61;18-53;14-62,15-53,3.95,75,-5,1207.53933121
GEMS239,2018_Apr_24_1548,Kramer,GH,spatial_frequency,8,6,20,15-22;7-24;21-30;25-13,3,SimpleHill,21-30,75,16,selected,15-53,20-55;14-56;17-55;21-51;18-53;15-54,14-56,10.24,73,-2,1221.34444961
GEMS239,2018_Apr_24_1548,Kramer,GH,spatial_frequency,8,6,20,15-22;7-24;21-30;25-13,3,SimpleHill,21-30,75,17,selected,14-56,22-56;10-55;13-58;13-52;7-53;13-54,13-52,1.15,72,-1,1226.05027117
GEMS239,2018_Apr_24_1548,Kramer,GH,spatial_frequency,8,6,20,15-22;7-24;21-30;25-13,3,SimpleHill,21-30,75,18,selected,13-52,14-48;18-53;12-55;7-47;18-56;18-50,18-56,3.84,78,6,1233.47206697
GEMS239,2018_Apr_24_1548,Kramer,GH,spatial_frequency,8,6,20,15-22;7-24;21-30;25-13,3,SimpleHill,21-30,75,19,selected,18-56,23-59;21-63;14-61;15-62;15-54;16-55,23-59,1.87,83,5,1238.91899323
GEMS239,2018_Apr_24_1548,Kramer,GH,spatial_frequency,8,6,20,15-22;7-24;21-30;25-13,3,SimpleHill,21-30,75,20,selected,23-59,29-63;26-52;30-57;30-61;27-57;21-60,30-57,1.47,91,8,1243.96038151
GEMS239,2018_Apr_24_1548,Kramer,GH,spatial_frequency,8,6,20,15-22;7-24;21-30;25-13,3,SimpleHill,21-30,75,21,selected,30-57,27-52;34-55;33-59;31-59;24-62;28-60,28-60,5.82,88,-3,1253.33933357
GEMS239,2018_Apr_24_1548,Kramer,GH,spatial_frequency,8,6,20,15-22;7-24;21-30;25-13,3,SimpleHill,21-30,75,22,selected,28-60,33-62;35-62;34-61;23-64;33-64;29-58,23-64,8.79,81,-7,1265.69770753
GEMS239,2018_Apr_24_1548,Kramer,GH,spatial_frequency,8,6,20,15-22;7-24;21-30;25-13,3,SimpleHill,21-30,75,23,selected,23-64,17-68;25-57;20-60;20-66;26-64;23-67,25-57,3.46,86,5,1272.72941365
GEMS239,2018_Apr_24_1548,Kramer,GH,spatial_frequency,8,6,20,15-22;7-24;21-30;25-13,3,SimpleHill,21-30,75,24,selected,25-57,23-63;22-54;21-62;23-54;24-52;21-57,23-63,4.83,82,-4,1281.14086759
GEMS239,2018_Apr_24_1548,Kramer,GH,spatial_frequency,8,6,20,15-22;7-24;21-30;25-13,3,SimpleHill,21-30,75,25,selected,23-63,20-68;26-69;18-69;17-61;27-67;21-63,17-61,3.47,75,-7,1288.17480091
GEMS239,2018_Apr_24_1548,Kramer,GH,spatial_frequency,8,6,20,15-22;7-24;21-30;25-13,3,SimpleHill,21-30,75,26,selected,17-61,18-60;11-63;17-69;24-59;12-63;19-55,11-63,2.82,66,-9,1294.56899994
GEMS239,2018_Apr_24_1548,Kramer,GH,spatial_frequency,8,6,20,15-22;7-24;21-30;25-13,3,SimpleHill,21-30,75,27,selected,11-63,12-59;11-69;12-61;10-68;18-66;14-63,14-63,8.12,70,4,1306.25392105
GEMS239,2018_Apr_24_1548,Kramer,GH,spatial_frequency,8,6,20,15-22;7-24;21-30;25-13,3,SimpleHill,21-30,75,28,selected,14-63,18-68;11-58;17-67;15-56;19-66;21-62,18-68,8.18,73,3,1317.979919
GEMS239,2018_Apr_24_1548,Kramer,GH,spatial_frequency,8,6,20,15-22;7-24;21-30;25-13,3,SimpleHill,21-30,75,29,selected,18-68,16-64;17-63;17-66;23-65;12-64;17-62,17-63,1.53,74,1,1323.06103364
GEMS239,2018_Apr_24_1548,Kramer,GH,spatial_frequency,8,6,20,15-22;7-24;21-30;25-13,3,SimpleHill,21-30,75,30,selected,17-63,23-61;11-68;16-67;21-69;12-67;15-67,21-69,4.62,75,1,1331.22664021
GEMS239,2018_Apr_24_1548,Kramer,GH,spatial_frequency,8,6,20,15-22;7-24;21-30;25-13,3,SimpleHill,21-30,75,31,selected,21-69,14-70;23-65;28-66;27-66;23-69;28-67,14-70,3.5,66,-9,1338.28755989
GEMS239,2018_Apr_24_1548,Kramer,GH,spatial_frequency,8,6,20,15-22;7-24;21-30;25-13,3,SimpleHill,21-30,75,32,selected,14-70,10-69;15-67;11-69;12-70;19-65;21-68,11-69,1.85,62,-4,1343.71660099
GEMS239,2018_Apr_24_1548,Kramer,GH,spatial_frequency,8,6,20,15-22;7-24;21-30;25-13,3,SimpleHill,21-30,75,33,selected,11-69,9-70;17-65;16-64;12-63;9-66;13-69,13-69,3.2,65,3,1350.48438189
GEMS239,2018_Apr_24_1548,Kramer,GH,spatial_frequency,8,6,20,15-22;7-24;21-30;25-13,3,SimpleHill,21-30,75,34,selected,13-69,8-64;10-68;18-66;9-67;8-67;10-67,10-68,6.93,61,-4,1360.9898313
GEMS239,2018_Apr_24_1548,Kramer,GH,spatial_frequency,8,6,20,15-22;7-24;21-30;25-13,3,SimpleHill,21-30,75,35,selected,10-68,2-68;10-70;14-68;6-67;8-67;9-64,14-68,1.03,67,6,1365.5706641
GEMS239,2018_Apr_24_1548,Kramer,GH,spatial_frequency,8,6,20,15-22;7-24;21-30;25-13,3,SimpleHill,21-30,75,36,selected,14-68,21-65;14-63;14-64;10-64;13-66;12-62,21-65,3.12,78,11,1372.27472707
GEMS239,2018_Apr_24_1548,Kramer,GH,spatial_frequency,8,6,20,15-22;7-24;21-30;25-13,3,SimpleHill,21-30,75,37,selected,21-65,18-68;27-62;22-58;21-63;18-61;19-64,22-58,3.67,83,5,1379.50728707
GEMS239,2018_Apr_24_1548,Kramer,GH,spatial_frequency,8,6,20,15-22;7-24;21-30;25-13,3,SimpleHill,21-30,75,38,selected,22-58,22-52;16-58;27-58;27-54;23-57;19-63,19-63,2.6,77,-6,1385.67244327
GEMS239,2018_Apr_24_1548,Kramer,GH,spatial_frequency,8,6,20,15-22;7-24;21-30;25-13,3,SimpleHill,21-30,75,39,selected,19-63,20-61;24-63;21-68;14-59;14-64;16-57,14-64,1.69,70,-7,1390.93152165
GEMS239,2018_Apr_24_1548,Kramer,GH,spatial_frequency,8,6,20,15-22;7-24;21-30;25-13,4,SimpleHill,25-13,60,0,selected,25-13,24-14;28-15;26-14;27-15;29-17;18-16,27-15,5.27,64,4,1416.08231018
GEMS239,2018_Apr_24_1548,Kramer,GH,spatial_frequency,8,6,20,15-22;7-24;21-30;25-13,4,SimpleHill,25-13,60,1,selected,27-15,31-9;31-18;21-15;22-20;22-13;32-9,22-13,3.78,56,-8,1423.43262357
GEMS239,2018_Apr_24_1548,Kramer,GH,spatial_frequency,8,6,20,15-22;7-24;21-30;25-13,4,SimpleHill,25-13,60,2,selected,22-13,21-11;24-9;20-17;28-15;27-15;17-16,20-17,13.02,60,4,1440.02177237
GEMS239,2018_Apr_24_1548,Kramer,GH,spatial_frequency,8,6,20,15-22;7-24;21-30;25-13,4,SimpleHill,25-13,60,3,selected,20-17,25-23;15-22;25-19;26-14;16-11;18-19,26-14,3.69,62,2,1447.27013502
GEMS239,2018_Apr_24_1548,Kramer,GH,spatial_frequency,8,6,20,15-22;7-24;21-30;25-13,4,SimpleHill,25-13,60,4,selected,26-14,24-12;28-21;22-19;33-13;26-22;32-9,33-13,4.81,66,4,1455.64195382
GEMS239,2018_Apr_24_1548,Kramer,GH,spatial_frequency,8,6,20,15-22;7-24;21-30;25-13,4,SimpleHill,25-13,60,5,selected,33-13,36-16;28-10;27-18;37-13;27-11;35-11,36-16,5.36,72,6,1464.57475072
GEMS239,2018_Apr_24_1548,Kramer,GH,spatial_frequency,8,6,20,15-22;7-24;21-30;25-13,4,SimpleHill,25-13,60,6,selected,36-16,37-23;42-13;41-13;36-20;43-14;34-11,42-13,2.53,71,-1,1470.68452708
GEMS239,2018_Apr_24_1548,Kramer,GH,spatial_frequency,8,6,20,15-22;7-24;21-30;25-13,4,SimpleHill,25-13,60,7,selected,42-13,38-16;35-15;41-16;39-15;46-16;35-11,46-16,14.96,76,5,1489.21645327
GEMS239,2018_Apr_24_1548,Kramer,GH,spatial_frequency,8,6,20,15-22;7-24;21-30;25-13,4,SimpleHill,25-13,60,8,selected,46-16,49-20;49-13;44-23;47-11;44-16;51-17,44-16,3.86,76,0,1496.64838352
GEMS239,2018_Apr_24_1548,Kramer,GH,spatial_frequency,8,6,20,15-22;7-24;21-30;25-13,4,SimpleHill,25-13,60,9,selected,44-16,44-13;37-17;38-21;48-11;40-13;44-14,37-17,1.1,74,-2,1501.30932906
GEMS239,2018_Apr_24_1548,Kramer,GH,spatial_frequency,8,6,20,15-22;7-24;21-30;25-13,4,SimpleHill,25-13,60,10,selected,37-17,31-18;44-20;42-11;35-23;31-13;39-12,31-13,6.98,65,-9,1511.86032604
GEMS239,2018_Apr_24_1548,Kramer,GH,spatial_frequency,8,6,20,15-22;7-24;21-30;25-13,4,SimpleHill,25-13,60,11,selected,31-13,24-10;34-10;33-17;35-13;24-16;29-7,33-17,1.38,72,7,1516.82124019
GEMS239,2018_Apr_24_1548,Kramer,GH,spatial_frequency,8,6,20,15-22;7-24;21-30;25-13,4,SimpleHill,25-13,60,12,selected,33-17,35-18;29-21;40-20;33-10;40-19;28-23,35-18,3.52,75,3,1523.91074253
GEMS239,2018_Apr_24_1548,Kramer,GH,spatial_frequency,8,6,20,15-22;7-24;21-30;25-13,4,SimpleHill,25-13,60,13,selected,35-18,37-13;34-20;35-15;41-17;40-23;31-24,35-15,8.31,71,-4,1535.79546282
GEMS239,2018_Apr_24_1548,Kramer,GH,spatial_frequency,8,6,20,15-22;7-24;21-30;25-13,4,SimpleHill,25-13,60,14,selected,35-15,38-10;31-12;40-11;30-16;35-20;28-16,30-16,5.67,68,-3,1545.03266064
GEMS239,2018_Apr_24_1548,Kramer,GH,spatial_frequency,8,6,20,15-22;7-24;21-30;25-13,4,SimpleHill,25-13,60,15,selected,30-16,29-19;31-16;27-17;38-16;28-13;28-22,31-16,1.11,69,1,1549.7081912
GEMS239,2018_Apr_24_1548,Kramer,GH,spatial_frequency,8,6,20,15-22;7-24;21-30;25-13,4,SimpleHill,25-13,60,16,selected,31-16,31-13;37-20;34-18;26-19;28-11;34-12,34-18,3.94,74,5,1557.21402921
GEMS239,2018_Apr_24_1548,Kramer,GH,spatial_frequency,8,6,20,15-22;7-24;21-30;25-13,4,SimpleHill,25-13,60,17,selected,34-18,38-21;34-25;28-13;39-19;41-18;35-17,41-18,3.96,77,3,1564.73665286
GEMS239,2018_Apr_24_1548,Kramer,GH,spatial_frequency,8,6,20,15-22;7-24;21-30;25-13,4,SimpleHill,25-13,60,18,selected,41-18,43-12;43-25;45-18;45-17;42-15;40-17,45-18,9.15,79,2,1577.46068864
GEMS239,2018_Apr_24_1548,Kramer,GH,spatial_frequency,8,6,20,15-22;7-24;21-30;25-13,4,SimpleHill,25-13,60,19,selected,45-18,52-19;43-18;47-14;41-24;45-12;44-11,43-18,7.88,78,-1,1588.9049847
GEMS239,2018_Apr_24_1548,Kramer,GH,spatial_frequency,8,6,20,15-22;7-24;21-30;25-13,4,SimpleHill,25-13,60,20,selected,43-18,41-24;40-23;38-16;45-18;42-19;39-22,38-16,1.61,74,-4,1594.08558057
GEMS239,2018_Apr_24_1548,Kramer,GH,spatial_frequency,8,6,20,15-22;7-24;21-30;25-13,4,SimpleHill,25-13,60,21,selected,38-16,44-15;38-21;44-19;31-13;39-11;36-17,44-15,1.61,74,0,1599.26784316
GEMS239,2018_Apr_24_1548,Kramer,GH,spatial_frequency,8,6,20,15-22;7-24;21-30;25-13,4,SimpleHill,25-13,60,22,selected,44-15,41-16;43-17;41-18;42-19;46-22;46-11,43-17,3.3,77,3,1606.12282781
GEMS239,2018_Apr_24_1548,Kramer,GH,spatial_frequency,8,6,20,15-22;7-24;21-30;25-13,4,SimpleHill,25-13,60,23,selected,43-17,36-15;48-14;36-17;43-16;44-20;37-17,48-14,3.4,74,-3,1613.08878245
GEMS239,2018_Apr_24_1548,Kramer,GH,spatial_frequency,8,6,20,15-22;7-24;21-30;25-13,4,SimpleHill,25-13,60,24,selected,48-14,53-16;49-13;41-16;49-18;45-9;52-18,41-16,1.04,75,1,1617.70441859
GEMS239,2018_Apr_24_1548,Kramer,GH,spatial_frequency,8,6,20,15-22;7-24;21-30;25-13,4,SimpleHill,25-13,60,25,selected,41-16,38-13;43-14;42-10;45-10;47-13;41-22,43-14,4.57,73,-2,1625.83775152
GEMS239,2018_Apr_24_1548,Kramer,GH,spatial_frequency,8,6,20,15-22;7-24;21-30;25-13,4,SimpleHill,25-13,60,26,selected,43-14,38-12;41-16;49-14;48-12;48-11;47-13,47-13,2.55,72,-1,1631.96134531
GEMS239,2018_Apr_24_1548,Kramer,GH,spatial_frequency,8,6,20,15-22;7-24;21-30;25-13,4,SimpleHill,25-13,60,27,selected,47-13,42-18;50-15;51-18;42-14;45-19;45-12,51-18,1.02,79,7,1636.5483671
GEMS239,2018_Apr_24_1548,Kramer,GH,spatial_frequency,8,6,20,15-22;7-24;21-30;25-13,4,SimpleHill,25-13,60,28,selected,51-18,55-15;47-14;58-15;56-16;56-20;57-15,58-15,0.97,74,-5,1641.08274647
GEMS239,2018_Apr_24_1548,Kramer,GH,spatial_frequency,8,6,20,15-22;7-24;21-30;25-13,4,SimpleHill,25-13,60,29,selected,58-15,56-21;57-14;59-14;60-12;51-18;65-13,57-14,5.25,73,-1,1649.89445718
GEMS239,2018_Apr_24_1548,Kramer,GH,spatial_frequency,8,6,20,15-22;7-24;21-30;25-13,4,SimpleHill,25-13,60,30,selected,57-14,58-8;55-12;54-12;62-17;56-10;59-14,62-17,1.09,75,2,1654.54671062
GEMS239,2018_Apr_24_1548,Kramer,GH,spatial_frequency,8,6,20,15-22;7-24;21-30;25-13,4,SimpleHill,25-13,60,31,selected,62-17,60-12;63-20;59-10;59-20;58-23;64-21,59-10,1.98,66,-9,1660.08668521
GEMS239,2018_Apr_24_1548,Kramer,GH,spatial_frequency,8,6,20,15-22;7-24;21-30;25-13,4,SimpleHill,25-13,60,32,selected,59-10,53-13;64-14;61-7;64-9;56-7;57-6,53-13,0.72,72,6,1664.37680552
GEMS239,2018_Apr_24_1548,Kramer,GH,spatial_frequency,8,6,20,15-22;7-24;21-30;25-13,4,SimpleHill,25-13,60,33,selected,53-13,49-19;57-9;56-17;60-11;52-18;50-17,56-17,1.19,77,5,1669.1355182
GEMS239,2018_Apr_24_1548,Kramer,GH,spatial_frequency,8,6,20,15-22;7-24;21-30;25-13,4,SimpleHill,25-13,60,34,selected,56-17,55-13;58-21;52-21;51-12;62-20;58-13,55-13,1.77,72,-5,1674.46946942
GEMS239,2018_Apr_24_1548,Kramer,GH,spatial_frequency,8,6,20,15-22;7-24;21-30;25-13,4,SimpleHill,25-13,60,35,selected,55-13,56-15;57-18;62-11;59-15;56-16;62-10,57-18,0.82,78,6,1678.85261981
GEMS239,2018_Apr_24_1548,Kramer,GH,spatial_frequency,8,6,20,15-22;7-24;21-30;25-13,4,SimpleHill,25-13,60,36,selected,57-18,63-19;59-18;51-19;57-24;56-18;56-21,59-18,2.54,77,-1,1684.94506573
GEMS239,2018_Apr_24_1548,Kramer,GH,spatial_frequency,8,6,20,15-22;7-24;21-30;25-13,4,SimpleHill,25-13,60,37,selected,59-18,63-19;64-16;55-22;62-18;64-24;52-21,62-18,1.79,76,-1,1690.28840334
GEMS239,2018_Apr_24_1548,Kramer,GH,spatial_frequency,8,6,20,15-22;7-24;21-30;25-13,4,SimpleHill,25-13,60,38,selected,62-18,59-21;63-17;58-23;59-23;58-12;58-14,58-14,1.34,72,-4,1695.19390339
GEMS239,2018_Apr_24_1548,Kramer,GH,spatial_frequency,8,6,20,15-22;7-24;21-30;25-13,4,SimpleHill,25-13,60,39,selected,58-14,62-8;61-7;61-20;56-9;57-9;64-10,61-20,2.12,79,7,1700.89357885
