subj_id,date,computer,experimenter,instructions,sight_radius,n_gabors,landscape_ix,landscape_name,starting_pos,starting_score,trial,feedback,pos,stims,selected,rt,score,delta,exp_time
GEMS113,2018_Feb_27_1603,George,GH,orientation,8,6,0,OrientationBias,0-0,0,0,training,0-0,6-0;7-2;1-4;5-0;6-1;4-3,1-4,1.49,3,3,114.168527259
GEMS113,2018_Feb_27_1603,George,GH,orientation,8,6,0,OrientationBias,0-0,0,1,training,1-4,0-6;6-8;6-0;8-7;0-11;5-4,6-8,1.91,22,19,119.081460097
GEMS113,2018_Feb_27_1603,George,GH,orientation,8,6,0,OrientationBias,0-0,0,2,training,6-8,1-13;10-4;4-1;5-11;12-13;10-5,10-4,1.5,36,14,127.610946086
GEMS113,2018_Feb_27_1603,George,GH,orientation,8,6,0,OrientationBias,0-0,0,3,training,10-4,14-9;6-3;7-9;9-5;8-9;13-6,14-9,1.22,48,12,138.896119003
GEMS113,2018_Feb_27_1603,George,GH,orientation,8,6,0,OrientationBias,0-0,0,4,training,14-9,14-12;18-9;15-14;17-11;11-9;13-4,14-12,1.67,48,0,145.919353259
GEMS113,2018_Feb_27_1603,George,GH,orientation,8,6,0,OrientationBias,0-0,0,5,training,14-12,14-16;14-17;8-14;13-8;13-10;13-14,14-17,1.07,48,0,151.776919645
GEMS113,2018_Feb_27_1603,George,GH,orientation,8,6,0,OrientationBias,0-0,0,6,training,14-17,12-24;12-14;16-16;7-18;15-24;8-14,15-24,1.73,51,3,157.964560285
GEMS113,2018_Feb_27_1603,George,GH,orientation,8,6,0,OrientationBias,0-0,0,7,training,15-24,18-30;19-23;19-29;14-27;12-27;13-17,19-29,1.35,61,10,163.025142329
GEMS113,2018_Feb_27_1603,George,GH,orientation,8,6,0,OrientationBias,0-0,0,8,training,19-29,19-30;19-21;15-31;15-26;20-22;18-24,15-26,1.4,51,-10,167.833215646
GEMS113,2018_Feb_27_1603,George,GH,orientation,8,6,0,OrientationBias,0-0,0,9,training,15-26,18-31;16-19;15-22;15-28;13-32;18-25,15-28,0.51,51,0,172.865456993
GEMS113,2018_Feb_27_1603,George,GH,orientation,8,6,0,OrientationBias,0-0,0,10,training,15-28,7-28;17-30;21-28;10-25;19-26;19-23,7-28,0.59,26,-25,180.170213188
GEMS113,2018_Feb_27_1603,George,GH,orientation,8,6,0,OrientationBias,0-0,0,11,training,7-28,13-32;0-30;2-32;9-28;13-26;9-31,0-30,1.03,0,-26,190.893751597
GEMS113,2018_Feb_27_1603,George,GH,orientation,8,6,0,OrientationBias,0-0,0,12,training,0-30,5-30;7-33;0-25;1-34;0-29;6-27,7-33,0.49,26,26,195.39383258
GEMS113,2018_Feb_27_1603,George,GH,orientation,8,6,0,OrientationBias,0-0,0,13,training,7-33,6-34;1-31;13-35;3-32;9-30;4-28,1-31,1.48,3,-23,199.894379619
GEMS113,2018_Feb_27_1603,George,GH,orientation,8,6,0,OrientationBias,0-0,0,14,training,1-31,8-29;7-27;2-27;0-29;7-29;4-30,7-27,0.69,26,23,203.860522443
GEMS113,2018_Feb_27_1603,George,GH,orientation,8,6,0,OrientationBias,0-0,0,15,training,7-27,10-23;11-31;12-30;3-28;5-26;5-20,12-30,0.67,42,16,208.248866071
GEMS113,2018_Feb_27_1603,George,GH,orientation,8,6,0,OrientationBias,0-0,0,16,training,12-30,11-36;18-32;10-24;9-35;8-25;6-25,18-32,1.34,59,17,212.771360273
GEMS113,2018_Feb_27_1603,George,GH,orientation,8,6,0,OrientationBias,0-0,0,17,training,18-32,15-27;13-34;17-33;25-34;13-33;20-37,25-34,2.54,75,16,217.956113356
GEMS113,2018_Feb_27_1603,George,GH,orientation,8,6,0,OrientationBias,0-0,0,18,training,25-34,30-38;20-31;30-33;20-28;23-29;29-38,30-38,1.39,84,9,221.794436083
GEMS113,2018_Feb_27_1603,George,GH,orientation,8,6,0,OrientationBias,0-0,0,19,training,30-38,34-38;33-39;25-40;33-33;37-40;25-42,34-38,1.0,89,5,225.336551973
GEMS113,2018_Feb_27_1603,George,GH,orientation,8,6,1,SimpleHill,0-0,0,0,selected,0-0,2-2;3-0;7-3;4-6;3-5;0-8,3-0,0.8,5,5,248.842823231
GEMS113,2018_Feb_27_1603,George,GH,orientation,8,6,1,SimpleHill,0-0,0,1,selected,3-0,4-3;9-4;7-0;4-7;2-5;3-7,2-5,0.8,13,8,253.209449844
GEMS113,2018_Feb_27_1603,George,GH,orientation,8,6,1,SimpleHill,0-0,0,2,selected,2-5,7-0;7-10;2-12;7-1;6-5;1-4,7-10,0.59,31,18,257.373501246
GEMS113,2018_Feb_27_1603,George,GH,orientation,8,6,1,SimpleHill,0-0,0,3,selected,7-10,5-11;1-11;1-10;3-15;2-9;13-8,5-11,0.48,29,-2,261.412898268
GEMS113,2018_Feb_27_1603,George,GH,orientation,8,6,1,SimpleHill,0-0,0,4,selected,5-11,1-10;10-8;9-12;1-5;5-18;6-17,1-10,0.5,19,-10,265.49934509
GEMS113,2018_Feb_27_1603,George,GH,orientation,8,6,1,SimpleHill,0-0,0,5,selected,1-10,4-5;5-11;7-14;3-10;6-10;6-8,4-5,0.35,17,-2,269.407194214
GEMS113,2018_Feb_27_1603,George,GH,orientation,8,6,1,SimpleHill,0-0,0,6,selected,4-5,9-0;8-9;2-5;7-0;9-11;5-5,9-0,0.31,16,-1,273.310151999
GEMS113,2018_Feb_27_1603,George,GH,orientation,8,6,1,SimpleHill,0-0,0,7,selected,9-0,15-2;15-3;14-4;13-4;6-0;4-6,15-2,0.28,29,13,277.169850523
GEMS113,2018_Feb_27_1603,George,GH,orientation,8,6,1,SimpleHill,0-0,0,8,selected,15-2,13-6;21-6;17-0;18-9;10-5;11-7,21-6,0.89,44,15,281.641389792
GEMS113,2018_Feb_27_1603,George,GH,orientation,8,6,1,SimpleHill,0-0,0,9,selected,21-6,16-8;27-8;23-5;28-9;25-11;18-10,18-10,0.45,47,3,285.664890365
GEMS113,2018_Feb_27_1603,George,GH,orientation,8,6,1,SimpleHill,0-0,0,10,selected,18-10,21-10;18-2;22-10;23-8;24-15;10-10,22-10,0.28,52,5,289.519023435
GEMS113,2018_Feb_27_1603,George,GH,orientation,8,6,1,SimpleHill,0-0,0,11,selected,22-10,28-13;21-17;28-10;22-13;24-17;17-13,21-17,0.47,61,9,293.560793625
GEMS113,2018_Feb_27_1603,George,GH,orientation,8,6,1,SimpleHill,0-0,0,12,selected,21-17,15-12;15-20;24-16;24-18;20-22;19-18,20-22,1.07,66,5,298.202621304
GEMS113,2018_Feb_27_1603,George,GH,orientation,8,6,1,SimpleHill,0-0,0,13,selected,20-22,18-17;25-24;20-16;21-24;18-18;16-25,21-24,0.75,69,3,302.541358551
GEMS113,2018_Feb_27_1603,George,GH,orientation,8,6,1,SimpleHill,0-0,0,14,selected,21-24,20-28;19-24;20-30;28-22;17-26;15-24,19-24,0.94,67,-2,307.063176396
GEMS113,2018_Feb_27_1603,George,GH,orientation,8,6,1,SimpleHill,0-0,0,15,selected,19-24,25-23;23-22;24-19;20-23;24-29;16-25,24-19,0.34,67,0,310.962843628
GEMS113,2018_Feb_27_1603,George,GH,orientation,8,6,1,SimpleHill,0-0,0,16,selected,24-19,28-25;27-19;21-25;18-22;28-14;28-21,28-21,2.01,73,6,316.535046641
GEMS113,2018_Feb_27_1603,George,GH,orientation,8,6,1,SimpleHill,0-0,0,17,selected,28-21,25-18;25-19;29-19;23-22;21-22;26-28,25-19,0.42,68,-5,320.524015283
GEMS113,2018_Feb_27_1603,George,GH,orientation,8,6,1,SimpleHill,0-0,0,18,selected,25-19,29-21;30-15;25-16;26-12;30-23;24-15,26-12,0.24,59,-9,324.335173654
GEMS113,2018_Feb_27_1603,George,GH,orientation,8,6,1,SimpleHill,0-0,0,19,selected,26-12,22-7;25-16;21-12;29-7;28-16;26-15,22-7,3.09,47,-12,330.998400176
GEMS113,2018_Feb_27_1603,George,GH,orientation,8,6,1,SimpleHill,0-0,0,20,selected,22-7,17-9;23-5;16-6;29-9;24-11;15-9,23-5,0.48,44,-3,335.068136874
GEMS113,2018_Feb_27_1603,George,GH,orientation,8,6,1,SimpleHill,0-0,0,21,selected,23-5,25-12;20-5;23-2;31-5;19-3;30-4,20-5,0.29,41,-3,338.908962726
GEMS113,2018_Feb_27_1603,George,GH,orientation,8,6,1,SimpleHill,0-0,0,22,selected,20-5,22-5;17-5;13-6;16-11;17-12;21-8,17-5,0.53,37,-4,343.009651118
GEMS113,2018_Feb_27_1603,George,GH,orientation,8,6,1,SimpleHill,0-0,0,23,selected,17-5,12-7;16-5;10-8;18-10;11-9;11-1,16-5,0.56,36,-1,347.14569504
GEMS113,2018_Feb_27_1603,George,GH,orientation,8,6,1,SimpleHill,0-0,0,24,selected,16-5,18-2;9-8;18-4;10-1;17-1;9-4,9-8,0.29,31,-5,351.01817647
GEMS113,2018_Feb_27_1603,George,GH,orientation,8,6,1,SimpleHill,0-0,0,25,selected,9-8,2-6;4-14;13-4;4-10;4-6;6-8,4-14,0.18,31,0,354.747617389
GEMS113,2018_Feb_27_1603,George,GH,orientation,8,6,1,SimpleHill,0-0,0,26,selected,4-14,1-7;3-19;9-20;9-9;2-19;5-11,3-19,0.21,36,5,358.535860317
GEMS113,2018_Feb_27_1603,George,GH,orientation,8,6,1,SimpleHill,0-0,0,27,selected,3-19,2-18;3-23;0-12;7-19;8-13;6-16,3-23,0.23,41,5,362.322332491
GEMS113,2018_Feb_27_1603,George,GH,orientation,8,6,1,SimpleHill,0-0,0,28,selected,3-23,4-25;9-19;4-23;3-23;2-27;9-21,9-19,0.19,47,6,366.090428777
GEMS113,2018_Feb_27_1603,George,GH,orientation,8,6,1,SimpleHill,0-0,0,29,selected,9-19,4-20;11-20;3-20;5-23;16-21;12-12,11-20,0.23,51,4,369.880194706
GEMS113,2018_Feb_27_1603,George,GH,orientation,8,6,1,SimpleHill,0-0,0,30,selected,11-20,13-13;15-26;14-17;8-16;7-20;16-17,15-26,0.18,63,12,373.621548199
GEMS113,2018_Feb_27_1603,George,GH,orientation,8,6,1,SimpleHill,0-0,0,31,selected,15-26,12-23;20-31;15-33;8-26;15-32;20-30,20-31,0.19,74,11,377.38120684
GEMS113,2018_Feb_27_1603,George,GH,orientation,8,6,1,SimpleHill,0-0,0,32,selected,20-31,25-32;23-37;13-34;22-26;24-34;17-33,23-37,0.49,82,8,381.448443933
GEMS113,2018_Feb_27_1603,George,GH,orientation,8,6,1,SimpleHill,0-0,0,33,selected,23-37,22-39;27-37;25-30;18-31;21-31;25-35,27-37,0.6,86,4,385.627049314
GEMS113,2018_Feb_27_1603,George,GH,orientation,8,6,1,SimpleHill,0-0,0,34,selected,27-37,30-39;22-41;30-43;29-40;29-30;24-43,22-41,0.24,82,-4,389.422433512
GEMS113,2018_Feb_27_1603,George,GH,orientation,8,6,1,SimpleHill,0-0,0,35,selected,22-41,20-35;21-39;19-38;20-37;27-41;22-49,19-38,0.39,77,-5,393.380853137
GEMS113,2018_Feb_27_1603,George,GH,orientation,8,6,1,SimpleHill,0-0,0,36,selected,19-38,23-33;23-39;19-45;20-40;25-41;25-34,23-39,0.29,83,6,397.230293647
GEMS113,2018_Feb_27_1603,George,GH,orientation,8,6,1,SimpleHill,0-0,0,37,selected,23-39,22-46;30-38;25-37;25-38;24-34;24-44,30-38,0.17,89,6,400.978086767
GEMS113,2018_Feb_27_1603,George,GH,orientation,8,6,1,SimpleHill,0-0,0,38,selected,30-38,32-40;30-39;29-37;32-42;33-41;26-44,30-39,0.2,89,0,404.739522242
GEMS113,2018_Feb_27_1603,George,GH,orientation,8,6,1,SimpleHill,0-0,0,39,selected,30-39,29-38;29-32;29-39;23-36;23-41;28-41,23-36,0.57,81,-8,408.877188074
GEMS113,2018_Feb_27_1603,George,GH,orientation,8,6,2,SimpleHill,0-0,0,0,selected,0-0,6-0;0-6;1-3;5-5;2-1;4-6,5-5,0.88,19,19,420.439511423
GEMS113,2018_Feb_27_1603,George,GH,orientation,8,6,2,SimpleHill,0-0,0,1,selected,5-5,5-5;3-4;4-5;11-10;5-0;8-10,11-10,0.19,37,18,424.205155799
GEMS113,2018_Feb_27_1603,George,GH,orientation,8,6,2,SimpleHill,0-0,0,2,selected,11-10,17-7;7-4;15-7;17-12;11-15;11-14,17-12,0.24,49,12,428.011682427
GEMS113,2018_Feb_27_1603,George,GH,orientation,8,6,2,SimpleHill,0-0,0,3,selected,17-12,11-17;11-11;12-6;15-19;12-17;19-10,15-19,0.2,56,7,431.754558282
GEMS113,2018_Feb_27_1603,George,GH,orientation,8,6,2,SimpleHill,0-0,0,4,selected,15-19,16-15;10-15;17-24;21-20;11-16;20-22,21-20,0.23,65,9,435.567719793
GEMS113,2018_Feb_27_1603,George,GH,orientation,8,6,2,SimpleHill,0-0,0,5,selected,21-20,22-19;24-16;21-28;29-20;26-23;21-26,29-20,0.21,73,8,439.364183024
GEMS113,2018_Feb_27_1603,George,GH,orientation,8,6,2,SimpleHill,0-0,0,6,selected,29-20,31-16;35-20;27-22;35-23;34-22;34-23,35-23,0.22,80,7,443.157289441
GEMS113,2018_Feb_27_1603,George,GH,orientation,8,6,2,SimpleHill,0-0,0,7,selected,35-23,30-29;39-25;32-24;31-26;29-28;32-19,31-26,0.22,81,1,446.95046884
GEMS113,2018_Feb_27_1603,George,GH,orientation,8,6,2,SimpleHill,0-0,0,8,selected,31-26,28-23;27-21;34-22;30-29;29-24;32-33,30-29,0.25,83,2,450.778728489
GEMS113,2018_Feb_27_1603,George,GH,orientation,8,6,2,SimpleHill,0-0,0,9,selected,30-29,26-26;35-23;29-34;35-30;32-29;33-28,35-30,0.21,87,4,454.55491288
GEMS113,2018_Feb_27_1603,George,GH,orientation,8,6,2,SimpleHill,0-0,0,10,selected,35-30,35-30;33-27;39-25;41-32;29-33;28-27,41-32,0.37,91,4,458.498291025
GEMS113,2018_Feb_27_1603,George,GH,orientation,8,6,2,SimpleHill,0-0,0,11,selected,41-32,43-30;40-28;41-39;39-34;41-36;44-25,39-34,0.29,92,1,462.376238359
GEMS113,2018_Feb_27_1603,George,GH,orientation,8,6,2,SimpleHill,0-0,0,12,selected,39-34,45-34;34-33;39-34;37-41;39-30;44-32,37-41,0.18,95,3,466.125855688
GEMS113,2018_Feb_27_1603,George,GH,orientation,8,6,2,SimpleHill,0-0,0,13,selected,37-41,42-46;34-43;44-42;32-37;30-39;32-41,32-37,0.2,90,-5,469.895580287
GEMS113,2018_Feb_27_1603,George,GH,orientation,8,6,2,SimpleHill,0-0,0,14,selected,32-37,28-32;29-31;33-35;36-41;37-43;33-43,36-41,0.2,94,4,473.651990625
GEMS113,2018_Feb_27_1603,George,GH,orientation,8,6,2,SimpleHill,0-0,0,15,selected,36-41,37-38;35-47;34-37;35-39;38-41;32-44,35-39,0.2,93,-1,477.436693006
GEMS113,2018_Feb_27_1603,George,GH,orientation,8,6,2,SimpleHill,0-0,0,16,selected,35-39,30-36;40-41;35-31;38-46;37-41;35-37,38-46,0.55,96,3,481.560676791
GEMS113,2018_Feb_27_1603,George,GH,orientation,8,6,2,SimpleHill,0-0,0,17,selected,38-46,41-42;35-39;35-44;31-46;34-44;37-49,31-46,0.21,92,-4,485.336242443
GEMS113,2018_Feb_27_1603,George,GH,orientation,8,6,2,SimpleHill,0-0,0,18,selected,31-46,29-42;33-52;36-41;27-49;27-41;29-53,27-49,0.28,89,-3,489.197872407
GEMS113,2018_Feb_27_1603,George,GH,orientation,8,6,2,SimpleHill,0-0,0,19,selected,27-49,30-50;32-54;21-46;27-51;24-45;25-50,27-51,0.23,89,0,492.989165499
GEMS113,2018_Feb_27_1603,George,GH,orientation,8,6,2,SimpleHill,0-0,0,20,selected,27-51,24-49;22-46;34-48;33-46;29-57;22-51,22-51,0.22,84,-5,496.770689358
GEMS113,2018_Feb_27_1603,George,GH,orientation,8,6,2,SimpleHill,0-0,0,21,selected,22-51,19-47;21-52;17-50;22-48;17-48;29-54,22-48,0.19,84,0,500.523608765
GEMS113,2018_Feb_27_1603,George,GH,orientation,8,6,2,SimpleHill,0-0,0,22,selected,22-48,24-48;26-54;27-43;24-50;15-46;19-49,24-50,0.25,86,2,504.360145693
GEMS113,2018_Feb_27_1603,George,GH,orientation,8,6,2,SimpleHill,0-0,0,23,selected,24-50,19-56;27-53;28-49;19-45;22-54;21-53,28-49,0.25,90,4,508.191590586
GEMS113,2018_Feb_27_1603,George,GH,orientation,8,6,2,SimpleHill,0-0,0,24,selected,28-49,32-51;27-55;31-53;32-54;32-50;28-51,31-53,0.19,92,2,511.957834495
GEMS113,2018_Feb_27_1603,George,GH,orientation,8,6,2,SimpleHill,0-0,0,25,selected,31-53,29-53;27-58;25-49;29-50;37-57;37-52,25-49,0.17,87,-5,515.685732248
GEMS113,2018_Feb_27_1603,George,GH,orientation,8,6,2,SimpleHill,0-0,0,26,selected,25-49,31-47;25-44;19-45;22-54;19-48;28-56,22-54,0.85,84,-3,520.087188798
GEMS113,2018_Feb_27_1603,George,GH,orientation,8,6,2,SimpleHill,0-0,0,27,selected,22-54,19-49;28-59;22-61;28-51;26-49;26-58,28-59,0.43,88,4,524.089337581
GEMS113,2018_Feb_27_1603,George,GH,orientation,8,6,2,SimpleHill,0-0,0,28,selected,28-59,31-61;28-57;32-63;24-56;28-66;24-65,28-57,0.15,89,1,527.808259931
GEMS113,2018_Feb_27_1603,George,GH,orientation,8,6,2,SimpleHill,0-0,0,29,selected,28-57,34-56;23-61;30-62;31-59;22-62;22-56,31-59,0.46,91,2,531.842372221
GEMS113,2018_Feb_27_1603,George,GH,orientation,8,6,2,SimpleHill,0-0,0,30,selected,31-59,28-62;35-57;37-57;26-54;34-54;26-56,35-57,0.25,94,3,535.666344547
GEMS113,2018_Feb_27_1603,George,GH,orientation,8,6,2,SimpleHill,0-0,0,31,selected,35-57,40-54;40-61;34-61;36-61;31-52;37-50,36-61,0.45,93,-1,539.771855776
GEMS113,2018_Feb_27_1603,George,GH,orientation,8,6,2,SimpleHill,0-0,0,32,selected,36-61,39-54;34-63;31-67;35-65;43-59;34-64,31-67,0.27,87,-6,543.59261277
GEMS113,2018_Feb_27_1603,George,GH,orientation,8,6,2,SimpleHill,0-0,0,33,selected,31-67,30-64;27-69;26-64;26-68;25-63;30-68,27-69,0.29,82,-5,547.455715161
GEMS113,2018_Feb_27_1603,George,GH,orientation,8,6,2,SimpleHill,0-0,0,34,selected,27-69,29-64;22-63;23-63;31-65;32-65;31-67,23-63,0.16,82,0,551.190291329
GEMS113,2018_Feb_27_1603,George,GH,orientation,8,6,2,SimpleHill,0-0,0,35,selected,23-63,17-58;22-60;29-61;23-63;24-61;19-65,23-63,0.15,82,0,554.904958045
GEMS113,2018_Feb_27_1603,George,GH,orientation,8,6,2,SimpleHill,0-0,0,36,selected,23-63,21-61;23-64;17-61;26-59;25-59;27-65,21-61,0.24,80,-2,558.713267591
GEMS113,2018_Feb_27_1603,George,GH,orientation,8,6,2,SimpleHill,0-0,0,37,selected,21-61,24-65;17-61;27-56;23-59;23-66;17-67,24-65,0.12,81,1,562.384441697
GEMS113,2018_Feb_27_1603,George,GH,orientation,8,6,2,SimpleHill,0-0,0,38,selected,24-65,26-68;30-62;23-70;21-66;18-65;31-62,23-70,0.49,77,-4,566.455067293
GEMS113,2018_Feb_27_1603,George,GH,orientation,8,6,2,SimpleHill,0-0,0,39,selected,23-70,21-69;30-70;23-64;25-65;20-69;19-68,25-65,0.17,83,6,570.190654315
GEMS113,2018_Feb_27_1603,George,GH,orientation,8,6,3,SimpleHill,0-0,0,0,selected,0-0,0-5;6-4;3-7;3-4;3-6;4-3,3-4,0.71,13,13,580.841692984
GEMS113,2018_Feb_27_1603,George,GH,orientation,8,6,3,SimpleHill,0-0,0,1,selected,3-4,1-1;10-7;2-3;3-10;9-7;0-2,3-10,0.17,23,10,584.591566067
GEMS113,2018_Feb_27_1603,George,GH,orientation,8,6,3,SimpleHill,0-0,0,2,selected,3-10,1-3;1-16;9-8;10-10;1-9;8-14,10-10,0.2,36,13,588.388092036
GEMS113,2018_Feb_27_1603,George,GH,orientation,8,6,3,SimpleHill,0-0,0,3,selected,10-10,13-14;5-5;8-4;9-16;11-14;10-3,9-16,0.19,43,7,592.161085422
GEMS113,2018_Feb_27_1603,George,GH,orientation,8,6,3,SimpleHill,0-0,0,4,selected,9-16,11-21;12-14;8-13;11-12;4-11;10-21,11-12,4.05,40,-3,599.767713455
GEMS113,2018_Feb_27_1603,George,GH,orientation,8,6,3,SimpleHill,0-0,0,5,selected,11-12,6-15;14-6;6-8;9-16;7-6;15-18,9-16,1.0,43,3,604.347573409
GEMS113,2018_Feb_27_1603,George,GH,orientation,8,6,3,SimpleHill,0-0,0,6,selected,9-16,12-20;7-14;10-13;10-22;15-17;4-13,10-22,0.73,52,9,608.667984382
GEMS113,2018_Feb_27_1603,George,GH,orientation,8,6,3,SimpleHill,0-0,0,7,selected,10-22,12-27;16-27;4-18;13-26;18-22;13-27,13-26,1.09,61,9,613.318662627
GEMS113,2018_Feb_27_1603,George,GH,orientation,8,6,3,SimpleHill,0-0,0,8,selected,13-26,17-25;11-30;7-25;17-20;16-33;8-20,11-30,1.79,61,0,618.686690285
GEMS113,2018_Feb_27_1603,George,GH,orientation,8,6,3,SimpleHill,0-0,0,9,selected,11-30,15-33;13-24;12-25;17-33;6-24;5-28,17-33,0.84,72,11,623.100873405
GEMS113,2018_Feb_27_1603,George,GH,orientation,8,6,3,SimpleHill,0-0,0,10,selected,17-33,12-35;23-37;22-32;20-30;17-36;10-31,20-30,0.44,74,2,627.099361927
GEMS113,2018_Feb_27_1603,George,GH,orientation,8,6,3,SimpleHill,0-0,0,11,selected,20-30,21-27;18-29;16-35;17-27;21-28;16-24,17-27,0.63,67,-7,631.316233122
GEMS113,2018_Feb_27_1603,George,GH,orientation,8,6,3,SimpleHill,0-0,0,12,selected,17-27,16-34;11-32;15-25;19-30;16-30;24-25,19-30,0.49,72,5,635.367937072
GEMS113,2018_Feb_27_1603,George,GH,orientation,8,6,3,SimpleHill,0-0,0,13,selected,19-30,14-24;17-33;20-28;19-33;22-23;15-33,19-33,0.58,75,3,639.514094006
GEMS113,2018_Feb_27_1603,George,GH,orientation,8,6,3,SimpleHill,0-0,0,14,selected,19-33,22-26;18-28;17-39;20-27;13-32;14-28,20-27,0.46,71,-4,643.543534542
GEMS113,2018_Feb_27_1603,George,GH,orientation,8,6,3,SimpleHill,0-0,0,15,selected,20-27,14-27;22-33;21-34;24-27;15-22;18-23,21-34,1.69,78,7,648.80132352
GEMS113,2018_Feb_27_1603,George,GH,orientation,8,6,3,SimpleHill,0-0,0,16,selected,21-34,20-32;24-36;21-37;17-38;20-29;23-37,21-37,0.84,79,1,653.22371702
GEMS113,2018_Feb_27_1603,George,GH,orientation,8,6,3,SimpleHill,0-0,0,17,selected,21-37,19-32;23-30;18-32;16-36;19-37;23-44,23-44,2.52,84,5,659.316475113
GEMS113,2018_Feb_27_1603,George,GH,orientation,8,6,3,SimpleHill,0-0,0,18,selected,23-44,16-42;27-44;23-49;16-46;30-42;23-52,16-46,0.88,76,-8,663.76352248
GEMS113,2018_Feb_27_1603,George,GH,orientation,8,6,3,SimpleHill,0-0,0,19,selected,16-46,20-43;16-40;19-46;13-46;15-47;17-39,19-46,0.7,80,4,668.032827757
GEMS113,2018_Feb_27_1603,George,GH,orientation,8,6,3,SimpleHill,0-0,0,20,selected,19-46,12-48;15-51;18-49;22-48;17-44;23-44,18-49,0.81,79,-1,672.426140507
GEMS113,2018_Feb_27_1603,George,GH,orientation,8,6,3,SimpleHill,0-0,0,21,selected,18-49,17-42;12-45;16-52;26-49;24-51;14-54,26-49,0.35,88,9,676.357940574
GEMS113,2018_Feb_27_1603,George,GH,orientation,8,6,3,SimpleHill,0-0,0,22,selected,26-49,21-46;27-43;33-49;29-52;23-46;32-53,29-52,0.17,91,3,680.092070533
GEMS113,2018_Feb_27_1603,George,GH,orientation,8,6,3,SimpleHill,0-0,0,23,selected,29-52,27-56;23-55;35-47;33-51;32-49;27-45,33-51,0.18,94,3,683.843402599
GEMS113,2018_Feb_27_1603,George,GH,orientation,8,6,3,SimpleHill,0-0,0,24,selected,33-51,34-45;33-44;34-49;37-47;33-50;30-47,37-47,0.22,96,2,687.633495983
GEMS113,2018_Feb_27_1603,George,GH,orientation,8,6,3,SimpleHill,0-0,0,25,selected,37-47,44-50;43-49;42-49;36-50;38-51;32-44,36-50,0.3,96,0,691.50500017
GEMS113,2018_Feb_27_1603,George,GH,orientation,8,6,3,SimpleHill,0-0,0,26,selected,36-50,41-55;31-48;31-44;42-54;32-56;43-49,42-54,0.19,98,2,695.269434915
GEMS113,2018_Feb_27_1603,George,GH,orientation,8,6,3,SimpleHill,0-0,0,27,selected,42-54,35-55;38-54;47-52;46-57;40-60;37-48,46-57,0.16,98,0,698.99096186
GEMS113,2018_Feb_27_1603,George,GH,orientation,8,6,3,SimpleHill,0-0,0,28,selected,46-57,53-55;49-56;46-55;46-49;46-51;48-62,46-49,0.17,99,1,702.750590411
GEMS113,2018_Feb_27_1603,George,GH,orientation,8,6,3,SimpleHill,0-0,0,29,selected,46-49,43-56;42-54;52-53;47-45;50-53;48-53,47-45,0.26,99,0,706.588915698
GEMS113,2018_Feb_27_1603,George,GH,orientation,8,6,3,SimpleHill,0-0,0,30,selected,47-45,52-49;46-41;40-43;52-42;54-42;53-47,52-42,0.34,98,-1,710.510701663
GEMS113,2018_Feb_27_1603,George,GH,orientation,8,6,3,SimpleHill,0-0,0,31,selected,52-42,52-40;47-42;53-37;54-35;46-38;56-45,56-45,1.53,98,0,715.628159076
GEMS113,2018_Feb_27_1603,George,GH,orientation,8,6,3,SimpleHill,0-0,0,32,selected,56-45,57-48;55-47;58-45;54-48;55-43;53-38,53-38,0.17,96,-2,719.372996779
GEMS113,2018_Feb_27_1603,George,GH,orientation,8,6,3,SimpleHill,0-0,0,33,selected,53-38,53-34;53-41;53-35;49-44;57-39;45-38,49-44,0.26,99,3,723.206319016
GEMS113,2018_Feb_27_1603,George,GH,orientation,8,6,3,SimpleHill,0-0,0,34,selected,49-44,54-44;54-42;48-39;52-40;48-46;52-41,52-40,0.19,97,-2,726.975732804
GEMS113,2018_Feb_27_1603,George,GH,orientation,8,6,3,SimpleHill,0-0,0,35,selected,52-40,56-43;50-37;47-35;57-34;57-44;47-37,57-34,0.31,93,-4,730.864155816
GEMS113,2018_Feb_27_1603,George,GH,orientation,8,6,3,SimpleHill,0-0,0,36,selected,57-34,59-40;51-39;55-38;62-31;58-36;60-39,51-39,1.9,97,4,736.347523794
GEMS113,2018_Feb_27_1603,George,GH,orientation,8,6,3,SimpleHill,0-0,0,37,selected,51-39,54-34;46-39;58-37;52-35;44-42;50-43,58-37,1.79,95,-2,741.695588225
GEMS113,2018_Feb_27_1603,George,GH,orientation,8,6,3,SimpleHill,0-0,0,38,selected,58-37,55-37;62-35;59-39;63-33;52-38;55-38,52-38,0.79,97,2,746.077976847
GEMS113,2018_Feb_27_1603,George,GH,orientation,8,6,3,SimpleHill,0-0,0,39,selected,52-38,60-38;55-43;50-37;50-41;53-34;52-40,60-38,0.71,95,-2,750.353737436
GEMS113,2018_Feb_27_1603,George,GH,orientation,8,6,4,SimpleHill,0-0,0,0,selected,0-0,3-7;1-7;7-3;6-3;2-1;2-5,1-7,1.45,15,15,761.711840937
GEMS113,2018_Feb_27_1603,George,GH,orientation,8,6,4,SimpleHill,0-0,0,1,selected,1-7,8-10;6-1;0-0;3-6;7-11;1-7,6-1,2.04,13,-2,767.327423567
GEMS113,2018_Feb_27_1603,George,GH,orientation,8,6,4,SimpleHill,0-0,0,2,selected,6-1,9-7;5-8;0-6;13-2;4-8;11-7,5-8,0.67,24,11,771.553879301
GEMS113,2018_Feb_27_1603,George,GH,orientation,8,6,4,SimpleHill,0-0,0,3,selected,5-8,6-12;10-11;3-6;11-3;5-6;5-9,10-11,3.8,37,13,778.940683923
GEMS113,2018_Feb_27_1603,George,GH,orientation,8,6,4,SimpleHill,0-0,0,4,selected,10-11,8-10;3-9;13-8;14-13;12-9;12-13,3-9,3.71,22,-15,786.223542249
GEMS113,2018_Feb_27_1603,George,GH,orientation,8,6,4,SimpleHill,0-0,0,5,selected,3-9,4-14;3-2;4-10;0-16;5-12;5-3,3-2,0.21,9,-13,790.010025307
GEMS113,2018_Feb_27_1603,George,GH,orientation,8,6,4,SimpleHill,0-0,0,6,selected,3-2,11-2;3-2;6-4;8-4;5-4;0-5,5-4,2.42,17,8,795.991615809
GEMS113,2018_Feb_27_1603,George,GH,orientation,8,6,4,SimpleHill,0-0,0,7,selected,5-4,0-0;1-3;6-5;11-9;4-2;8-5,1-3,1.3,7,-10,800.867910505
GEMS113,2018_Feb_27_1603,George,GH,orientation,8,6,4,SimpleHill,0-0,0,8,selected,1-3,5-8;0-2;6-4;3-10;0-3;2-8,2-8,0.19,18,11,804.631046633
GEMS113,2018_Feb_27_1603,George,GH,orientation,8,6,4,SimpleHill,0-0,0,9,selected,2-8,2-2;9-10;0-15;8-11;1-10;2-5,9-10,2.25,34,16,810.468998692
GEMS113,2018_Feb_27_1603,George,GH,orientation,8,6,4,SimpleHill,0-0,0,10,selected,9-10,11-4;13-8;8-15;9-11;11-5;3-13,8-15,23.76,40,6,837.804489558
GEMS113,2018_Feb_27_1603,George,GH,orientation,8,6,4,SimpleHill,0-0,0,11,selected,8-15,14-11;12-12;11-8;13-12;2-10;13-9,11-8,0.8,34,-6,842.190000365
GEMS113,2018_Feb_27_1603,George,GH,orientation,8,6,4,SimpleHill,0-0,0,12,selected,11-8,14-5;11-7;7-2;10-3;7-3;11-0,10-3,0.01,23,-11,845.781101657
GEMS113,2018_Feb_27_1603,George,GH,orientation,8,6,4,SimpleHill,0-0,0,13,selected,10-3,6-6;13-10;16-1;13-9;8-2;7-10,13-10,0.21,40,17,849.581423286
GEMS113,2018_Feb_27_1603,George,GH,orientation,8,6,4,SimpleHill,0-0,0,14,selected,13-10,15-8;15-4;8-11;9-5;17-16;13-10,15-8,0.81,40,0,854.107134741
GEMS113,2018_Feb_27_1603,George,GH,orientation,8,6,4,SimpleHill,0-0,0,15,selected,15-8,21-9;12-9;12-5;12-7;8-7;12-1,12-9,0.4,37,-3,858.071389977
GEMS113,2018_Feb_27_1603,George,GH,orientation,8,6,4,SimpleHill,0-0,0,16,selected,12-9,13-9;13-2;6-4;19-6;8-4;8-14,13-2,0.08,26,-11,861.741781777
GEMS113,2018_Feb_27_1603,George,GH,orientation,8,6,4,SimpleHill,0-0,0,17,selected,13-2,19-4;13-0;15-6;10-0;20-4;17-7,13-0,0.16,22,-4,865.496779226
GEMS113,2018_Feb_27_1603,George,GH,orientation,8,6,4,SimpleHill,0-0,0,18,selected,13-0,14-0;15-5;21-0;13-2;18-2;7-2,15-5,0.21,35,13,869.269878563
GEMS113,2018_Feb_27_1603,George,GH,orientation,8,6,4,SimpleHill,0-0,0,19,selected,15-5,16-3;13-6;12-11;16-9;18-10;8-7,16-9,0.21,43,8,873.019828149
GEMS113,2018_Feb_27_1603,George,GH,orientation,8,6,4,SimpleHill,0-0,0,20,selected,16-9,16-6;12-6;19-7;13-15;10-10;21-8,16-6,0.2,38,-5,876.801171476
GEMS113,2018_Feb_27_1603,George,GH,orientation,8,6,4,SimpleHill,0-0,0,21,selected,16-6,20-0;9-8;19-2;8-6;11-2;13-5,19-2,0.18,34,-4,880.555822584
GEMS113,2018_Feb_27_1603,George,GH,orientation,8,6,4,SimpleHill,0-0,0,22,selected,19-2,22-1;27-2;14-3;13-5;17-7;20-0,27-2,0.16,43,9,884.385151983
GEMS113,2018_Feb_27_1603,George,GH,orientation,8,6,4,SimpleHill,0-0,0,23,selected,27-2,22-2;30-1;28-1;24-0;27-1;34-5,30-1,0.21,43,0,888.152098496
GEMS113,2018_Feb_27_1603,George,GH,orientation,8,6,4,SimpleHill,0-0,0,24,selected,30-1,26-7;24-6;27-4;29-0;37-3;36-1,36-1,0.17,48,5,891.895311729
GEMS113,2018_Feb_27_1603,George,GH,orientation,8,6,4,SimpleHill,0-0,0,25,selected,36-1,32-4;41-6;29-1;34-6;39-7;37-8,39-7,0.18,60,12,895.663407055
GEMS113,2018_Feb_27_1603,George,GH,orientation,8,6,4,SimpleHill,0-0,0,26,selected,39-7,45-2;33-10;40-13;43-2;38-6;42-13,43-2,0.17,52,-8,899.402963547
GEMS113,2018_Feb_27_1603,George,GH,orientation,8,6,4,SimpleHill,0-0,0,27,selected,43-2,43-1;50-1;42-5;45-6;43-8;44-0,43-1,0.21,51,-1,903.194533519
GEMS113,2018_Feb_27_1603,George,GH,orientation,8,6,4,SimpleHill,0-0,0,28,selected,43-1,47-6;47-1;44-1;41-4;45-2;42-0,47-1,0.19,51,0,906.955811829
GEMS113,2018_Feb_27_1603,George,GH,orientation,8,6,4,SimpleHill,0-0,0,29,selected,47-1,42-0;43-4;53-6;42-5;47-8;48-2,43-4,0.3,56,5,910.929521967
GEMS113,2018_Feb_27_1603,George,GH,orientation,8,6,4,SimpleHill,0-0,0,30,selected,43-4,43-5;46-6;39-8;44-2;45-5;40-10,46-6,0.18,60,4,914.697032484
GEMS113,2018_Feb_27_1603,George,GH,orientation,8,6,4,SimpleHill,0-0,0,31,selected,46-6,52-9;51-11;53-5;46-0;40-11;51-5,51-11,0.2,69,9,918.475070212
GEMS113,2018_Feb_27_1603,George,GH,orientation,8,6,4,SimpleHill,0-0,0,32,selected,51-11,51-8;49-9;52-9;46-17;48-6;51-15,51-8,3.78,64,-5,925.826465209
GEMS113,2018_Feb_27_1603,George,GH,orientation,8,6,4,SimpleHill,0-0,0,33,selected,51-8,55-14;58-5;47-5;56-10;51-1;50-5,58-5,0.34,58,-6,929.756407458
GEMS113,2018_Feb_27_1603,George,GH,orientation,8,6,4,SimpleHill,0-0,0,34,selected,58-5,58-9;52-7;58-1;65-8;51-6;59-5,52-7,0.41,62,4,933.718097471
GEMS113,2018_Feb_27_1603,George,GH,orientation,8,6,4,SimpleHill,0-0,0,35,selected,52-7,49-6;52-7;57-6;51-12;56-1;44-7,57-6,0.48,60,-2,937.761753648
GEMS113,2018_Feb_27_1603,George,GH,orientation,8,6,4,SimpleHill,0-0,0,36,selected,57-6,58-0;64-3;57-11;62-0;63-2;62-1,62-1,0.44,49,-11,941.783807722
GEMS113,2018_Feb_27_1603,George,GH,orientation,8,6,4,SimpleHill,0-0,0,37,selected,62-1,66-0;64-7;64-5;65-1;69-0;67-3,64-7,0.24,59,10,945.605396957
GEMS113,2018_Feb_27_1603,George,GH,orientation,8,6,4,SimpleHill,0-0,0,38,selected,64-7,65-0;67-4;64-6;69-6;61-3;69-9,69-6,0.16,54,-5,949.324906037
GEMS113,2018_Feb_27_1603,George,GH,orientation,8,6,4,SimpleHill,0-0,0,39,selected,69-6,66-8;65-9;70-4;70-10;63-10;66-4,65-9,0.21,61,7,953.108109423
