subj_id,date,computer,experimenter,instructions,sight_radius,n_gabors,landscape_ix,landscape_name,starting_pos,starting_score,trial,feedback,pos,stims,selected,rt,score,delta,exp_time
GEMS123,2018_Mar_07_1203,Elaine,sf,orientation,8,6,0,OrientationBias,0-0,0,0,training,0-0,7-0;0-8;6-1;3-6;0-5;2-1,2-1,15.78,7,7,116.189858061
GEMS123,2018_Mar_07_1203,Elaine,sf,orientation,8,6,0,OrientationBias,0-0,0,1,training,2-1,4-0;3-4;5-3;2-4;3-8;8-5,4-0,8.45,15,8,135.955339415
GEMS123,2018_Mar_07_1203,Elaine,sf,orientation,8,6,0,OrientationBias,0-0,0,2,training,4-0,4-8;6-6;2-2;1-6;6-4;8-6,6-4,11.98,22,7,155.768153806
GEMS123,2018_Mar_07_1203,Elaine,sf,orientation,8,6,0,OrientationBias,0-0,0,3,training,6-4,11-7;3-2;6-7;0-4;6-2;4-0,6-2,9.9,22,0,183.066349092
GEMS123,2018_Mar_07_1203,Elaine,sf,orientation,8,6,0,OrientationBias,0-0,0,4,training,6-2,10-7;7-9;6-5;9-3;3-0;9-0,6-5,6.09,22,0,195.133798662
GEMS123,2018_Mar_07_1203,Elaine,sf,orientation,8,6,0,OrientationBias,0-0,0,5,training,6-5,10-11;12-10;6-5;13-2;7-0;6-4,10-11,7.11,36,14,210.901762333
GEMS123,2018_Mar_07_1203,Elaine,sf,orientation,8,6,0,OrientationBias,0-0,0,6,training,10-11,13-5;11-8;16-12;10-17;9-7;5-11,13-5,10.17,45,9,227.297180593
GEMS123,2018_Mar_07_1203,Elaine,sf,orientation,8,6,0,OrientationBias,0-0,0,7,training,13-5,15-11;9-11;10-2;7-5;19-3;8-8,9-11,5.25,32,-13,242.688026652
GEMS123,2018_Mar_07_1203,Elaine,sf,orientation,8,6,0,OrientationBias,0-0,0,8,training,9-11,2-14;10-9;6-10;11-5;10-10;12-5,12-5,4.09,42,10,254.14901554
GEMS123,2018_Mar_07_1203,Elaine,sf,orientation,8,6,0,OrientationBias,0-0,0,9,training,12-5,6-10;11-8;18-0;16-3;12-7;11-6,11-6,4.75,39,-3,265.514227951
GEMS123,2018_Mar_07_1203,Elaine,sf,orientation,8,6,0,OrientationBias,0-0,0,10,training,11-6,4-8;5-3;14-11;11-0;8-0;13-4,13-4,4.59,45,6,274.088531502
GEMS123,2018_Mar_07_1203,Elaine,sf,orientation,8,6,0,OrientationBias,0-0,0,11,training,13-4,12-8;11-2;20-1;10-4;13-12;16-11,20-1,3.63,64,19,283.438875297
GEMS123,2018_Mar_07_1203,Elaine,sf,orientation,8,6,0,OrientationBias,0-0,0,12,training,20-1,15-6;21-4;26-4;25-4;23-3;25-5,26-4,3.41,76,12,290.696023523
GEMS123,2018_Mar_07_1203,Elaine,sf,orientation,8,6,0,OrientationBias,0-0,0,13,training,26-4,28-10;27-8;23-2;31-1;25-1;27-9,31-1,2.71,85,9,296.941105222
GEMS123,2018_Mar_07_1203,Elaine,sf,orientation,8,6,0,OrientationBias,0-0,0,14,training,31-1,33-3;36-3;33-1;34-6;29-5;27-3,34-6,2.64,89,4,302.86084523
GEMS123,2018_Mar_07_1203,Elaine,sf,orientation,8,6,0,OrientationBias,0-0,0,15,training,34-6,39-2;34-8;29-0;32-6;30-11;27-3,27-3,3.64,78,-11,312.224898267
GEMS123,2018_Mar_07_1203,Elaine,sf,orientation,8,6,0,OrientationBias,0-0,0,16,training,27-3,22-8;21-2;28-8;26-10;33-0;29-4,33-0,2.62,88,10,321.399158221
GEMS123,2018_Mar_07_1203,Elaine,sf,orientation,8,6,0,OrientationBias,0-0,0,17,training,33-0,38-0;39-2;39-1;27-4;29-6;33-8,38-0,2.96,94,6,327.990771093
GEMS123,2018_Mar_07_1203,Elaine,sf,orientation,8,6,0,OrientationBias,0-0,0,18,training,38-0,35-7;40-5;39-5;42-1;37-2;44-0,39-5,1.31,95,1,336.987315055
GEMS123,2018_Mar_07_1203,Elaine,sf,orientation,8,6,0,OrientationBias,0-0,0,19,training,39-5,35-6;39-6;43-5;38-6;45-5;39-13,45-5,2.09,99,4,342.366823437
GEMS123,2018_Mar_07_1203,Elaine,sf,orientation,8,6,0,OrientationBias,0-0,0,20,training,45-5,52-2;46-10;51-10;45-11;47-4;48-7,52-2,2.03,99,0,347.63406738
GEMS123,2018_Mar_07_1203,Elaine,sf,orientation,8,6,0,OrientationBias,0-0,0,21,training,52-2,45-2;53-0;55-5;59-5;56-0;58-5,45-2,2.83,99,0,355.105213763
GEMS123,2018_Mar_07_1203,Elaine,sf,orientation,8,6,0,OrientationBias,0-0,0,22,training,45-2,49-8;42-0;42-4;39-2;49-7;40-1,49-7,1.81,99,0,362.235334562
GEMS123,2018_Mar_07_1203,Elaine,sf,orientation,8,6,0,OrientationBias,0-0,0,23,training,49-7,48-11;52-13;46-8;45-8;49-6;54-1,49-6,1.26,99,0,367.339601491
GEMS123,2018_Mar_07_1203,Elaine,sf,orientation,8,6,0,OrientationBias,0-0,0,24,training,49-6,49-1;42-8;45-6;50-0;44-0;55-6,44-0,0.96,98,-1,371.445715034
GEMS123,2018_Mar_07_1203,Elaine,sf,orientation,8,6,0,OrientationBias,0-0,0,25,training,44-0,42-7;37-1;47-0;47-4;51-3;42-5,47-4,0.65,99,1,378.426492199
GEMS123,2018_Mar_07_1203,Elaine,sf,orientation,8,6,0,OrientationBias,0-0,0,26,training,47-4,41-2;44-6;50-4;52-0;41-1;54-6,50-4,0.9,100,1,383.025550743
GEMS123,2018_Mar_07_1203,Elaine,sf,orientation,8,6,0,OrientationBias,0-0,0,27,training,50-4,51-10;44-5;43-1;57-4;55-2;47-1,47-1,2.06,99,-1,388.877708663
GEMS123,2018_Mar_07_1203,Elaine,sf,orientation,8,6,0,OrientationBias,0-0,0,28,training,47-1,44-6;51-4;43-4;54-2;48-4;46-6,46-6,2.0,99,0,395.980731712
GEMS123,2018_Mar_07_1203,Elaine,sf,orientation,8,6,0,OrientationBias,0-0,0,29,training,46-6,42-2;45-0;48-0;49-8;44-6;43-13,48-0,1.43,99,0,400.752362683
GEMS123,2018_Mar_07_1203,Elaine,sf,orientation,8,6,1,SimpleHill,0-0,0,0,selected,0-0,3-4;4-6;2-2;2-6;3-0;2-3,3-0,2.72,5,5,428.278661962
GEMS123,2018_Mar_07_1203,Elaine,sf,orientation,8,6,1,SimpleHill,0-0,0,1,selected,3-0,3-3;7-1;8-0;7-3;1-3;6-5,6-5,2.14,20,15,433.989299948
GEMS123,2018_Mar_07_1203,Elaine,sf,orientation,8,6,1,SimpleHill,0-0,0,2,selected,6-5,5-8;8-6;12-5;11-5;4-5;11-10,11-10,1.42,37,17,438.958930212
GEMS123,2018_Mar_07_1203,Elaine,sf,orientation,8,6,1,SimpleHill,0-0,0,3,selected,11-10,5-14;17-10;12-6;7-6;14-12;4-8,12-6,2.84,32,-5,445.344004043
GEMS123,2018_Mar_07_1203,Elaine,sf,orientation,8,6,1,SimpleHill,0-0,0,4,selected,12-6,11-3;8-12;18-8;12-2;9-9;16-3,16-3,2.39,32,0,451.301832177
GEMS123,2018_Mar_07_1203,Elaine,sf,orientation,8,6,1,SimpleHill,0-0,0,5,selected,16-3,10-3;22-5;17-8;22-7;22-6;22-0,22-6,4.14,45,13,459.000523351
GEMS123,2018_Mar_07_1203,Elaine,sf,orientation,8,6,1,SimpleHill,0-0,0,6,selected,22-6,28-8;24-7;21-2;28-2;25-13;15-5,28-2,2.86,44,-1,465.415599452
GEMS123,2018_Mar_07_1203,Elaine,sf,orientation,8,6,1,SimpleHill,0-0,0,7,selected,28-2,26-9;31-3;23-7;26-6;28-5;25-6,25-6,2.15,48,4,471.107232906
GEMS123,2018_Mar_07_1203,Elaine,sf,orientation,8,6,1,SimpleHill,0-0,0,8,selected,25-6,30-12;23-9;28-5;26-2;27-1;19-6,26-2,1.91,42,-6,476.575022158
GEMS123,2018_Mar_07_1203,Elaine,sf,orientation,8,6,1,SimpleHill,0-0,0,9,selected,26-2,22-7;30-4;22-8;26-0;27-3;31-0,22-8,4.87,49,7,485.022796027
GEMS123,2018_Mar_07_1203,Elaine,sf,orientation,8,6,1,SimpleHill,0-0,0,10,selected,22-8,17-14;23-15;26-2;26-14;26-11;24-7,24-7,4.67,49,0,493.257532337
GEMS123,2018_Mar_07_1203,Elaine,sf,orientation,8,6,1,SimpleHill,0-0,0,11,selected,24-7,22-10;19-12;26-9;20-8;20-5;30-11,20-5,3.28,41,-8,500.121700447
GEMS123,2018_Mar_07_1203,Elaine,sf,orientation,8,6,1,SimpleHill,0-0,0,12,selected,20-5,19-3;15-0;20-10;27-4;20-8;14-8,27-4,1.54,47,6,505.235425469
GEMS123,2018_Mar_07_1203,Elaine,sf,orientation,8,6,1,SimpleHill,0-0,0,13,selected,27-4,31-0;23-6;30-0;24-10;27-9;34-2,34-2,1.76,48,1,510.559497032
GEMS123,2018_Mar_07_1203,Elaine,sf,orientation,8,6,1,SimpleHill,0-0,0,14,selected,34-2,29-1;34-1;38-2;40-2;37-8;37-1,37-1,1.58,48,0,515.702895909
GEMS123,2018_Mar_07_1203,Elaine,sf,orientation,8,6,1,SimpleHill,0-0,0,15,selected,37-1,37-1;33-6;35-6;36-5;30-2;34-1,36-5,1.19,55,7,520.464850803
GEMS123,2018_Mar_07_1203,Elaine,sf,orientation,8,6,1,SimpleHill,0-0,0,16,selected,36-5,39-1;36-13;32-2;32-1;29-3;31-5,32-1,1.35,45,-10,525.374074493
GEMS123,2018_Mar_07_1203,Elaine,sf,orientation,8,6,1,SimpleHill,0-0,0,17,selected,32-1,29-4;29-6;36-6;35-2;25-4;28-6,35-2,1.08,49,4,530.064248325
GEMS123,2018_Mar_07_1203,Elaine,sf,orientation,8,6,1,SimpleHill,0-0,0,18,selected,35-2,33-7;34-8;27-2;38-4;30-7;32-9,32-9,0.93,59,10,534.56582398
GEMS123,2018_Mar_07_1203,Elaine,sf,orientation,8,6,1,SimpleHill,0-0,0,19,selected,32-9,31-5;39-9;32-5;35-9;29-14;35-5,35-5,1.72,55,-4,539.855361405
GEMS123,2018_Mar_07_1203,Elaine,sf,orientation,8,6,1,SimpleHill,0-0,0,20,selected,35-5,31-5;34-7;31-1;30-3;32-1;41-8,31-5,2.0,52,-3,545.426508204
GEMS123,2018_Mar_07_1203,Elaine,sf,orientation,8,6,1,SimpleHill,0-0,0,21,selected,31-5,35-10;35-6;36-5;34-7;31-8;28-11,36-5,2.39,55,3,551.386886835
GEMS123,2018_Mar_07_1203,Elaine,sf,orientation,8,6,1,SimpleHill,0-0,0,22,selected,36-5,28-5;33-10;33-11;43-3;38-2;35-5,43-3,3.06,54,-1,558.023781912
GEMS123,2018_Mar_07_1203,Elaine,sf,orientation,8,6,1,SimpleHill,0-0,0,23,selected,43-3,43-3;49-1;48-3;41-9;45-5;35-3,45-5,1.13,59,5,562.720356954
GEMS123,2018_Mar_07_1203,Elaine,sf,orientation,8,6,1,SimpleHill,0-0,0,24,selected,45-5,47-2;52-8;49-11;49-8;42-0;45-8,47-2,1.85,53,-6,568.141752321
GEMS123,2018_Mar_07_1203,Elaine,sf,orientation,8,6,1,SimpleHill,0-0,0,25,selected,47-2,45-1;48-4;53-5;44-2;45-9;48-0,44-2,1.42,53,0,573.150948898
GEMS123,2018_Mar_07_1203,Elaine,sf,orientation,8,6,1,SimpleHill,0-0,0,26,selected,44-2,46-1;45-6;48-1;41-2;40-1;47-4,40-1,1.38,49,-4,578.101311195
GEMS123,2018_Mar_07_1203,Elaine,sf,orientation,8,6,1,SimpleHill,0-0,0,27,selected,40-1,36-7;37-8;40-1;45-7;39-6;35-4,39-6,0.19,58,9,581.866271118
GEMS123,2018_Mar_07_1203,Elaine,sf,orientation,8,6,1,SimpleHill,0-0,0,28,selected,39-6,34-10;43-0;38-2;36-5;42-10;35-12,42-10,0.2,66,8,585.622986738
GEMS123,2018_Mar_07_1203,Elaine,sf,orientation,8,6,1,SimpleHill,0-0,0,29,selected,42-10,37-7;46-10;39-5;38-13;38-5;49-8,49-8,0.42,64,-2,589.618664209
GEMS123,2018_Mar_07_1203,Elaine,sf,orientation,8,6,1,SimpleHill,0-0,0,30,selected,49-8,53-8;47-4;52-8;55-8;47-14;47-15,53-8,0.19,64,0,593.390741389
GEMS123,2018_Mar_07_1203,Elaine,sf,orientation,8,6,1,SimpleHill,0-0,0,31,selected,53-8,57-6;47-6;53-11;59-4;54-3;47-3,47-3,2.13,55,-9,599.094455134
GEMS123,2018_Mar_07_1203,Elaine,sf,orientation,8,6,1,SimpleHill,0-0,0,32,selected,47-3,50-9;53-1;49-6;41-1;42-8;51-0,50-9,5.14,66,11,607.813654634
GEMS123,2018_Mar_07_1203,Elaine,sf,orientation,8,6,1,SimpleHill,0-0,0,33,selected,50-9,55-9;47-13;53-8;50-7;47-5;52-2,47-13,1.77,72,6,613.147541514
GEMS123,2018_Mar_07_1203,Elaine,sf,orientation,8,6,1,SimpleHill,0-0,0,34,selected,47-13,45-14;43-16;46-20;43-13;48-18;45-16,43-16,2.8,75,3,619.514849251
GEMS123,2018_Mar_07_1203,Elaine,sf,orientation,8,6,1,SimpleHill,0-0,0,35,selected,43-16,47-21;46-19;42-12;47-14;47-16;39-19,42-12,2.17,69,-6,625.249415431
GEMS123,2018_Mar_07_1203,Elaine,sf,orientation,8,6,1,SimpleHill,0-0,0,36,selected,42-12,36-14;37-17;44-19;42-19;39-11;43-8,39-11,1.3,67,-2,630.119177478
GEMS123,2018_Mar_07_1203,Elaine,sf,orientation,8,6,1,SimpleHill,0-0,0,37,selected,39-11,38-18;44-17;34-14;37-4;35-13;44-16,34-14,1.53,68,1,635.238376721
GEMS123,2018_Mar_07_1203,Elaine,sf,orientation,8,6,1,SimpleHill,0-0,0,38,selected,34-14,39-15;34-15;31-19;33-13;38-16;40-10,39-15,0.58,73,5,639.400061842
GEMS123,2018_Mar_07_1203,Elaine,sf,orientation,8,6,1,SimpleHill,0-0,0,39,selected,39-15,43-16;41-15;33-17;34-18;40-16;44-16,43-16,0.9,75,2,643.85970346
GEMS123,2018_Mar_07_1203,Elaine,sf,orientation,8,6,2,SimpleHill,0-0,0,0,selected,0-0,1-0;5-2;1-1;1-7;4-0;2-4,4-0,2.1,7,7,658.32803687
GEMS123,2018_Mar_07_1203,Elaine,sf,orientation,8,6,2,SimpleHill,0-0,0,1,selected,4-0,5-0;7-3;0-6;5-4;2-1;7-7,2-1,1.27,5,-2,663.167810731
GEMS123,2018_Mar_07_1203,Elaine,sf,orientation,8,6,2,SimpleHill,0-0,0,2,selected,2-1,4-1;5-2;1-3;1-4;6-7;7-7,7-7,2.83,26,21,669.558783546
GEMS123,2018_Mar_07_1203,Elaine,sf,orientation,8,6,2,SimpleHill,0-0,0,3,selected,7-7,6-5;8-9;12-4;8-14;9-3;14-6,14-6,2.61,35,9,675.757194799
GEMS123,2018_Mar_07_1203,Elaine,sf,orientation,8,6,2,SimpleHill,0-0,0,4,selected,14-6,10-8;14-9;16-0;22-6;14-8;7-7,22-6,4.04,45,10,683.370690795
GEMS123,2018_Mar_07_1203,Elaine,sf,orientation,8,6,2,SimpleHill,0-0,0,5,selected,22-6,20-12;29-5;18-12;24-13;18-0;22-5,22-5,4.22,43,-2,691.166574533
GEMS123,2018_Mar_07_1203,Elaine,sf,orientation,8,6,2,SimpleHill,0-0,0,6,selected,22-5,14-5;25-6;23-12;24-12;20-7;26-0,26-0,1.86,38,-5,696.58461309
GEMS123,2018_Mar_07_1203,Elaine,sf,orientation,8,6,2,SimpleHill,0-0,0,7,selected,26-0,26-2;25-3;30-5;24-6;25-6;31-3,24-6,0.57,47,9,700.728605098
GEMS123,2018_Mar_07_1203,Elaine,sf,orientation,8,6,2,SimpleHill,0-0,0,8,selected,24-6,29-4;27-4;21-11;27-7;24-4;24-3,27-4,1.61,47,0,705.89469021
GEMS123,2018_Mar_07_1203,Elaine,sf,orientation,8,6,2,SimpleHill,0-0,0,9,selected,27-4,30-5;27-3;34-1;28-7;26-0;29-2,28-7,0.84,53,6,710.298564033
GEMS123,2018_Mar_07_1203,Elaine,sf,orientation,8,6,2,SimpleHill,0-0,0,10,selected,28-7,25-3;34-12;25-13;22-7;35-9;27-0,27-0,2.65,39,-14,716.533081079
GEMS123,2018_Mar_07_1203,Elaine,sf,orientation,8,6,2,SimpleHill,0-0,0,11,selected,27-0,24-1;33-0;33-5;22-0;29-1;26-5,29-1,3.54,43,4,723.645403776
GEMS123,2018_Mar_07_1203,Elaine,sf,orientation,8,6,2,SimpleHill,0-0,0,12,selected,29-1,27-6;35-6;22-2;35-1;23-0;29-3,35-6,2.33,56,13,729.555767315
GEMS123,2018_Mar_07_1203,Elaine,sf,orientation,8,6,2,SimpleHill,0-0,0,13,selected,35-6,36-1;28-4;31-11;30-4;32-8;33-4,30-4,1.97,49,-7,735.103100192
GEMS123,2018_Mar_07_1203,Elaine,sf,orientation,8,6,2,SimpleHill,0-0,0,14,selected,30-4,32-8;29-4;32-7;35-8;22-4;34-1,32-8,0.6,58,9,739.271528701
GEMS123,2018_Mar_07_1203,Elaine,sf,orientation,8,6,2,SimpleHill,0-0,0,15,selected,32-8,25-11;35-4;36-2;25-8;30-8;30-1,35-4,0.2,53,-5,743.039847034
GEMS123,2018_Mar_07_1203,Elaine,sf,orientation,8,6,2,SimpleHill,0-0,0,16,selected,35-4,42-4;38-6;35-12;29-0;32-1;30-8,30-8,0.17,56,3,746.791637712
GEMS123,2018_Mar_07_1203,Elaine,sf,orientation,8,6,2,SimpleHill,0-0,0,17,selected,30-8,33-6;31-5;36-12;35-9;30-2;25-12,30-2,1.16,45,-11,751.520689018
GEMS123,2018_Mar_07_1203,Elaine,sf,orientation,8,6,2,SimpleHill,0-0,0,18,selected,30-2,27-4;32-2;35-8;27-7;34-8;27-3,35-8,0.42,60,15,755.504044209
GEMS123,2018_Mar_07_1203,Elaine,sf,orientation,8,6,2,SimpleHill,0-0,0,19,selected,35-8,41-8;35-0;40-12;39-10;40-6;40-3,35-0,1.02,45,-15,760.097616367
GEMS123,2018_Mar_07_1203,Elaine,sf,orientation,8,6,2,SimpleHill,0-0,0,20,selected,35-0,30-0;36-7;35-5;37-7;29-1;39-4,30-0,0.44,42,-3,764.111707159
GEMS123,2018_Mar_07_1203,Elaine,sf,orientation,8,6,2,SimpleHill,0-0,0,21,selected,30-0,34-6;29-4;29-3;24-2;37-2;31-1,31-1,1.95,44,2,769.642849758
GEMS123,2018_Mar_07_1203,Elaine,sf,orientation,8,6,2,SimpleHill,0-0,0,22,selected,31-1,30-6;31-4;30-4;30-1;24-3;29-6,24-3,0.43,42,-2,773.649123891
GEMS123,2018_Mar_07_1203,Elaine,sf,orientation,8,6,2,SimpleHill,0-0,0,23,selected,24-3,27-3;19-3;21-3;24-6;29-2;20-7,24-6,0.54,47,5,777.767416633
GEMS123,2018_Mar_07_1203,Elaine,sf,orientation,8,6,2,SimpleHill,0-0,0,24,selected,24-6,22-13;18-9;27-2;19-6;29-12;20-9,22-13,0.22,56,9,781.561093334
GEMS123,2018_Mar_07_1203,Elaine,sf,orientation,8,6,2,SimpleHill,0-0,0,25,selected,22-13,22-8;16-15;20-20;25-6;28-13;23-7,20-20,1.35,64,8,786.479361876
GEMS123,2018_Mar_07_1203,Elaine,sf,orientation,8,6,2,SimpleHill,0-0,0,26,selected,20-20,15-20;27-23;15-23;16-20;14-18;23-24,27-23,2.16,74,10,792.229116125
GEMS123,2018_Mar_07_1203,Elaine,sf,orientation,8,6,2,SimpleHill,0-0,0,27,selected,27-23,24-28;21-20;30-25;22-25;23-26;29-24,29-24,3.89,77,3,799.68902278
GEMS123,2018_Mar_07_1203,Elaine,sf,orientation,8,6,2,SimpleHill,0-0,0,28,selected,29-24,29-26;34-26;34-19;35-29;28-22;31-28,31-28,1.59,83,6,804.840172056
GEMS123,2018_Mar_07_1203,Elaine,sf,orientation,8,6,2,SimpleHill,0-0,0,29,selected,31-28,24-26;31-25;25-23;27-23;33-21;37-26,24-26,1.51,74,-9,809.917656526
GEMS123,2018_Mar_07_1203,Elaine,sf,orientation,8,6,2,SimpleHill,0-0,0,30,selected,24-26,22-26;19-23;28-26;28-31;25-23;23-30,23-30,0.81,77,3,814.293095573
GEMS123,2018_Mar_07_1203,Elaine,sf,orientation,8,6,2,SimpleHill,0-0,0,31,selected,23-30,26-31;27-34;20-28;18-36;25-34;19-33,25-34,1.66,82,5,819.522237306
GEMS123,2018_Mar_07_1203,Elaine,sf,orientation,8,6,2,SimpleHill,0-0,0,32,selected,25-34,28-27;20-39;32-31;27-40;20-34;26-33,28-27,0.33,79,-3,823.414353332
GEMS123,2018_Mar_07_1203,Elaine,sf,orientation,8,6,2,SimpleHill,0-0,0,33,selected,28-27,24-24;22-23;33-23;25-29;27-21;31-30,33-23,0.55,79,0,827.536603697
GEMS123,2018_Mar_07_1203,Elaine,sf,orientation,8,6,2,SimpleHill,0-0,0,34,selected,33-23,29-19;39-18;32-19;35-24;30-18;34-18,39-18,0.25,77,-2,831.352057571
GEMS123,2018_Mar_07_1203,Elaine,sf,orientation,8,6,2,SimpleHill,0-0,0,35,selected,39-18,43-12;35-17;46-20;46-15;34-13;41-14,41-14,0.5,72,-5,835.41067803
GEMS123,2018_Mar_07_1203,Elaine,sf,orientation,8,6,2,SimpleHill,0-0,0,36,selected,41-14,41-12;45-18;39-18;40-8;45-15;44-7,45-15,0.69,75,3,839.664049484
GEMS123,2018_Mar_07_1203,Elaine,sf,orientation,8,6,2,SimpleHill,0-0,0,37,selected,45-15,39-16;37-15;39-10;45-7;38-13;48-11,37-15,3.02,72,-3,846.236828754
GEMS123,2018_Mar_07_1203,Elaine,sf,orientation,8,6,2,SimpleHill,0-0,0,38,selected,37-15,35-15;39-22;29-15;39-18;31-13;36-21,35-15,0.44,71,-1,850.247962851
GEMS123,2018_Mar_07_1203,Elaine,sf,orientation,8,6,2,SimpleHill,0-0,0,39,selected,35-15,41-12;29-20;28-14;31-18;38-20;30-15,30-15,0.48,67,-4,854.311904208
GEMS123,2018_Mar_07_1203,Elaine,sf,orientation,8,6,3,SimpleHill,0-0,0,0,selected,0-0,3-6;1-2;6-1;3-4;1-4;5-5,5-5,2.07,19,19,865.705360941
GEMS123,2018_Mar_07_1203,Elaine,sf,orientation,8,6,3,SimpleHill,0-0,0,1,selected,5-5,2-11;6-7;8-2;10-6;6-12;11-9,11-9,2.03,35,16,871.299147242
GEMS123,2018_Mar_07_1203,Elaine,sf,orientation,8,6,3,SimpleHill,0-0,0,2,selected,11-9,12-5;8-4;6-4;13-3;9-10;13-9,13-9,1.89,39,4,876.771448838
GEMS123,2018_Mar_07_1203,Elaine,sf,orientation,8,6,3,SimpleHill,0-0,0,3,selected,13-9,14-15;11-10;10-12;15-12;13-17;9-13,9-13,0.25,39,0,880.584962311
GEMS123,2018_Mar_07_1203,Elaine,sf,orientation,8,6,3,SimpleHill,0-0,0,4,selected,9-13,10-9;12-12;3-11;11-12;12-11;5-18,5-18,0.23,39,0,884.382931132
GEMS123,2018_Mar_07_1203,Elaine,sf,orientation,8,6,3,SimpleHill,0-0,0,5,selected,5-18,9-14;4-11;1-16;5-10;4-25;7-17,7-17,0.25,41,2,888.207495478
GEMS123,2018_Mar_07_1203,Elaine,sf,orientation,8,6,3,SimpleHill,0-0,0,6,selected,7-17,7-21;13-16;2-20;14-17;4-24;2-16,2-16,0.28,30,-11,892.058947914
GEMS123,2018_Mar_07_1203,Elaine,sf,orientation,8,6,3,SimpleHill,0-0,0,7,selected,2-16,6-16;8-13;1-17;0-17;9-16;3-18,3-18,0.14,35,5,895.761987224
GEMS123,2018_Mar_07_1203,Elaine,sf,orientation,8,6,3,SimpleHill,0-0,0,8,selected,3-18,5-19;7-24;4-13;4-18;1-18;0-12,0-12,0.22,21,-14,899.56194766
GEMS123,2018_Mar_07_1203,Elaine,sf,orientation,8,6,3,SimpleHill,0-0,0,9,selected,0-12,4-7;5-15;7-12;3-5;5-18;5-17,5-17,0.17,37,16,903.296864022
GEMS123,2018_Mar_07_1203,Elaine,sf,orientation,8,6,3,SimpleHill,0-0,0,10,selected,5-17,1-18;8-18;0-23;2-20;6-20;9-21,9-21,0.2,49,12,907.072626106
GEMS123,2018_Mar_07_1203,Elaine,sf,orientation,8,6,3,SimpleHill,0-0,0,11,selected,9-21,9-23;9-29;4-21;11-19;3-20;13-24,3-20,0.91,37,-12,911.543579473
GEMS123,2018_Mar_07_1203,Elaine,sf,orientation,8,6,3,SimpleHill,0-0,0,12,selected,3-20,6-18;0-14;0-15;7-21;8-26;10-18,7-21,0.45,46,9,915.579322921
GEMS123,2018_Mar_07_1203,Elaine,sf,orientation,8,6,3,SimpleHill,0-0,0,13,selected,7-21,5-28;9-18;10-24;4-22;0-22;5-17,5-17,1.78,37,-9,920.926099926
GEMS123,2018_Mar_07_1203,Elaine,sf,orientation,8,6,3,SimpleHill,0-0,0,14,selected,5-17,12-20;8-18;7-15;1-23;4-14;2-20,2-20,2.34,35,-2,926.84686391
GEMS123,2018_Mar_07_1203,Elaine,sf,orientation,8,6,3,SimpleHill,0-0,0,15,selected,2-20,6-25;8-18;6-19;4-25;5-15;1-19,6-25,1.4,48,13,931.830594889
GEMS123,2018_Mar_07_1203,Elaine,sf,orientation,8,6,3,SimpleHill,0-0,0,16,selected,6-25,5-21;3-22;2-24;9-24;10-21;4-30,10-21,4.69,51,3,940.093526545
GEMS123,2018_Mar_07_1203,Elaine,sf,orientation,8,6,3,SimpleHill,0-0,0,17,selected,10-21,12-26;8-16;9-19;14-16;16-25;8-20,14-16,2.85,50,-1,946.520946693
GEMS123,2018_Mar_07_1203,Elaine,sf,orientation,8,6,3,SimpleHill,0-0,0,18,selected,14-16,13-9;12-18;18-21;17-16;13-22;12-23,17-16,2.72,55,5,952.811402463
GEMS123,2018_Mar_07_1203,Elaine,sf,orientation,8,6,3,SimpleHill,0-0,0,19,selected,17-16,22-11;23-16;10-14;14-14;14-22;21-11,23-16,3.41,62,7,959.786213424
GEMS123,2018_Mar_07_1203,Elaine,sf,orientation,8,6,3,SimpleHill,0-0,0,20,selected,23-16,20-9;16-17;18-21;22-12;25-22;27-22,22-12,1.79,55,-7,965.155929537
GEMS123,2018_Mar_07_1203,Elaine,sf,orientation,8,6,3,SimpleHill,0-0,0,21,selected,22-12,21-5;22-16;19-5;19-11;28-13;30-12,30-12,1.24,63,8,969.975001737
GEMS123,2018_Mar_07_1203,Elaine,sf,orientation,8,6,3,SimpleHill,0-0,0,22,selected,30-12,27-19;33-18;35-15;32-5;32-8;23-12,32-5,1.1,53,-10,974.64721742
GEMS123,2018_Mar_07_1203,Elaine,sf,orientation,8,6,3,SimpleHill,0-0,0,23,selected,32-5,30-10;32-5;35-11;33-11;33-12;35-4,35-11,0.74,65,12,978.949075205
GEMS123,2018_Mar_07_1203,Elaine,sf,orientation,8,6,3,SimpleHill,0-0,0,24,selected,35-11,38-15;40-7;29-6;38-6;38-7;35-11,29-6,0.34,52,-13,982.843703637
GEMS123,2018_Mar_07_1203,Elaine,sf,orientation,8,6,3,SimpleHill,0-0,0,25,selected,29-6,24-10;23-10;32-11;35-11;34-11;29-1,32-11,0.21,63,11,986.615409189
GEMS123,2018_Mar_07_1203,Elaine,sf,orientation,8,6,3,SimpleHill,0-0,0,26,selected,32-11,37-8;32-16;33-15;31-10;33-4;36-6,33-15,0.26,69,6,990.455386308
GEMS123,2018_Mar_07_1203,Elaine,sf,orientation,8,6,3,SimpleHill,0-0,0,27,selected,33-15,39-14;37-11;36-12;30-20;33-16;34-16,34-16,0.2,71,2,994.210299488
GEMS123,2018_Mar_07_1203,Elaine,sf,orientation,8,6,3,SimpleHill,0-0,0,28,selected,34-16,30-15;34-19;30-20;35-20;37-19;28-21,28-21,0.17,73,2,997.954137468
GEMS123,2018_Mar_07_1203,Elaine,sf,orientation,8,6,3,SimpleHill,0-0,0,29,selected,28-21,28-27;32-25;35-21;23-21;25-16;31-22,35-21,0.25,78,5,1001.76311235
GEMS123,2018_Mar_07_1203,Elaine,sf,orientation,8,6,3,SimpleHill,0-0,0,30,selected,35-21,41-26;40-25;31-16;33-22;36-16;31-20,31-20,0.21,74,-4,1005.5519627
GEMS123,2018_Mar_07_1203,Elaine,sf,orientation,8,6,3,SimpleHill,0-0,0,31,selected,31-20,25-16;25-25;28-20;33-27;25-21;36-20,36-20,0.19,78,4,1009.30701063
GEMS123,2018_Mar_07_1203,Elaine,sf,orientation,8,6,3,SimpleHill,0-0,0,32,selected,36-20,32-21;41-18;42-20;40-24;38-22;30-16,30-16,0.22,68,-10,1013.09623293
GEMS123,2018_Mar_07_1203,Elaine,sf,orientation,8,6,3,SimpleHill,0-0,0,33,selected,30-16,24-16;22-16;34-18;23-13;25-13;27-19,34-18,0.32,74,6,1016.98404691
GEMS123,2018_Mar_07_1203,Elaine,sf,orientation,8,6,3,SimpleHill,0-0,0,34,selected,34-18,29-24;28-20;34-22;32-11;38-21;36-23,34-22,0.18,79,5,1020.73396217
GEMS123,2018_Mar_07_1203,Elaine,sf,orientation,8,6,3,SimpleHill,0-0,0,35,selected,34-22,31-17;36-24;31-24;32-22;37-19;33-16,33-16,0.31,71,-8,1024.62215194
GEMS123,2018_Mar_07_1203,Elaine,sf,orientation,8,6,3,SimpleHill,0-0,0,36,selected,33-16,26-15;28-16;32-16;32-15;30-14;29-20,29-20,0.06,73,2,1028.24421041
GEMS123,2018_Mar_07_1203,Elaine,sf,orientation,8,6,3,SimpleHill,0-0,0,37,selected,29-20,28-13;30-17;31-20;23-20;29-13;22-21,31-20,0.21,74,1,1032.01348966
GEMS123,2018_Mar_07_1203,Elaine,sf,orientation,8,6,3,SimpleHill,0-0,0,38,selected,31-20,31-26;34-22;33-17;31-12;36-23;32-19,33-17,0.29,72,-2,1035.87983984
GEMS123,2018_Mar_07_1203,Elaine,sf,orientation,8,6,3,SimpleHill,0-0,0,39,selected,33-17,35-10;38-15;31-11;28-23;33-16;34-15,34-15,0.17,70,-2,1039.62023074
GEMS123,2018_Mar_07_1203,Elaine,sf,orientation,8,6,4,SimpleHill,0-0,0,0,selected,0-0,2-4;3-0;6-2;1-7;2-5;5-5,5-5,1.63,19,19,1053.39479248
GEMS123,2018_Mar_07_1203,Elaine,sf,orientation,8,6,4,SimpleHill,0-0,0,1,selected,5-5,4-8;5-2;6-2;8-8;8-3;1-9,1-9,0.36,18,-1,1057.31132484
GEMS123,2018_Mar_07_1203,Elaine,sf,orientation,8,6,4,SimpleHill,0-0,0,2,selected,1-9,2-9;0-4;2-15;9-9;1-12;3-14,3-14,0.22,29,11,1061.08767301
GEMS123,2018_Mar_07_1203,Elaine,sf,orientation,8,6,4,SimpleHill,0-0,0,3,selected,3-14,0-7;6-16;10-11;9-10;6-12;3-12,6-16,0.15,38,9,1064.7989387
GEMS123,2018_Mar_07_1203,Elaine,sf,orientation,8,6,4,SimpleHill,0-0,0,4,selected,6-16,9-20;13-19;5-19;10-10;2-13;2-18,2-18,1.96,33,-5,1070.31896577
GEMS123,2018_Mar_07_1203,Elaine,sf,orientation,8,6,4,SimpleHill,0-0,0,5,selected,2-18,2-17;4-12;2-16;0-16;3-11;3-16,3-11,0.76,25,-8,1074.64887806
GEMS123,2018_Mar_07_1203,Elaine,sf,orientation,8,6,4,SimpleHill,0-0,0,6,selected,3-11,4-7;3-7;3-6;9-14;6-12;4-14,3-6,1.17,17,-8,1079.40537474
GEMS123,2018_Mar_07_1203,Elaine,sf,orientation,8,6,4,SimpleHill,0-0,0,7,selected,3-6,7-7;2-12;6-13;8-3;4-12;3-12,3-12,0.89,26,9,1083.85973995
GEMS123,2018_Mar_07_1203,Elaine,sf,orientation,8,6,4,SimpleHill,0-0,0,8,selected,3-12,1-12;3-4;1-8;10-14;8-18;4-13,1-12,0.22,23,-3,1087.65678787
GEMS123,2018_Mar_07_1203,Elaine,sf,orientation,8,6,4,SimpleHill,0-0,0,9,selected,1-12,8-9;3-12;0-14;5-14;3-15;2-14,5-14,0.22,33,10,1091.44793552
GEMS123,2018_Mar_07_1203,Elaine,sf,orientation,8,6,4,SimpleHill,0-0,0,10,selected,5-14,1-18;9-14;1-14;2-9;7-12;10-9,7-12,0.36,34,1,1095.38438339
GEMS123,2018_Mar_07_1203,Elaine,sf,orientation,8,6,4,SimpleHill,0-0,0,11,selected,7-12,1-11;12-8;7-14;10-5;12-7;7-20,12-8,0.25,35,1,1099.20808445
GEMS123,2018_Mar_07_1203,Elaine,sf,orientation,8,6,4,SimpleHill,0-0,0,12,selected,12-8,14-9;15-11;12-8;12-15;17-4;10-4,10-4,0.54,25,-10,1103.31275021
GEMS123,2018_Mar_07_1203,Elaine,sf,orientation,8,6,4,SimpleHill,0-0,0,13,selected,10-4,11-8;13-4;4-0;11-9;6-4;12-8,6-4,0.48,18,-7,1107.36693739
GEMS123,2018_Mar_07_1203,Elaine,sf,orientation,8,6,4,SimpleHill,0-0,0,14,selected,6-4,7-6;1-3;10-5;7-5;9-1;9-10,10-5,0.75,27,9,1111.67067668
GEMS123,2018_Mar_07_1203,Elaine,sf,orientation,8,6,4,SimpleHill,0-0,0,15,selected,10-5,16-9;10-0;17-5;15-3;5-9;5-2,15-3,0.98,31,4,1116.22052292
GEMS123,2018_Mar_07_1203,Elaine,sf,orientation,8,6,4,SimpleHill,0-0,0,16,selected,15-3,13-6;11-3;12-6;12-10;13-7;11-7,13-6,0.8,33,2,1120.59849102
GEMS123,2018_Mar_07_1203,Elaine,sf,orientation,8,6,4,SimpleHill,0-0,0,17,selected,13-6,16-13;7-1;12-9;16-1;10-3;15-12,15-12,0.26,46,13,1124.41686414
GEMS123,2018_Mar_07_1203,Elaine,sf,orientation,8,6,4,SimpleHill,0-0,0,18,selected,15-12,18-16;11-7;16-16;10-6;20-18;11-6,16-16,0.29,53,7,1128.28064462
GEMS123,2018_Mar_07_1203,Elaine,sf,orientation,8,6,4,SimpleHill,0-0,0,19,selected,16-16,19-18;22-12;15-18;12-16;20-19;10-15,10-15,0.63,43,-10,1132.46457104
GEMS123,2018_Mar_07_1203,Elaine,sf,orientation,8,6,4,SimpleHill,0-0,0,20,selected,10-15,14-17;10-13;14-16;10-12;7-18;7-10,14-16,1.36,50,7,1137.38266225
GEMS123,2018_Mar_07_1203,Elaine,sf,orientation,8,6,4,SimpleHill,0-0,0,21,selected,14-16,8-17;13-17;18-10;10-16;17-16;14-23,14-23,0.19,59,9,1141.16557777
GEMS123,2018_Mar_07_1203,Elaine,sf,orientation,8,6,4,SimpleHill,0-0,0,22,selected,14-23,14-28;15-27;16-23;21-21;8-23;12-22,15-27,0.23,64,5,1144.96156457
GEMS123,2018_Mar_07_1203,Elaine,sf,orientation,8,6,4,SimpleHill,0-0,0,23,selected,15-27,19-23;18-23;9-27;11-28;10-24;21-29,10-24,0.87,54,-10,1149.39995333
GEMS123,2018_Mar_07_1203,Elaine,sf,orientation,8,6,4,SimpleHill,0-0,0,24,selected,10-24,3-26;11-25;9-21;11-18;12-24;15-23,9-21,0.36,49,-5,1153.32690534
GEMS123,2018_Mar_07_1203,Elaine,sf,orientation,8,6,4,SimpleHill,0-0,0,25,selected,9-21,6-22;3-24;4-17;4-21;11-23;4-26,4-26,0.43,46,-3,1157.3250312
GEMS123,2018_Mar_07_1203,Elaine,sf,orientation,8,6,4,SimpleHill,0-0,0,26,selected,4-26,10-30;8-22;9-29;1-24;0-25;9-24,8-22,0.24,49,3,1161.12754245
GEMS123,2018_Mar_07_1203,Elaine,sf,orientation,8,6,4,SimpleHill,0-0,0,27,selected,8-22,6-26;6-15;9-20;9-29;8-15;2-25,8-15,0.46,40,-9,1165.15536265
GEMS123,2018_Mar_07_1203,Elaine,sf,orientation,8,6,4,SimpleHill,0-0,0,28,selected,8-15,3-21;10-16;6-14;8-19;11-8;9-10,9-10,7.75,34,-6,1176.46155097
GEMS123,2018_Mar_07_1203,Elaine,sf,orientation,8,6,4,SimpleHill,0-0,0,29,selected,9-10,6-16;7-5;13-6;3-13;16-12;9-11,13-6,1.61,33,-1,1181.62942668
GEMS123,2018_Mar_07_1203,Elaine,sf,orientation,8,6,4,SimpleHill,0-0,0,30,selected,13-6,16-7;10-3;20-4;8-2;18-8;16-13,20-4,7.32,39,6,1192.52538542
GEMS123,2018_Mar_07_1203,Elaine,sf,orientation,8,6,4,SimpleHill,0-0,0,31,selected,20-4,14-2;16-5;13-3;23-8;23-3;23-7,14-2,11.14,28,-11,1207.22480608
GEMS123,2018_Mar_07_1203,Elaine,sf,orientation,8,6,4,SimpleHill,0-0,0,32,selected,14-2,20-5;16-5;15-8;17-0;16-6;21-3,21-3,4.62,39,11,1215.40994374
GEMS123,2018_Mar_07_1203,Elaine,sf,orientation,8,6,4,SimpleHill,0-0,0,33,selected,21-3,20-0;26-9;20-3;15-2;22-1;27-4,27-4,10.08,47,8,1229.06159316
GEMS123,2018_Mar_07_1203,Elaine,sf,orientation,8,6,4,SimpleHill,0-0,0,34,selected,27-4,21-2;31-5;33-9;28-0;24-1;20-6,31-5,7.43,52,5,1240.06000102
GEMS123,2018_Mar_07_1203,Elaine,sf,orientation,8,6,4,SimpleHill,0-0,0,35,selected,31-5,33-4;38-6;36-4;31-6;27-5;31-9,31-6,5.45,54,2,1249.07867201
GEMS123,2018_Mar_07_1203,Elaine,sf,orientation,8,6,4,SimpleHill,0-0,0,36,selected,31-6,36-11;27-12;25-8;26-1;25-5;31-7,26-1,1.21,40,-14,1253.85323407
GEMS123,2018_Mar_07_1203,Elaine,sf,orientation,8,6,4,SimpleHill,0-0,0,37,selected,26-1,25-7;25-4;22-7;24-0;23-6;19-3,19-3,0.72,36,-4,1258.16677331
GEMS123,2018_Mar_07_1203,Elaine,sf,orientation,8,6,4,SimpleHill,0-0,0,38,selected,19-3,13-4;22-8;18-2;20-8;23-5;16-5,13-4,0.39,30,-6,1262.13852547
GEMS123,2018_Mar_07_1203,Elaine,sf,orientation,8,6,4,SimpleHill,0-0,0,39,selected,13-4,8-0;9-0;20-1;14-6;17-5;18-9,9-0,0.19,16,-14,1265.88909435
