subj_id,date,computer,experimenter,version,generation,inherit_from,sight_radius,n_gabors,block_ix,landscape_name,starting_pos,starting_score,trial,pos,stims,selected,rt,score,delta,exp_time,landscape_ix
GEMS125,2018_Oct_04_1436,Kramer,VC,1.2,2,GEMS111,10,6,1,SimpleHill,0-0,0,0,0-0,2-2;6-7;0-5;1-6;9-0;0-1,6-7,5.53,24,24,540.474370288,1
GEMS125,2018_Oct_04_1436,Kramer,VC,1.2,2,GEMS111,10,6,1,SimpleHill,0-0,0,1,6-7,8-11;3-3;14-4;1-13;12-15;1-9,8-11,6.03,34,10,550.625928391,1
GEMS125,2018_Oct_04_1436,Kramer,VC,1.2,2,GEMS111,10,6,1,SimpleHill,0-0,0,2,8-11,12-5;13-6;3-4;13-15;0-9;5-14,13-15,7.82,48,14,562.512470355,1
GEMS125,2018_Oct_04_1436,Kramer,VC,1.2,2,GEMS111,10,6,1,SimpleHill,0-0,0,3,13-15,20-9;4-13;5-10;9-24;21-11;4-19,9-24,8.77,52,4,575.350939426,1
GEMS125,2018_Oct_04_1436,Kramer,VC,1.2,2,GEMS111,10,6,1,SimpleHill,0-0,0,4,9-24,6-20;3-29;4-19;16-24;6-21;14-23,16-24,7.43,63,11,586.851574651,1
GEMS125,2018_Oct_04_1436,Kramer,VC,1.2,2,GEMS111,10,6,1,SimpleHill,0-0,0,5,16-24,21-16;18-23;7-21;18-28;10-27;10-26,18-28,9.66,69,6,600.600434559,1
GEMS125,2018_Oct_04_1436,Kramer,VC,1.2,2,GEMS111,10,6,1,SimpleHill,0-0,0,6,18-28,20-35;10-33;18-28;20-30;13-30;17-33,17-33,7.21,72,3,611.875819159,1
GEMS125,2018_Oct_04_1436,Kramer,VC,1.2,2,GEMS111,10,6,1,SimpleHill,0-0,0,7,17-33,18-37;17-38;11-26;14-33;20-30;9-34,9-34,6.08,61,-11,622.016633009,1
GEMS125,2018_Oct_04_1436,Kramer,VC,1.2,2,GEMS111,10,6,1,SimpleHill,0-0,0,8,9-34,17-38;14-26;17-35;14-40;9-31;13-43,14-40,5.61,72,11,631.681174896,1
GEMS125,2018_Oct_04_1436,Kramer,VC,1.2,2,GEMS111,10,6,1,SimpleHill,0-0,0,9,14-40,23-41;11-48;14-35;22-36;14-41;11-35,11-48,4.89,69,-3,640.644716908,1
GEMS125,2018_Oct_04_1436,Kramer,VC,1.2,2,GEMS111,10,6,1,SimpleHill,0-0,0,10,11-48,18-54;13-48;19-46;18-50;12-40;6-56,6-56,6.68,60,-9,651.407159655,1
GEMS125,2018_Oct_04_1436,Kramer,VC,1.2,2,GEMS111,10,6,1,SimpleHill,0-0,0,11,6-56,9-49;11-51;2-55;9-54;4-57;14-59,14-59,4.49,72,12,659.946388851,1
GEMS125,2018_Oct_04_1436,Kramer,VC,1.2,2,GEMS111,10,6,1,SimpleHill,0-0,0,12,14-59,14-56;14-51;6-62;16-63;8-57;10-55,16-63,3.24,73,1,667.307665051,1
GEMS125,2018_Oct_04_1436,Kramer,VC,1.2,2,GEMS111,10,6,1,SimpleHill,0-0,0,13,16-63,15-70;24-60;8-65;12-60;16-54;18-54,8-65,10.42,60,-13,681.805892214,1
GEMS125,2018_Oct_04_1436,Kramer,VC,1.2,2,GEMS111,10,6,1,SimpleHill,0-0,0,14,8-65,13-64;13-68;12-64;4-70;9-56;7-59,13-68,10.07,66,6,695.968022038,1
GEMS125,2018_Oct_04_1436,Kramer,VC,1.2,2,GEMS111,10,6,1,SimpleHill,0-0,0,15,13-68,13-70;22-69;19-65;15-68;12-68;11-67,19-65,9.34,76,10,709.377329199,1
GEMS125,2018_Oct_04_1436,Kramer,VC,1.2,2,GEMS111,10,6,1,SimpleHill,0-0,0,16,19-65,22-63;25-68;13-63;17-64;12-68;22-68,22-68,5.22,77,1,718.664180822,1
GEMS125,2018_Oct_04_1436,Kramer,VC,1.2,2,GEMS111,10,6,1,SimpleHill,0-0,0,17,22-68,21-59;17-70;30-67;25-69;18-63;16-65,30-67,4.43,86,9,727.149104267,1
GEMS125,2018_Oct_04_1436,Kramer,VC,1.2,2,GEMS111,10,6,1,SimpleHill,0-0,0,18,30-67,24-60;30-61;36-69;26-58;31-58;37-68,36-69,4.84,88,2,736.066555722,1
GEMS125,2018_Oct_04_1436,Kramer,VC,1.2,2,GEMS111,10,6,1,SimpleHill,0-0,0,19,36-69,42-70;43-65;31-68;45-65;35-62;29-67,42-70,7.5,90,2,747.632212463,1
GEMS125,2018_Oct_04_1436,Kramer,VC,1.2,2,GEMS111,10,6,1,SimpleHill,0-0,0,20,42-70,51-68;47-66;42-65;39-64;42-63;43-69,47-66,5.86,94,4,757.564358122,1
GEMS125,2018_Oct_04_1436,Kramer,VC,1.2,2,GEMS111,10,6,1,SimpleHill,0-0,0,21,47-66,49-59;47-65;51-66;50-62;55-66;47-66,55-66,5.02,94,0,766.652049606,1
GEMS125,2018_Oct_04_1436,Kramer,VC,1.2,2,GEMS111,10,6,1,SimpleHill,0-0,0,22,55-66,54-62;60-70;65-66;60-69;48-63;63-60,65-66,5.36,90,-4,776.087047136,1
GEMS125,2018_Oct_04_1436,Kramer,VC,1.2,2,GEMS111,10,6,1,SimpleHill,0-0,0,23,65-66,69-65;61-62;68-58;59-63;70-61;60-61,70-61,10.33,89,-1,790.493523072,1
GEMS125,2018_Oct_04_1436,Kramer,VC,1.2,2,GEMS111,10,6,1,SimpleHill,0-0,0,24,70-61,67-64;70-59;62-62;64-67;67-68;64-56,67-68,5.58,87,-2,800.159113585,1
GEMS125,2018_Oct_04_1436,Kramer,VC,1.2,2,GEMS111,10,6,1,SimpleHill,0-0,0,25,67-68,68-64;67-66;63-63;66-65;61-63;64-70,64-70,2.97,88,1,807.219964604,1
GEMS125,2018_Oct_04_1436,Kramer,VC,1.2,2,GEMS111,10,6,1,SimpleHill,0-0,0,26,64-70,57-68;67-69;69-67;59-68;69-64;65-66,65-66,9.63,90,2,820.919132906,1
GEMS125,2018_Oct_04_1436,Kramer,VC,1.2,2,GEMS111,10,6,1,SimpleHill,0-0,0,27,65-66,59-63;59-59;63-58;69-69;62-65;58-66,69-69,12.11,85,-5,837.091120323,1
GEMS125,2018_Oct_04_1436,Kramer,VC,1.2,2,GEMS111,10,6,1,SimpleHill,0-0,0,28,69-69,67-61;65-63;63-64;66-67;62-69;69-69,69-69,5.61,85,0,846.784859842,1
GEMS125,2018_Oct_04_1436,Kramer,VC,1.2,2,GEMS111,10,6,1,SimpleHill,0-0,0,29,69-69,65-61;60-69;66-67;68-63;69-66;64-64,69-66,4.81,87,2,855.686618083,1
GEMS125,2018_Oct_04_1436,Kramer,VC,1.2,2,GEMS111,10,6,1,SimpleHill,0-0,0,30,69-66,65-59;63-61;68-63;64-58;60-67;63-66,68-63,8.97,90,3,868.711663784,1
GEMS125,2018_Oct_04_1436,Kramer,VC,1.2,2,GEMS111,10,6,1,SimpleHill,0-0,0,31,68-63,64-64;65-64;66-67;68-56;60-65;59-66,66-67,3.53,89,-1,876.328785768,1
GEMS125,2018_Oct_04_1436,Kramer,VC,1.2,2,GEMS111,10,6,1,SimpleHill,0-0,0,32,66-67,61-60;57-66;67-61;59-60;69-58;58-69,67-61,8.14,91,2,888.552375428,1
GEMS125,2018_Oct_04_1436,Kramer,VC,1.2,2,GEMS111,10,6,1,SimpleHill,0-0,0,33,67-61,61-56;67-70;64-69;69-59;69-63;63-70,67-70,3.9,86,-5,896.525038499,1
GEMS125,2018_Oct_04_1436,Kramer,VC,1.2,2,GEMS111,10,6,1,SimpleHill,0-0,0,34,67-70,68-61;63-69;61-66;60-70;64-61;64-63,63-69,13.07,89,3,913.67724479,1
GEMS125,2018_Oct_04_1436,Kramer,VC,1.2,2,GEMS111,10,6,1,SimpleHill,0-0,0,35,63-69,70-69;69-63;68-70;67-65;69-67;63-69,68-70,4.97,85,-4,922.732804347,1
GEMS125,2018_Oct_04_1436,Kramer,VC,1.2,2,GEMS111,10,6,1,SimpleHill,0-0,0,36,68-70,63-67;69-62;67-64;59-68;61-65;70-70,70-70,5.72,84,-1,932.517188531,1
GEMS125,2018_Oct_04_1436,Kramer,VC,1.2,2,GEMS111,10,6,1,SimpleHill,0-0,0,37,70-70,66-69;69-64;62-68;66-66;63-63;62-69,66-69,9.28,87,3,945.848819928,1
GEMS125,2018_Oct_04_1436,Kramer,VC,1.2,2,GEMS111,10,6,1,SimpleHill,0-0,0,38,66-69,68-66;57-70;63-65;69-69;59-65;70-62,69-69,6.48,85,-2,956.396205422,1
GEMS125,2018_Oct_04_1436,Kramer,VC,1.2,2,GEMS111,10,6,1,SimpleHill,0-0,0,39,69-69,60-66;68-67;69-63;68-63;70-62;70-61,70-61,9.0,89,4,969.470508043,1
GEMS125,2018_Oct_04_1436,Kramer,VC,1.2,2,GEMS111,10,6,2,SimpleHill,0-0,0,0,0-0,2-2;5-1;5-0;9-4;0-2;1-3,5-0,4.87,9,9,997.867341808,1
GEMS125,2018_Oct_04_1436,Kramer,VC,1.2,2,GEMS111,10,6,2,SimpleHill,0-0,0,1,5-0,3-4;12-7;7-6;7-7;6-8;6-1,12-7,4.75,34,25,1006.69043712,1
GEMS125,2018_Oct_04_1436,Kramer,VC,1.2,2,GEMS111,10,6,2,SimpleHill,0-0,0,2,12-7,12-8;15-8;4-4;15-0;20-13;16-7,20-13,5.73,54,20,1016.50462743,1
GEMS125,2018_Oct_04_1436,Kramer,VC,1.2,2,GEMS111,10,6,2,SimpleHill,0-0,0,3,20-13,21-8;20-13;22-19;12-18;25-19;26-10,25-19,9.47,68,14,1030.05278147,1
GEMS125,2018_Oct_04_1436,Kramer,VC,1.2,2,GEMS111,10,6,2,SimpleHill,0-0,0,4,25-19,23-20;18-26;22-13;25-19;19-21;34-22,34-22,4.99,79,11,1039.12601786,1
GEMS125,2018_Oct_04_1436,Kramer,VC,1.2,2,GEMS111,10,6,2,SimpleHill,0-0,0,5,34-22,34-13;32-29;27-18;27-25;37-29;36-17,32-29,4.63,84,5,1047.83289913,1
GEMS125,2018_Oct_04_1436,Kramer,VC,1.2,2,GEMS111,10,6,2,SimpleHill,0-0,0,6,32-29,31-25;38-25;37-35;35-26;29-32;26-30,26-30,11.76,80,-4,1063.65971712,1
GEMS125,2018_Oct_04_1436,Kramer,VC,1.2,2,GEMS111,10,6,2,SimpleHill,0-0,0,7,26-30,23-34;27-38;23-28;25-35;29-25;34-25,27-38,5.76,86,6,1073.48581106,1
GEMS125,2018_Oct_04_1436,Kramer,VC,1.2,2,GEMS111,10,6,2,SimpleHill,0-0,0,8,27-38,35-34;34-34;33-39;22-42;22-46;26-31,22-46,3.68,84,-2,1081.25248608,1
GEMS125,2018_Oct_04_1436,Kramer,VC,1.2,2,GEMS111,10,6,2,SimpleHill,0-0,0,9,22-46,21-50;25-44;28-43;31-45;28-48;26-46,31-45,4.14,92,8,1089.46437986,1
GEMS125,2018_Oct_04_1436,Kramer,VC,1.2,2,GEMS111,10,6,2,SimpleHill,0-0,0,10,31-45,35-38;27-37;30-43;38-49;33-38;40-42,38-49,4.92,97,5,1098.46415099,1
GEMS125,2018_Oct_04_1436,Kramer,VC,1.2,2,GEMS111,10,6,2,SimpleHill,0-0,0,11,38-49,39-51;41-55;32-56;33-46;34-47;39-54,41-55,4.07,97,0,1106.59324654,1
GEMS125,2018_Oct_04_1436,Kramer,VC,1.2,2,GEMS111,10,6,2,SimpleHill,0-0,0,12,41-55,50-57;47-50;43-50;41-59;44-64;35-49,44-64,4.56,95,-2,1115.22050396,1
GEMS125,2018_Oct_04_1436,Kramer,VC,1.2,2,GEMS111,10,6,2,SimpleHill,0-0,0,13,44-64,47-55;35-61;38-66;52-60;37-57;51-59,52-60,7.88,97,2,1127.183191,1
GEMS125,2018_Oct_04_1436,Kramer,VC,1.2,2,GEMS111,10,6,2,SimpleHill,0-0,0,14,52-60,53-56;55-52;44-54;46-53;45-62;52-53,55-52,8.28,99,2,1139.52884217,1
GEMS125,2018_Oct_04_1436,Kramer,VC,1.2,2,GEMS111,10,6,2,SimpleHill,0-0,0,15,55-52,47-54;51-43;50-57;47-51;57-58;64-56,64-56,5.49,95,-4,1149.08451904,1
GEMS125,2018_Oct_04_1436,Kramer,VC,1.2,2,GEMS111,10,6,2,SimpleHill,0-0,0,16,64-56,66-58;62-57;61-57;64-50;66-48;68-61,68-61,11.58,91,-4,1164.71990779,1
GEMS125,2018_Oct_04_1436,Kramer,VC,1.2,2,GEMS111,10,6,2,SimpleHill,0-0,0,17,68-61,66-70;68-68;60-60;70-54;69-65;67-63,69-65,3.6,88,-3,1172.3828156,1
GEMS125,2018_Oct_04_1436,Kramer,VC,1.2,2,GEMS111,10,6,2,SimpleHill,0-0,0,18,69-65,68-62;63-66;62-68;66-65;67-56;64-65,68-62,6.26,90,2,1182.71801155,1
GEMS125,2018_Oct_04_1436,Kramer,VC,1.2,2,GEMS111,10,6,2,SimpleHill,0-0,0,19,68-62,69-62;65-66;63-63;61-58;65-69;65-55,65-69,5.25,88,-2,1192.04659918,1
GEMS125,2018_Oct_04_1436,Kramer,VC,1.2,2,GEMS111,10,6,2,SimpleHill,0-0,0,20,65-69,60-61;59-65;58-66;61-61;64-62;57-67,64-62,8.29,93,5,1204.4080828,1
GEMS125,2018_Oct_04_1436,Kramer,VC,1.2,2,GEMS111,10,6,2,SimpleHill,0-0,0,21,64-62,69-61;59-60;66-54;66-65;69-55;62-55,66-65,4.34,90,-3,1212.81179537,1
GEMS125,2018_Oct_04_1436,Kramer,VC,1.2,2,GEMS111,10,6,2,SimpleHill,0-0,0,22,66-65,62-66;64-64;57-64;69-69;65-68;59-58,69-69,14.75,85,-5,1231.64411513,1
GEMS125,2018_Oct_04_1436,Kramer,VC,1.2,2,GEMS111,10,6,2,SimpleHill,0-0,0,23,69-69,64-66;60-69;68-60;64-63;62-62;67-63,67-63,7.69,90,5,1243.41415177,1
GEMS125,2018_Oct_04_1436,Kramer,VC,1.2,2,GEMS111,10,6,2,SimpleHill,0-0,0,24,67-63,58-63;62-69;69-57;65-63;59-62;66-59,66-59,9.11,93,3,1256.60671159,1
GEMS125,2018_Oct_04_1436,Kramer,VC,1.2,2,GEMS111,10,6,2,SimpleHill,0-0,0,25,66-59,57-55;69-61;67-55;58-64;58-57;66-65,69-61,4.45,90,-3,1265.12421765,1
GEMS125,2018_Oct_04_1436,Kramer,VC,1.2,2,GEMS111,10,6,2,SimpleHill,0-0,0,26,69-61,68-68;68-60;66-65;67-62;70-68;70-53,66-65,2.47,90,0,1271.67605276,1
GEMS125,2018_Oct_04_1436,Kramer,VC,1.2,2,GEMS111,10,6,2,SimpleHill,0-0,0,27,66-65,65-65;69-67;66-61;69-59;62-64;66-59,66-61,4.56,92,2,1280.29883496,1
GEMS125,2018_Oct_04_1436,Kramer,VC,1.2,2,GEMS111,10,6,2,SimpleHill,0-0,0,28,66-61,63-53;70-66;66-65;60-68;64-63;58-60,64-63,1.94,92,0,1286.30658794,1
GEMS125,2018_Oct_04_1436,Kramer,VC,1.2,2,GEMS111,10,6,2,SimpleHill,0-0,0,29,64-63,60-70;63-57;59-66;57-70;60-54;67-65,67-65,3.29,89,-3,1293.65641248,1
GEMS125,2018_Oct_04_1436,Kramer,VC,1.2,2,GEMS111,10,6,2,SimpleHill,0-0,0,30,67-65,60-65;61-67;65-62;68-65;68-56;65-65,65-65,4.55,91,2,1302.28028395,1
GEMS125,2018_Oct_04_1436,Kramer,VC,1.2,2,GEMS111,10,6,2,SimpleHill,0-0,0,31,65-65,69-61;62-56;60-59;68-67;69-57;67-60,68-67,3.15,87,-4,1309.50355576,1
GEMS125,2018_Oct_04_1436,Kramer,VC,1.2,2,GEMS111,10,6,2,SimpleHill,0-0,0,32,68-67,67-61;66-63;68-58;64-69;69-67;62-66,62-66,3.94,92,5,1317.52967697,1
GEMS125,2018_Oct_04_1436,Kramer,VC,1.2,2,GEMS111,10,6,2,SimpleHill,0-0,0,33,62-66,62-68;55-66;59-59;67-62;70-70;61-63,70-70,5.56,84,-8,1327.1610047,1
GEMS125,2018_Oct_04_1436,Kramer,VC,1.2,2,GEMS111,10,6,2,SimpleHill,0-0,0,34,70-70,65-69;64-64;68-65;63-63;62-64;68-67,68-67,2.56,87,3,1333.79006232,1
GEMS125,2018_Oct_04_1436,Kramer,VC,1.2,2,GEMS111,10,6,2,SimpleHill,0-0,0,35,68-67,66-67;70-70;65-62;59-64;68-58;60-66,70-70,1.79,84,-3,1339.66056441,1
GEMS125,2018_Oct_04_1436,Kramer,VC,1.2,2,GEMS111,10,6,2,SimpleHill,0-0,0,36,70-70,64-62;69-68;63-64;61-66;70-61;65-70,70-61,5.57,89,5,1349.29840315,1
GEMS125,2018_Oct_04_1436,Kramer,VC,1.2,2,GEMS111,10,6,2,SimpleHill,0-0,0,37,70-61,69-61;68-56;70-55;67-54;65-60;70-66,70-66,4.62,86,-3,1357.99178545,1
GEMS125,2018_Oct_04_1436,Kramer,VC,1.2,2,GEMS111,10,6,2,SimpleHill,0-0,0,38,70-66,67-65;70-66;66-70;63-59;68-60;62-63,66-70,5.82,86,0,1367.87809374,1
GEMS125,2018_Oct_04_1436,Kramer,VC,1.2,2,GEMS111,10,6,2,SimpleHill,0-0,0,39,66-70,68-68;67-68;68-62;57-68;62-62;61-64,68-68,5.65,87,1,1377.61074604,1
GEMS125,2018_Oct_04_1436,Kramer,VC,1.2,2,GEMS111,10,6,3,SimpleHill,0-0,0,0,0-0,9-2;1-0;8-0;9-1;3-8;7-6,9-2,5.57,20,20,1655.37000354,1
GEMS125,2018_Oct_04_1436,Kramer,VC,1.2,2,GEMS111,10,6,3,SimpleHill,0-0,0,1,9-2,4-6;6-2;2-6;14-5;14-0;3-8,14-5,4.8,33,13,1664.22585208,1
GEMS125,2018_Oct_04_1436,Kramer,VC,1.2,2,GEMS111,10,6,3,SimpleHill,0-0,0,2,14-5,16-0;18-6;13-12;19-1;12-8;17-3,12-8,4.14,35,2,1672.42578044,1
GEMS125,2018_Oct_04_1436,Kramer,VC,1.2,2,GEMS111,10,6,3,SimpleHill,0-0,0,3,12-8,9-8;12-0;12-1;20-8;7-6;18-16,20-8,2.65,46,11,1679.16015069,1
GEMS125,2018_Oct_04_1436,Kramer,VC,1.2,2,GEMS111,10,6,3,SimpleHill,0-0,0,4,20-8,16-1;18-10;21-2;12-9;25-0;24-4,25-0,5.21,37,-9,1688.41758317,1
GEMS125,2018_Oct_04_1436,Kramer,VC,1.2,2,GEMS111,10,6,3,SimpleHill,0-0,0,5,25-0,34-4;18-7;21-5;33-5;18-0;19-5,34-4,2.46,52,15,1694.9370911,1
GEMS125,2018_Oct_04_1436,Kramer,VC,1.2,2,GEMS111,10,6,3,SimpleHill,0-0,0,6,34-4,27-1;31-0;27-11;33-13;29-3;27-2,33-13,4.45,66,14,1703.4476553,1
GEMS125,2018_Oct_04_1436,Kramer,VC,1.2,2,GEMS111,10,6,3,SimpleHill,0-0,0,7,33-13,35-18;35-20;31-18;34-13;35-8;25-15,35-18,4.75,75,9,1712.27986207,1
GEMS125,2018_Oct_04_1436,Kramer,VC,1.2,2,GEMS111,10,6,3,SimpleHill,0-0,0,8,35-18,41-18;33-25;42-16;35-9;30-25;35-25,35-25,4.84,83,8,1721.18942354,1
GEMS125,2018_Oct_04_1436,Kramer,VC,1.2,2,GEMS111,10,6,3,SimpleHill,0-0,0,9,35-25,29-23;28-30;32-23;35-31;36-31;30-21,35-31,2.4,88,5,1727.66172475,1
GEMS125,2018_Oct_04_1436,Kramer,VC,1.2,2,GEMS111,10,6,3,SimpleHill,0-0,0,10,35-31,26-35;40-28;36-29;27-28;32-40;34-26,40-28,4.02,88,0,1735.72268492,1
GEMS125,2018_Oct_04_1436,Kramer,VC,1.2,2,GEMS111,10,6,3,SimpleHill,0-0,0,11,40-28,42-33;36-19;48-22;37-31;48-31;33-29,33-29,4.51,85,-3,1744.30763528,1
GEMS125,2018_Oct_04_1436,Kramer,VC,1.2,2,GEMS111,10,6,3,SimpleHill,0-0,0,12,33-29,25-27;25-23;39-30;29-32;37-31;32-34,39-30,2.08,89,4,1750.47078332,1
GEMS125,2018_Oct_04_1436,Kramer,VC,1.2,2,GEMS111,10,6,3,SimpleHill,0-0,0,13,39-30,32-34;31-27;34-35;31-32;37-31;34-37,37-31,6.05,89,0,1760.58977321,1
GEMS125,2018_Oct_04_1436,Kramer,VC,1.2,2,GEMS111,10,6,3,SimpleHill,0-0,0,14,37-31,37-29;31-23;30-35;43-28;38-32;39-31,39-31,2.74,90,1,1767.40478872,1
GEMS125,2018_Oct_04_1436,Kramer,VC,1.2,2,GEMS111,10,6,3,SimpleHill,0-0,0,15,39-31,30-32;36-30;43-22;37-40;34-38;38-37,37-40,1.62,94,4,1773.08185042,1
GEMS125,2018_Oct_04_1436,Kramer,VC,1.2,2,GEMS111,10,6,3,SimpleHill,0-0,0,16,37-40,29-46;42-48;34-40;33-36;39-44;38-44,38-44,2.82,96,2,1779.97222934,1
GEMS125,2018_Oct_04_1436,Kramer,VC,1.2,2,GEMS111,10,6,3,SimpleHill,0-0,0,17,38-44,41-51;46-42;38-38;30-40;39-41;36-39,46-42,2.73,98,2,1786.78021977,1
GEMS125,2018_Oct_04_1436,Kramer,VC,1.2,2,GEMS111,10,6,3,SimpleHill,0-0,0,18,46-42,49-37;45-37;41-47;38-43;50-49;43-35,50-49,1.99,99,1,1792.83986084,1
GEMS125,2018_Oct_04_1436,Kramer,VC,1.2,2,GEMS111,10,6,3,SimpleHill,0-0,0,19,50-49,48-48;45-42;47-52;51-41;53-50;54-48,54-48,2.89,99,0,1799.8047338,1
GEMS125,2018_Oct_04_1436,Kramer,VC,1.2,2,GEMS111,10,6,3,SimpleHill,0-0,0,20,54-48,48-51;49-42;48-40;49-46;63-52;49-53,63-52,1.86,96,-3,1805.73160816,1
GEMS125,2018_Oct_04_1436,Kramer,VC,1.2,2,GEMS111,10,6,3,SimpleHill,0-0,0,21,63-52,68-51;60-45;66-45;57-57;59-51;54-55,66-45,2.28,94,-2,1812.0788966,1
GEMS125,2018_Oct_04_1436,Kramer,VC,1.2,2,GEMS111,10,6,3,SimpleHill,0-0,0,22,66-45,67-47;65-52;67-38;58-44;61-47;67-45,65-52,5.6,95,1,1821.7407209,1
GEMS125,2018_Oct_04_1436,Kramer,VC,1.2,2,GEMS111,10,6,3,SimpleHill,0-0,0,23,65-52,65-58;60-47;57-52;58-52;59-58;61-53,65-58,4.44,94,-1,1830.26324922,1
GEMS125,2018_Oct_04_1436,Kramer,VC,1.2,2,GEMS111,10,6,3,SimpleHill,0-0,0,24,65-58,65-59;60-58;69-66;63-62;61-53;65-58,69-66,1.2,87,-7,1835.52730348,1
GEMS125,2018_Oct_04_1436,Kramer,VC,1.2,2,GEMS111,10,6,3,SimpleHill,0-0,0,25,69-66,66-65;64-68;67-70;63-59;63-69;65-67,67-70,6.09,86,-1,1845.68782772,1
GEMS125,2018_Oct_04_1436,Kramer,VC,1.2,2,GEMS111,10,6,3,SimpleHill,0-0,0,26,67-70,69-61;66-64;63-65;62-68;61-62;59-67,62-68,5.86,90,4,1855.61200113,1
GEMS125,2018_Oct_04_1436,Kramer,VC,1.2,2,GEMS111,10,6,3,SimpleHill,0-0,0,27,62-68,56-61;70-69;56-63;65-66;61-63;64-63,70-69,3.06,84,-6,1862.74180985,1
GEMS125,2018_Oct_04_1436,Kramer,VC,1.2,2,GEMS111,10,6,3,SimpleHill,0-0,0,28,70-69,64-63;62-64;66-62;70-65;63-68;60-69,70-65,7.81,87,3,1874.60463738,1
GEMS125,2018_Oct_04_1436,Kramer,VC,1.2,2,GEMS111,10,6,3,SimpleHill,0-0,0,29,70-65,62-66;66-64;69-63;61-68;65-62;67-65,67-65,4.17,89,2,1882.86056767,1
GEMS125,2018_Oct_04_1436,Kramer,VC,1.2,2,GEMS111,10,6,3,SimpleHill,0-0,0,30,67-65,59-60;70-66;67-68;66-62;67-56;66-66,67-68,4.68,87,-2,1891.59513413,1
GEMS125,2018_Oct_04_1436,Kramer,VC,1.2,2,GEMS111,10,6,3,SimpleHill,0-0,0,31,67-68,69-69;58-67;70-59;67-67;64-70;69-62,64-70,3.01,88,1,1898.68690329,1
GEMS125,2018_Oct_04_1436,Kramer,VC,1.2,2,GEMS111,10,6,3,SimpleHill,0-0,0,32,64-70,63-68;56-70;67-70;57-70;68-65;55-66,68-65,2.23,89,1,1904.99202231,1
GEMS125,2018_Oct_04_1436,Kramer,VC,1.2,2,GEMS111,10,6,3,SimpleHill,0-0,0,33,68-65,67-70;68-56;65-57;59-66;60-63;69-60,67-70,2.88,86,-3,1911.95094922,1
GEMS125,2018_Oct_04_1436,Kramer,VC,1.2,2,GEMS111,10,6,3,SimpleHill,0-0,0,34,67-70,61-67;63-69;58-68;62-67;70-68;70-66,70-66,3.84,86,0,1919.86416744,1
GEMS125,2018_Oct_04_1436,Kramer,VC,1.2,2,GEMS111,10,6,3,SimpleHill,0-0,0,35,70-66,65-59;64-68;61-64;66-70;63-60;67-57,66-70,3.25,86,0,1927.19598001,1
GEMS125,2018_Oct_04_1436,Kramer,VC,1.2,2,GEMS111,10,6,3,SimpleHill,0-0,0,36,66-70,66-61;66-64;69-64;63-70;69-63;58-68,63-70,4.96,88,2,1936.22964455,1
GEMS125,2018_Oct_04_1436,Kramer,VC,1.2,2,GEMS111,10,6,3,SimpleHill,0-0,0,37,63-70,62-64;64-66;69-66;66-61;70-69;57-68,69-66,4.12,87,-1,1944.42765011,1
GEMS125,2018_Oct_04_1436,Kramer,VC,1.2,2,GEMS111,10,6,3,SimpleHill,0-0,0,38,69-66,66-70;62-63;65-59;63-64;68-62;62-60,66-70,5.79,86,-1,1954.27256426,1
GEMS125,2018_Oct_04_1436,Kramer,VC,1.2,2,GEMS111,10,6,3,SimpleHill,0-0,0,39,66-70,67-67;66-62;60-64;61-66;62-62;68-69,68-69,3.33,86,0,1961.67059805,1
GEMS125,2018_Oct_04_1436,Kramer,VC,1.2,2,GEMS111,10,6,4,SimpleHill,0-0,0,0,0-0,0-10;5-3;7-1;4-0;9-1;7-6,7-6,4.39,24,24,1978.80736016,1
GEMS125,2018_Oct_04_1436,Kramer,VC,1.2,2,GEMS111,10,6,4,SimpleHill,0-0,0,1,7-6,13-5;4-12;11-2;2-11;5-10;8-11,13-5,5.48,32,8,1988.3450209,1
GEMS125,2018_Oct_04_1436,Kramer,VC,1.2,2,GEMS111,10,6,4,SimpleHill,0-0,0,2,13-5,15-2;8-0;13-4;19-0;5-5;4-7,19-0,2.85,30,-2,1995.26084244,1
GEMS125,2018_Oct_04_1436,Kramer,VC,1.2,2,GEMS111,10,6,4,SimpleHill,0-0,0,3,19-0,15-3;11-2;27-5;20-0;19-3;17-5,27-5,1.76,48,18,2001.10176663,1
GEMS125,2018_Oct_04_1436,Kramer,VC,1.2,2,GEMS111,10,6,4,SimpleHill,0-0,0,4,27-5,29-5;29-10;27-7;34-4;23-1;32-5,32-5,3.56,53,5,2008.73511062,1
GEMS125,2018_Oct_04_1436,Kramer,VC,1.2,2,GEMS111,10,6,4,SimpleHill,0-0,0,5,32-5,31-13;37-6;34-13;29-13;34-2;40-4,34-13,4.97,67,14,2017.77049309,1
GEMS125,2018_Oct_04_1436,Kramer,VC,1.2,2,GEMS111,10,6,4,SimpleHill,0-0,0,6,34-13,29-5;30-11;31-13;27-13;33-21;30-14,33-21,2.36,77,10,2024.20692624,1
GEMS125,2018_Oct_04_1436,Kramer,VC,1.2,2,GEMS111,10,6,4,SimpleHill,0-0,0,7,33-21,33-16;32-25;29-24;35-26;41-19;28-25,32-25,6.47,81,4,2034.76316424,1
GEMS125,2018_Oct_04_1436,Kramer,VC,1.2,2,GEMS111,10,6,4,SimpleHill,0-0,0,8,32-25,24-20;28-23;26-32;36-16;41-23;35-18,26-32,2.21,82,1,2041.05227252,1
GEMS125,2018_Oct_04_1436,Kramer,VC,1.2,2,GEMS111,10,6,4,SimpleHill,0-0,0,9,26-32,33-26;34-32;30-25;22-32;27-24;32-38,32-38,2.87,90,8,2047.98010012,1
GEMS125,2018_Oct_04_1436,Kramer,VC,1.2,2,GEMS111,10,6,4,SimpleHill,0-0,0,10,32-38,38-41;38-34;36-38;36-47;27-40;37-38,36-47,2.98,95,5,2055.03226092,1
GEMS125,2018_Oct_04_1436,Kramer,VC,1.2,2,GEMS111,10,6,4,SimpleHill,0-0,0,11,36-47,40-44;41-49;38-42;36-57;32-42;36-43,38-42,3.77,95,0,2062.87875281,1
GEMS125,2018_Oct_04_1436,Kramer,VC,1.2,2,GEMS111,10,6,4,SimpleHill,0-0,0,12,38-42,31-47;38-47;32-47;34-35;30-42;38-42,38-42,5.7,95,0,2072.65262705,1
GEMS125,2018_Oct_04_1436,Kramer,VC,1.2,2,GEMS111,10,6,4,SimpleHill,0-0,0,13,38-42,38-52;35-33;40-34;39-39;38-43;32-43,39-39,3.8,95,0,2080.49852901,1
GEMS125,2018_Oct_04_1436,Kramer,VC,1.2,2,GEMS111,10,6,4,SimpleHill,0-0,0,14,39-39,31-45;43-35;36-35;33-38;43-39;39-34,43-39,4.98,96,1,2089.55609587,1
GEMS125,2018_Oct_04_1436,Kramer,VC,1.2,2,GEMS111,10,6,4,SimpleHill,0-0,0,15,43-39,45-39;45-35;41-48;49-39;46-47;37-41,46-47,4.66,99,3,2098.28780166,1
GEMS125,2018_Oct_04_1436,Kramer,VC,1.2,2,GEMS111,10,6,4,SimpleHill,0-0,0,16,46-47,39-47;38-45;52-51;46-49;47-44;51-53,52-51,3.34,99,0,2105.69052002,1
GEMS125,2018_Oct_04_1436,Kramer,VC,1.2,2,GEMS111,10,6,4,SimpleHill,0-0,0,17,52-51,47-58;57-57;53-49;53-50;51-56;47-59,57-57,2.94,98,-1,2112.70043939,1
GEMS125,2018_Oct_04_1436,Kramer,VC,1.2,2,GEMS111,10,6,4,SimpleHill,0-0,0,18,57-57,64-62;55-59;51-63;61-49;60-59;61-59,64-62,6.42,93,-5,2123.17383564,1
GEMS125,2018_Oct_04_1436,Kramer,VC,1.2,2,GEMS111,10,6,4,SimpleHill,0-0,0,19,64-62,55-60;68-60;69-56;56-58;65-66;58-66,69-56,2.82,92,-1,2130.05371006,1
GEMS125,2018_Oct_04_1436,Kramer,VC,1.2,2,GEMS111,10,6,4,SimpleHill,0-0,0,20,69-56,66-51;64-56;67-56;67-49;62-55;63-61,66-51,6.35,94,2,2140.47416863,1
GEMS125,2018_Oct_04_1436,Kramer,VC,1.2,2,GEMS111,10,6,4,SimpleHill,0-0,0,21,66-51,63-56;63-42;64-53;66-52;58-46;61-54,63-56,5.17,95,1,2149.71089396,1
GEMS125,2018_Oct_04_1436,Kramer,VC,1.2,2,GEMS111,10,6,4,SimpleHill,0-0,0,22,63-56,56-55;60-53;61-49;60-50;58-54;57-56,61-49,7.04,97,2,2160.83648545,1
GEMS125,2018_Oct_04_1436,Kramer,VC,1.2,2,GEMS111,10,6,4,SimpleHill,0-0,0,23,61-49,63-43;56-53;67-45;68-48;65-45;67-48,67-48,6.08,94,-3,2170.97718727,1
GEMS125,2018_Oct_04_1436,Kramer,VC,1.2,2,GEMS111,10,6,4,SimpleHill,0-0,0,24,67-48,62-48;67-43;69-47;63-47;60-46;65-45,69-47,4.77,92,-2,2179.80177965,1
GEMS125,2018_Oct_04_1436,Kramer,VC,1.2,2,GEMS111,10,6,4,SimpleHill,0-0,0,25,69-47,66-48;65-55;69-48;62-40;62-50;70-45,62-40,6.09,95,3,2189.95221711,1
GEMS125,2018_Oct_04_1436,Kramer,VC,1.2,2,GEMS111,10,6,4,SimpleHill,0-0,0,26,62-40,54-38;59-37;65-43;63-45;63-41;59-32,65-43,5.64,94,-1,2199.67510913,1
GEMS125,2018_Oct_04_1436,Kramer,VC,1.2,2,GEMS111,10,6,4,SimpleHill,0-0,0,27,65-43,68-41;67-35;58-36;59-46;64-48;60-37,64-48,3.96,96,2,2207.71532949,1
GEMS125,2018_Oct_04_1436,Kramer,VC,1.2,2,GEMS111,10,6,4,SimpleHill,0-0,0,28,64-48,66-44;56-49;57-51;58-45;67-40;64-51,64-51,3.19,96,0,2214.97752081,1
GEMS125,2018_Oct_04_1436,Kramer,VC,1.2,2,GEMS111,10,6,4,SimpleHill,0-0,0,29,64-51,69-54;65-59;70-57;54-51;69-53;64-41,69-53,3.37,92,-4,2222.4089701,1
GEMS125,2018_Oct_04_1436,Kramer,VC,1.2,2,GEMS111,10,6,4,SimpleHill,0-0,0,30,69-53,60-50;61-59;64-59;69-48;67-58;67-59,67-58,6.35,92,0,2232.83861951,1
GEMS125,2018_Oct_04_1436,Kramer,VC,1.2,2,GEMS111,10,6,4,SimpleHill,0-0,0,31,67-58,68-65;59-64;61-60;61-66;65-58;66-60,65-58,3.54,94,2,2240.45406901,1
GEMS125,2018_Oct_04_1436,Kramer,VC,1.2,2,GEMS111,10,6,4,SimpleHill,0-0,0,32,65-58,58-61;69-63;62-63;65-65;62-51;59-50,65-65,1.1,91,-3,2245.64009284,1
GEMS125,2018_Oct_04_1436,Kramer,VC,1.2,2,GEMS111,10,6,4,SimpleHill,0-0,0,33,65-65,58-68;67-70;61-64;61-65;62-59;65-55,67-70,1.96,86,-5,2251.67643816,1
GEMS125,2018_Oct_04_1436,Kramer,VC,1.2,2,GEMS111,10,6,4,SimpleHill,0-0,0,34,67-70,63-62;67-62;62-66;59-69;63-65;66-63,66-63,4.52,91,5,2260.27038826,1
GEMS125,2018_Oct_04_1436,Kramer,VC,1.2,2,GEMS111,10,6,4,SimpleHill,0-0,0,35,66-63,60-61;68-70;68-66;66-70;58-59;65-57,68-70,3.98,85,-6,2268.32644268,1
GEMS125,2018_Oct_04_1436,Kramer,VC,1.2,2,GEMS111,10,6,4,SimpleHill,0-0,0,36,68-70,67-69;65-70;64-67;66-70;65-62;69-61,66-70,1.08,86,1,2273.47090976,1
GEMS125,2018_Oct_04_1436,Kramer,VC,1.2,2,GEMS111,10,6,4,SimpleHill,0-0,0,37,66-70,60-64;63-70;59-68;57-66;64-67;68-70,68-70,1.72,85,-1,2279.25177132,1
GEMS125,2018_Oct_04_1436,Kramer,VC,1.2,2,GEMS111,10,6,4,SimpleHill,0-0,0,38,68-70,64-62;65-68;66-65;62-68;67-62;65-62,64-62,2.98,93,8,2286.31551822,1
GEMS125,2018_Oct_04_1436,Kramer,VC,1.2,2,GEMS111,10,6,4,SimpleHill,0-0,0,39,64-62,70-55;66-63;70-68;70-56;63-59;55-62,70-68,1.64,85,-8,2292.03217482,1
