subj_id,date,computer,experimenter,instructions,sight_radius,n_gabors,start_pos_list_ix,start_pos_list,landscape_ix,landscape_name,starting_pos,starting_score,trial,feedback,pos,stims,selected,rt,score,delta,exp_time
GEMS209,2018_Mar_21_1304,Kramer,SF,orientation,8,6,5,29-33;8-11;16-17;7-31,0,OrientationBias,0-0,0,0,training,0-0,1-1;5-2;5-5;1-7;7-3;4-1,1-7,10.78,3,3,370.028643514
GEMS209,2018_Mar_21_1304,Kramer,SF,orientation,8,6,5,29-33;8-11;16-17;7-31,0,OrientationBias,0-0,0,1,training,1-7,2-7;6-6;6-12;2-10;8-7;3-8,6-6,4.43,22,19,384.890462608
GEMS209,2018_Mar_21_1304,Kramer,SF,orientation,8,6,5,29-33;8-11;16-17;7-31,0,OrientationBias,0-0,0,2,training,6-6,3-10;6-12;13-6;0-11;6-8;3-2,6-8,3.81,22,0,392.586620501
GEMS209,2018_Mar_21_1304,Kramer,SF,orientation,8,6,5,29-33;8-11;16-17;7-31,0,OrientationBias,0-0,0,3,training,6-8,9-7;11-9;9-9;12-6;9-8;8-1,9-9,6.83,32,10,405.598142565
GEMS209,2018_Mar_21_1304,Kramer,SF,orientation,8,6,5,29-33;8-11;16-17;7-31,0,OrientationBias,0-0,0,4,training,9-9,4-8;16-7;14-11;8-5;4-13;15-14,14-11,5.13,48,16,415.407208748
GEMS209,2018_Mar_21_1304,Kramer,SF,orientation,8,6,5,29-33;8-11;16-17;7-31,0,OrientationBias,0-0,0,5,training,14-11,16-14;21-9;15-14;15-7;16-18;11-12,16-18,3.97,53,5,422.411154854
GEMS209,2018_Mar_21_1304,Kramer,SF,orientation,8,6,5,29-33;8-11;16-17;7-31,0,OrientationBias,0-0,0,6,training,16-18,14-11;16-10;19-11;19-23;19-21;24-18,19-11,3.09,61,8,428.663807384
GEMS209,2018_Mar_21_1304,Kramer,SF,orientation,8,6,5,29-33;8-11;16-17;7-31,0,OrientationBias,0-0,0,7,training,19-11,14-17;25-14;16-15;19-6;15-12;21-7,16-15,2.44,53,-8,434.965492385
GEMS209,2018_Mar_21_1304,Kramer,SF,orientation,8,6,5,29-33;8-11;16-17;7-31,0,OrientationBias,0-0,0,8,training,16-15,12-14;10-19;14-19;19-11;12-18;21-16,19-11,3.77,61,8,442.680049538
GEMS209,2018_Mar_21_1304,Kramer,SF,orientation,8,6,5,29-33;8-11;16-17;7-31,0,OrientationBias,0-0,0,9,training,19-11,18-6;23-7;22-12;22-15;21-4;12-14,22-12,3.87,68,7,449.550429517
GEMS209,2018_Mar_21_1304,Kramer,SF,orientation,8,6,5,29-33;8-11;16-17;7-31,0,OrientationBias,0-0,0,10,training,22-12,21-8;16-13;23-13;22-17;22-20;22-19,16-13,2.81,53,-15,455.898053611
GEMS209,2018_Mar_21_1304,Kramer,SF,orientation,8,6,5,29-33;8-11;16-17;7-31,0,OrientationBias,0-0,0,11,training,16-13,17-9;13-18;18-15;20-11;22-10;10-16,17-9,3.99,56,3,463.630621111
GEMS209,2018_Mar_21_1304,Kramer,SF,orientation,8,6,5,29-33;8-11;16-17;7-31,0,OrientationBias,0-0,0,12,training,17-9,13-3;14-14;16-9;22-13;16-16;14-16,16-9,2.58,53,-3,470.596625645
GEMS209,2018_Mar_21_1304,Kramer,SF,orientation,8,6,5,29-33;8-11;16-17;7-31,0,OrientationBias,0-0,0,13,training,16-9,17-8;10-8;11-15;18-2;15-16;20-10,18-2,2.16,59,6,475.112513936
GEMS209,2018_Mar_21_1304,Kramer,SF,orientation,8,6,5,29-33;8-11;16-17;7-31,0,OrientationBias,0-0,0,14,training,18-2,22-0;16-1;14-0;25-1;13-7;17-8,13-7,2.11,45,-14,480.334174111
GEMS209,2018_Mar_21_1304,Kramer,SF,orientation,8,6,5,29-33;8-11;16-17;7-31,0,OrientationBias,0-0,0,15,training,13-7,10-10;8-8;20-4;15-4;11-0;19-5,8-8,1.46,29,-16,484.134628835
GEMS209,2018_Mar_21_1304,Kramer,SF,orientation,8,6,5,29-33;8-11;16-17;7-31,0,OrientationBias,0-0,0,16,training,8-8,6-2;11-7;7-12;11-14;1-10;9-2,11-7,4.22,39,10,491.126593543
GEMS209,2018_Mar_21_1304,Kramer,SF,orientation,8,6,5,29-33;8-11;16-17;7-31,0,OrientationBias,0-0,0,17,training,11-7,12-14;14-0;8-3;16-1;7-11;10-8,10-8,3.57,36,-3,499.089242542
GEMS209,2018_Mar_21_1304,Kramer,SF,orientation,8,6,5,29-33;8-11;16-17;7-31,0,OrientationBias,0-0,0,18,training,10-8,13-2;10-16;12-13;7-13;12-11;14-14,13-2,4.55,45,9,506.809862895
GEMS209,2018_Mar_21_1304,Kramer,SF,orientation,8,6,5,29-33;8-11;16-17;7-31,0,OrientationBias,0-0,0,19,training,13-2,8-2;21-2;13-1;13-0;17-2;10-4,13-1,2.43,45,0,512.515220258
GEMS209,2018_Mar_21_1304,Kramer,SF,orientation,8,6,5,29-33;8-11;16-17;7-31,0,OrientationBias,0-0,0,20,training,13-1,15-5;13-9;21-1;17-3;9-2;9-7,21-1,1.31,66,21,516.875916946
GEMS209,2018_Mar_21_1304,Kramer,SF,orientation,8,6,5,29-33;8-11;16-17;7-31,0,OrientationBias,0-0,0,21,training,21-1,19-8;18-7;25-5;22-4;21-0;21-2,25-5,2.93,75,9,522.829056625
GEMS209,2018_Mar_21_1304,Kramer,SF,orientation,8,6,5,29-33;8-11;16-17;7-31,0,OrientationBias,0-0,0,22,training,25-5,26-9;32-6;30-10;27-4;21-4;25-8,25-8,3.58,75,0,529.921695673
GEMS209,2018_Mar_21_1304,Kramer,SF,orientation,8,6,5,29-33;8-11;16-17;7-31,0,OrientationBias,0-0,0,23,training,25-8,21-3;18-6;23-1;26-11;30-3;26-5,18-6,2.56,59,-16,535.444289911
GEMS209,2018_Mar_21_1304,Kramer,SF,orientation,8,6,5,29-33;8-11;16-17;7-31,0,OrientationBias,0-0,0,24,training,18-6,15-5;14-3;21-3;21-5;26-6;13-6,15-5,2.63,51,-8,541.181595106
GEMS209,2018_Mar_21_1304,Kramer,SF,orientation,8,6,5,29-33;8-11;16-17;7-31,0,OrientationBias,0-0,0,25,training,15-5,11-5;23-5;8-2;20-4;15-3;15-13,15-13,2.07,51,0,546.248079363
GEMS209,2018_Mar_21_1304,Kramer,SF,orientation,8,6,5,29-33;8-11;16-17;7-31,0,OrientationBias,0-0,0,26,training,15-13,21-15;15-14;13-20;11-12;11-19;22-14,21-15,2.14,66,15,551.891834846
GEMS209,2018_Mar_21_1304,Kramer,SF,orientation,8,6,5,29-33;8-11;16-17;7-31,0,OrientationBias,0-0,0,27,training,21-15,20-19;26-11;23-21;20-10;18-9;22-13,18-9,2.45,59,-7,557.268431189
GEMS209,2018_Mar_21_1304,Kramer,SF,orientation,8,6,5,29-33;8-11;16-17;7-31,0,OrientationBias,0-0,0,28,training,18-9,10-9;13-9;14-15;24-5;18-15;20-11,18-15,5.41,59,0,565.750574327
GEMS209,2018_Mar_21_1304,Kramer,SF,orientation,8,6,5,29-33;8-11;16-17;7-31,0,OrientationBias,0-0,0,29,training,18-15,25-16;13-15;13-11;22-16;26-15;13-13,26-15,3.53,76,17,572.36139193
GEMS209,2018_Mar_21_1304,Kramer,SF,orientation,8,6,5,29-33;8-11;16-17;7-31,1,SimpleHill,29-33,85,0,selected,29-33,29-39;24-33;27-32;22-36;27-30;34-36,27-32,1.97,82,-3,591.062572081
GEMS209,2018_Mar_21_1304,Kramer,SF,orientation,8,6,5,29-33;8-11;16-17;7-31,1,SimpleHill,29-33,85,1,selected,27-32,34-33;24-36;29-35;32-26;28-34;34-29,34-33,2.63,89,7,597.259265969
GEMS209,2018_Mar_21_1304,Kramer,SF,orientation,8,6,5,29-33;8-11;16-17;7-31,1,SimpleHill,29-33,85,2,selected,34-33,40-30;31-28;40-32;36-39;27-31;33-38,36-39,1.66,93,4,602.4877358
GEMS209,2018_Mar_21_1304,Kramer,SF,orientation,8,6,5,29-33;8-11;16-17;7-31,1,SimpleHill,29-33,85,3,selected,36-39,32-37;40-38;39-41;32-43;43-36;34-42,40-38,0.93,95,2,606.99569411
GEMS209,2018_Mar_21_1304,Kramer,SF,orientation,8,6,5,29-33;8-11;16-17;7-31,1,SimpleHill,29-33,85,4,selected,40-38,45-33;45-36;43-41;38-39;37-37;41-34,41-34,2.89,93,-2,613.449207498
GEMS209,2018_Mar_21_1304,Kramer,SF,orientation,8,6,5,29-33;8-11;16-17;7-31,1,SimpleHill,29-33,85,5,selected,41-34,37-37;39-30;35-36;37-29;40-28;37-39,37-29,1.08,87,-6,618.118346669
GEMS209,2018_Mar_21_1304,Kramer,SF,orientation,8,6,5,29-33;8-11;16-17;7-31,1,SimpleHill,29-33,85,6,selected,37-29,34-36;40-36;42-34;33-34;29-29;39-26,29-29,1.68,82,-5,623.360510075
GEMS209,2018_Mar_21_1304,Kramer,SF,orientation,8,6,5,29-33;8-11;16-17;7-31,1,SimpleHill,29-33,85,7,selected,29-29,30-28;37-29;36-27;32-24;33-32;29-22,36-27,2.61,85,3,629.550418634
GEMS209,2018_Mar_21_1304,Kramer,SF,orientation,8,6,5,29-33;8-11;16-17;7-31,1,SimpleHill,29-33,85,8,selected,36-27,36-23;40-22;40-28;35-23;38-34;37-32,40-28,2.84,88,3,635.970608109
GEMS209,2018_Mar_21_1304,Kramer,SF,orientation,8,6,5,29-33;8-11;16-17;7-31,1,SimpleHill,29-33,85,9,selected,40-28,42-22;41-32;45-27;43-24;43-23;45-22,43-23,2.59,84,-4,642.139411343
GEMS209,2018_Mar_21_1304,Kramer,SF,orientation,8,6,5,29-33;8-11;16-17;7-31,1,SimpleHill,29-33,85,10,selected,43-23,45-30;49-24;43-26;43-25;47-28;43-16,49-24,0.82,86,2,646.530392021
GEMS209,2018_Mar_21_1304,Kramer,SF,orientation,8,6,5,29-33;8-11;16-17;7-31,1,SimpleHill,29-33,85,11,selected,49-24,43-23;44-18;54-22;46-25;43-21;44-24,46-25,0.82,87,1,650.906141398
GEMS209,2018_Mar_21_1304,Kramer,SF,orientation,8,6,5,29-33;8-11;16-17;7-31,1,SimpleHill,29-33,85,12,selected,46-25,39-27;46-23;50-25;41-20;45-20;44-25,50-25,1.42,87,0,655.900375245
GEMS209,2018_Mar_21_1304,Kramer,SF,orientation,8,6,5,29-33;8-11;16-17;7-31,1,SimpleHill,29-33,85,13,selected,50-25,51-31;56-21;43-24;52-27;47-21;43-23,47-21,2.41,83,-4,661.879774706
GEMS209,2018_Mar_21_1304,Kramer,SF,orientation,8,6,5,29-33;8-11;16-17;7-31,1,SimpleHill,29-33,85,14,selected,47-21,49-14;55-21;53-23;47-29;42-15;42-25,55-21,1.21,82,-1,666.660238668
GEMS209,2018_Mar_21_1304,Kramer,SF,orientation,8,6,5,29-33;8-11;16-17;7-31,1,SimpleHill,29-33,85,15,selected,55-21,59-24;56-23;60-23;57-14;61-26;59-17,57-14,1.15,73,-9,671.381576669
GEMS209,2018_Mar_21_1304,Kramer,SF,orientation,8,6,5,29-33;8-11;16-17;7-31,1,SimpleHill,29-33,85,16,selected,57-14,63-13;57-18;51-14;62-17;63-18;54-14,51-14,0.73,74,1,675.687736249
GEMS209,2018_Mar_21_1304,Kramer,SF,orientation,8,6,5,29-33;8-11;16-17;7-31,1,SimpleHill,29-33,85,17,selected,51-14,48-13;58-12;49-14;53-12;56-20;45-18,58-12,1.66,69,-5,680.937072296
GEMS209,2018_Mar_21_1304,Kramer,SF,orientation,8,6,5,29-33;8-11;16-17;7-31,1,SimpleHill,29-33,85,18,selected,58-12,63-16;54-11;60-12;59-16;60-16;54-6,59-16,1.46,75,6,685.954043942
GEMS209,2018_Mar_21_1304,Kramer,SF,orientation,8,6,5,29-33;8-11;16-17;7-31,1,SimpleHill,29-33,85,19,selected,59-16,60-23;58-19;52-18;65-17;64-12;59-17,52-18,1.04,79,4,690.551938755
GEMS209,2018_Mar_21_1304,Kramer,SF,orientation,8,6,5,29-33;8-11;16-17;7-31,1,SimpleHill,29-33,85,20,selected,52-18,57-19;49-22;48-24;51-24;58-22;49-25,57-19,1.21,79,0,695.327371496
GEMS209,2018_Mar_21_1304,Kramer,SF,orientation,8,6,5,29-33;8-11;16-17;7-31,1,SimpleHill,29-33,85,21,selected,57-19,57-19;49-19;50-17;51-16;64-18;54-16,51-16,0.47,76,-3,699.346495447
GEMS209,2018_Mar_21_1304,Kramer,SF,orientation,8,6,5,29-33;8-11;16-17;7-31,1,SimpleHill,29-33,85,22,selected,51-16,51-8;50-10;53-16;50-23;58-14;47-22,51-8,1.1,64,-12,704.009837735
GEMS209,2018_Mar_21_1304,Kramer,SF,orientation,8,6,5,29-33;8-11;16-17;7-31,1,SimpleHill,29-33,85,23,selected,51-8,44-8;50-11;49-12;47-5;49-10;57-10,57-10,0.47,67,3,708.047882057
GEMS209,2018_Mar_21_1304,Kramer,SF,orientation,8,6,5,29-33;8-11;16-17;7-31,1,SimpleHill,29-33,85,24,selected,57-10,51-15;51-14;56-17;54-11;63-6;61-15,56-17,0.61,77,10,712.221201802
GEMS209,2018_Mar_21_1304,Kramer,SF,orientation,8,6,5,29-33;8-11;16-17;7-31,1,SimpleHill,29-33,85,25,selected,56-17,56-23;63-17;54-11;58-11;53-19;60-22,53-19,0.67,80,3,716.454765591
GEMS209,2018_Mar_21_1304,Kramer,SF,orientation,8,6,5,29-33;8-11;16-17;7-31,1,SimpleHill,29-33,85,26,selected,53-19,47-24;49-16;53-25;51-23;46-17;58-22,47-24,0.8,86,6,720.835380061
GEMS209,2018_Mar_21_1304,Kramer,SF,orientation,8,6,5,29-33;8-11;16-17;7-31,1,SimpleHill,29-33,85,27,selected,47-24,46-27;50-18;53-26;44-26;42-26;53-24,44-26,0.86,87,1,725.269316246
GEMS209,2018_Mar_21_1304,Kramer,SF,orientation,8,6,5,29-33;8-11;16-17;7-31,1,SimpleHill,29-33,85,28,selected,44-26,49-31;48-22;46-20;40-22;44-30;50-31,44-30,2.22,91,4,731.057017189
GEMS209,2018_Mar_21_1304,Kramer,SF,orientation,8,6,5,29-33;8-11;16-17;7-31,1,SimpleHill,29-33,85,29,selected,44-30,48-27;40-33;47-29;39-30;50-27;48-32,39-30,1.69,89,-2,736.313297972
GEMS209,2018_Mar_21_1304,Kramer,SF,orientation,8,6,5,29-33;8-11;16-17;7-31,1,SimpleHill,29-33,85,30,selected,39-30,34-27;39-26;43-24;33-34;46-27;40-30,39-26,1.49,86,-3,741.345135052
GEMS209,2018_Mar_21_1304,Kramer,SF,orientation,8,6,5,29-33;8-11;16-17;7-31,1,SimpleHill,29-33,85,31,selected,39-26,42-33;41-21;32-28;41-28;43-23;42-24,32-28,4.13,83,-3,749.047459215
GEMS209,2018_Mar_21_1304,Kramer,SF,orientation,8,6,5,29-33;8-11;16-17;7-31,1,SimpleHill,29-33,85,32,selected,32-28,35-24;35-22;37-28;32-33;32-26;36-28,35-22,0.8,79,-4,753.429612371
GEMS209,2018_Mar_21_1304,Kramer,SF,orientation,8,6,5,29-33;8-11;16-17;7-31,1,SimpleHill,29-33,85,33,selected,35-22,37-18;30-25;30-21;34-25;37-27;32-26,37-18,0.62,76,-3,757.622511238
GEMS209,2018_Mar_21_1304,Kramer,SF,orientation,8,6,5,29-33;8-11;16-17;7-31,1,SimpleHill,29-33,85,34,selected,37-18,32-13;32-14;37-17;41-17;42-15;37-19,41-17,0.7,76,0,761.919340429
GEMS209,2018_Mar_21_1304,Kramer,SF,orientation,8,6,5,29-33;8-11;16-17;7-31,1,SimpleHill,29-33,85,35,selected,41-17,40-22;42-21;44-13;44-15;44-14;38-18,44-13,0.5,71,-5,765.991959266
GEMS209,2018_Mar_21_1304,Kramer,SF,orientation,8,6,5,29-33;8-11;16-17;7-31,1,SimpleHill,29-33,85,36,selected,44-13,44-15;47-18;39-10;43-11;49-7;39-12,39-12,0.69,68,-3,770.237003828
GEMS209,2018_Mar_21_1304,Kramer,SF,orientation,8,6,5,29-33;8-11;16-17;7-31,1,SimpleHill,29-33,85,37,selected,39-12,39-7;38-15;37-11;39-8;39-9;44-7,38-15,2.93,72,4,776.734614815
GEMS209,2018_Mar_21_1304,Kramer,SF,orientation,8,6,5,29-33;8-11;16-17;7-31,1,SimpleHill,29-33,85,38,selected,38-15,45-18;34-12;32-16;40-11;34-16;45-13,32-16,1.28,70,-2,781.583143972
GEMS209,2018_Mar_21_1304,Kramer,SF,orientation,8,6,5,29-33;8-11;16-17;7-31,1,SimpleHill,29-33,85,39,selected,32-16,27-11;30-21;26-15;31-20;25-13;35-16,31-20,0.91,74,4,786.062107626
GEMS209,2018_Mar_21_1304,Kramer,SF,orientation,8,6,5,29-33;8-11;16-17;7-31,2,SimpleHill,8-11,34,0,selected,8-11,5-18;13-14;10-16;6-16;7-5;8-12,5-18,2.03,39,5,798.062019281
GEMS209,2018_Mar_21_1304,Kramer,SF,orientation,8,6,5,29-33;8-11;16-17;7-31,2,SimpleHill,8-11,34,1,selected,5-18,7-23;2-18;11-20;4-24;4-25;2-14,4-24,1.25,44,5,802.871260235
GEMS209,2018_Mar_21_1304,Kramer,SF,orientation,8,6,5,29-33;8-11;16-17;7-31,2,SimpleHill,8-11,34,2,selected,4-24,8-28;5-25;4-22;8-27;7-20;0-21,8-28,1.2,55,11,807.642151178
GEMS209,2018_Mar_21_1304,Kramer,SF,orientation,8,6,5,29-33;8-11;16-17;7-31,2,SimpleHill,8-11,34,3,selected,8-28,1-26;5-29;1-25;10-27;8-28;5-27,10-27,0.86,57,2,812.080735753
GEMS209,2018_Mar_21_1304,Kramer,SF,orientation,8,6,5,29-33;8-11;16-17;7-31,2,SimpleHill,8-11,34,4,selected,10-27,6-22;7-29;6-24;13-23;7-33;16-23,6-22,0.34,45,-12,815.983822825
GEMS209,2018_Mar_21_1304,Kramer,SF,orientation,8,6,5,29-33;8-11;16-17;7-31,2,SimpleHill,8-11,34,5,selected,6-22,11-25;5-21;10-26;13-19;1-19;4-22,10-26,0.36,56,11,819.907900309
GEMS209,2018_Mar_21_1304,Kramer,SF,orientation,8,6,5,29-33;8-11;16-17;7-31,2,SimpleHill,8-11,34,6,selected,10-26,13-28;9-22;4-26;11-25;4-30;5-27,9-22,0.67,50,-6,824.133393596
GEMS209,2018_Mar_21_1304,Kramer,SF,orientation,8,6,5,29-33;8-11;16-17;7-31,2,SimpleHill,8-11,34,7,selected,9-22,6-27;9-30;12-23;10-16;11-16;11-24,10-16,0.28,44,-6,827.987534622
GEMS209,2018_Mar_21_1304,Kramer,SF,orientation,8,6,5,29-33;8-11;16-17;7-31,2,SimpleHill,8-11,34,8,selected,10-16,8-21;7-9;10-11;10-13;14-13;12-13,12-13,1.15,43,-1,832.721720192
GEMS209,2018_Mar_21_1304,Kramer,SF,orientation,8,6,5,29-33;8-11;16-17;7-31,2,SimpleHill,8-11,34,9,selected,12-13,17-10;12-20;13-16;19-12;6-10;14-15,19-12,0.78,51,8,837.072569863
GEMS209,2018_Mar_21_1304,Kramer,SF,orientation,8,6,5,29-33;8-11;16-17;7-31,2,SimpleHill,8-11,34,10,selected,19-12,15-9;23-16;26-10;19-14;19-17;23-11,19-17,1.33,59,8,841.970366439
GEMS209,2018_Mar_21_1304,Kramer,SF,orientation,8,6,5,29-33;8-11;16-17;7-31,2,SimpleHill,8-11,34,11,selected,19-17,25-18;16-14;16-22;25-21;25-17;16-16,25-21,1.26,70,11,846.799379212
GEMS209,2018_Mar_21_1304,Kramer,SF,orientation,8,6,5,29-33;8-11;16-17;7-31,2,SimpleHill,8-11,34,12,selected,25-21,29-20;29-27;25-24;24-17;31-20;21-26,29-27,1.17,80,10,851.540163817
GEMS209,2018_Mar_21_1304,Kramer,SF,orientation,8,6,5,29-33;8-11;16-17;7-31,2,SimpleHill,8-11,34,13,selected,29-27,30-28;27-30;30-34;26-22;32-31;32-29,26-22,0.36,72,-8,855.464826751
GEMS209,2018_Mar_21_1304,Kramer,SF,orientation,8,6,5,29-33;8-11;16-17;7-31,2,SimpleHill,8-11,34,14,selected,26-22,26-15;29-23;21-25;25-29;24-15;28-28,26-15,0.28,63,-9,859.297300369
GEMS209,2018_Mar_21_1304,Kramer,SF,orientation,8,6,5,29-33;8-11;16-17;7-31,2,SimpleHill,8-11,34,15,selected,26-15,27-15;32-14;26-11;28-14;32-10;33-13,32-10,1.36,61,-2,864.240064877
GEMS209,2018_Mar_21_1304,Kramer,SF,orientation,8,6,5,29-33;8-11;16-17;7-31,2,SimpleHill,8-11,34,16,selected,32-10,36-7;37-6;28-4;31-11;31-12;26-14,26-14,1.6,62,1,869.405988234
GEMS209,2018_Mar_21_1304,Kramer,SF,orientation,8,6,5,29-33;8-11;16-17;7-31,2,SimpleHill,8-11,34,17,selected,26-14,25-20;30-14;21-20;27-13;26-7;20-12,27-13,0.53,62,0,873.501864061
GEMS209,2018_Mar_21_1304,Kramer,SF,orientation,8,6,5,29-33;8-11;16-17;7-31,2,SimpleHill,8-11,34,18,selected,27-13,32-8;29-14;27-6;24-14;31-17;30-20,31-17,1.47,71,9,878.539290284
GEMS209,2018_Mar_21_1304,Kramer,SF,orientation,8,6,5,29-33;8-11;16-17;7-31,2,SimpleHill,8-11,34,19,selected,31-17,31-17;33-10;29-21;31-24;27-18;35-21,35-21,0.93,78,7,883.042614609
GEMS209,2018_Mar_21_1304,Kramer,SF,orientation,8,6,5,29-33;8-11;16-17;7-31,2,SimpleHill,8-11,34,20,selected,35-21,34-24;39-17;34-16;30-27;33-25;28-18,30-27,0.82,81,3,887.409498373
GEMS209,2018_Mar_21_1304,Kramer,SF,orientation,8,6,5,29-33;8-11;16-17;7-31,2,SimpleHill,8-11,34,21,selected,30-27,35-27;24-31;30-33;33-31;30-26;27-25,35-27,0.7,84,3,891.659543746
GEMS209,2018_Mar_21_1304,Kramer,SF,orientation,8,6,5,29-33;8-11;16-17;7-31,2,SimpleHill,8-11,34,22,selected,35-27,35-21;30-33;31-24;38-33;30-29;36-32,31-24,1.98,79,-5,897.199048492
GEMS209,2018_Mar_21_1304,Kramer,SF,orientation,8,6,5,29-33;8-11;16-17;7-31,2,SimpleHill,8-11,34,23,selected,31-24,34-27;35-23;37-27;32-18;34-26;28-22,32-18,1.47,73,-6,902.234885773
GEMS209,2018_Mar_21_1304,Kramer,SF,orientation,8,6,5,29-33;8-11;16-17;7-31,2,SimpleHill,8-11,34,24,selected,32-18,26-19;38-18;28-17;32-18;25-19;37-24,38-18,1.57,76,3,907.366025275
GEMS209,2018_Mar_21_1304,Kramer,SF,orientation,8,6,5,29-33;8-11;16-17;7-31,2,SimpleHill,8-11,34,25,selected,38-18,35-12;31-19;38-19;32-14;39-18;39-17,39-18,2.37,77,1,913.307554545
GEMS209,2018_Mar_21_1304,Kramer,SF,orientation,8,6,5,29-33;8-11;16-17;7-31,2,SimpleHill,8-11,34,26,selected,39-18,43-21;34-24;45-20;39-17;39-23;38-24,39-17,6.22,75,-2,923.093643179
GEMS209,2018_Mar_21_1304,Kramer,SF,orientation,8,6,5,29-33;8-11;16-17;7-31,2,SimpleHill,8-11,34,27,selected,39-17,44-15;37-14;40-15;33-17;33-19;44-20,33-17,4.04,72,-3,930.698510256
GEMS209,2018_Mar_21_1304,Kramer,SF,orientation,8,6,5,29-33;8-11;16-17;7-31,2,SimpleHill,8-11,34,28,selected,33-17,31-18;40-20;37-12;30-20;36-17;29-14,29-14,0.86,65,-7,935.138911998
GEMS209,2018_Mar_21_1304,Kramer,SF,orientation,8,6,5,29-33;8-11;16-17;7-31,2,SimpleHill,8-11,34,29,selected,29-14,28-14;22-11;31-20;22-14;31-21;24-16,22-11,0.37,53,-12,939.078637224
GEMS209,2018_Mar_21_1304,Kramer,SF,orientation,8,6,5,29-33;8-11;16-17;7-31,2,SimpleHill,8-11,34,30,selected,22-11,18-16;14-11;18-12;21-6;26-9;19-10,21-6,0.45,44,-9,943.085084215
GEMS209,2018_Mar_21_1304,Kramer,SF,orientation,8,6,5,29-33;8-11;16-17;7-31,2,SimpleHill,8-11,34,31,selected,21-6,22-0;28-9;17-7;24-0;22-3;23-5,22-0,2.0,34,-10,948.653136446
GEMS209,2018_Mar_21_1304,Kramer,SF,orientation,8,6,5,29-33;8-11;16-17;7-31,2,SimpleHill,8-11,34,32,selected,22-0,19-5;28-4;26-5;25-7;27-2;28-2,28-4,0.98,48,14,953.206672465
GEMS209,2018_Mar_21_1304,Kramer,SF,orientation,8,6,5,29-33;8-11;16-17;7-31,2,SimpleHill,8-11,34,33,selected,28-4,35-2;27-4;24-5;23-4;35-1;24-9,35-1,2.02,47,-1,958.791155705
GEMS209,2018_Mar_21_1304,Kramer,SF,orientation,8,6,5,29-33;8-11;16-17;7-31,2,SimpleHill,8-11,34,34,selected,35-1,37-3;31-3;30-0;39-1;36-2;35-7,39-1,0.44,49,2,962.788900971
GEMS209,2018_Mar_21_1304,Kramer,SF,orientation,8,6,5,29-33;8-11;16-17;7-31,2,SimpleHill,8-11,34,35,selected,39-1,43-3;40-7;42-4;38-5;39-2;37-3,42-4,0.67,56,7,967.00940529
GEMS209,2018_Mar_21_1304,Kramer,SF,orientation,8,6,5,29-33;8-11;16-17;7-31,2,SimpleHill,8-11,34,36,selected,42-4,38-5;40-2;45-10;44-0;35-7;37-10,35-7,1.55,58,2,972.108803099
GEMS209,2018_Mar_21_1304,Kramer,SF,orientation,8,6,5,29-33;8-11;16-17;7-31,2,SimpleHill,8-11,34,37,selected,35-7,38-2;33-8;34-10;41-5;38-5;35-13,38-2,0.93,51,-7,976.612211288
GEMS209,2018_Mar_21_1304,Kramer,SF,orientation,8,6,5,29-33;8-11;16-17;7-31,2,SimpleHill,8-11,34,38,selected,38-2,34-8;37-9;36-2;42-3;35-8;43-1,37-9,0.74,63,12,980.933841918
GEMS209,2018_Mar_21_1304,Kramer,SF,orientation,8,6,5,29-33;8-11;16-17;7-31,2,SimpleHill,8-11,34,39,selected,37-9,36-10;40-6;43-5;34-9;35-9;34-3,34-9,1.14,61,-2,985.620139989
GEMS209,2018_Mar_21_1304,Kramer,SF,orientation,8,6,5,29-33;8-11;16-17;7-31,3,SimpleHill,16-17,55,0,selected,16-17,20-14;16-12;13-12;18-21;14-13;16-13,16-12,3.94,48,-7,999.884332509
GEMS209,2018_Mar_21_1304,Kramer,SF,orientation,8,6,5,29-33;8-11;16-17;7-31,3,SimpleHill,16-17,55,1,selected,16-12,19-17;19-7;11-14;14-13;22-11;18-14,19-17,1.42,59,11,1004.86967513
GEMS209,2018_Mar_21_1304,Kramer,SF,orientation,8,6,5,29-33;8-11;16-17;7-31,3,SimpleHill,16-17,55,2,selected,19-17,18-24;12-15;24-22;18-18;23-17;22-20,22-20,0.39,66,7,1008.8288969
GEMS209,2018_Mar_21_1304,Kramer,SF,orientation,8,6,5,29-33;8-11;16-17;7-31,3,SimpleHill,16-17,55,3,selected,22-20,23-21;22-25;15-18;28-17;23-15;22-20,23-15,0.43,60,-6,1012.83385994
GEMS209,2018_Mar_21_1304,Kramer,SF,orientation,8,6,5,29-33;8-11;16-17;7-31,3,SimpleHill,16-17,55,4,selected,23-15,20-18;21-18;20-16;22-14;28-14;18-15,21-18,1.55,62,2,1017.95557591
GEMS209,2018_Mar_21_1304,Kramer,SF,orientation,8,6,5,29-33;8-11;16-17;7-31,3,SimpleHill,16-17,55,5,selected,21-18,24-19;22-21;26-13;22-16;16-19;26-23,26-13,1.46,61,-1,1022.98166028
GEMS209,2018_Mar_21_1304,Kramer,SF,orientation,8,6,5,29-33;8-11;16-17;7-31,3,SimpleHill,16-17,55,6,selected,26-13,25-16;27-20;20-8;28-9;19-15;31-15,31-15,0.37,68,7,1026.93693274
GEMS209,2018_Mar_21_1304,Kramer,SF,orientation,8,6,5,29-33;8-11;16-17;7-31,3,SimpleHill,16-17,55,7,selected,31-15,29-12;34-8;33-14;34-18;28-21;35-9,28-21,1.63,73,5,1032.1554656
GEMS209,2018_Mar_21_1304,Kramer,SF,orientation,8,6,5,29-33;8-11;16-17;7-31,3,SimpleHill,16-17,55,8,selected,28-21,24-16;23-24;26-17;31-27;28-27;29-24,31-27,1.35,82,9,1037.07367066
GEMS209,2018_Mar_21_1304,Kramer,SF,orientation,8,6,5,29-33;8-11;16-17;7-31,3,SimpleHill,16-17,55,9,selected,31-27,32-26;29-26;36-27;34-21;29-20;31-22,36-27,1.47,85,3,1042.12466722
GEMS209,2018_Mar_21_1304,Kramer,SF,orientation,8,6,5,29-33;8-11;16-17;7-31,3,SimpleHill,16-17,55,10,selected,36-27,31-23;41-21;35-34;39-27;31-21;29-24,35-34,1.62,90,5,1047.3197965
GEMS209,2018_Mar_21_1304,Kramer,SF,orientation,8,6,5,29-33;8-11;16-17;7-31,3,SimpleHill,16-17,55,11,selected,35-34,36-40;34-28;38-29;29-35;35-27;36-39,36-40,1.81,94,4,1052.68374405
GEMS209,2018_Mar_21_1304,Kramer,SF,orientation,8,6,5,29-33;8-11;16-17;7-31,3,SimpleHill,16-17,55,12,selected,36-40,32-45;38-35;39-34;37-42;42-39;38-34,32-45,1.84,93,-1,1058.08194922
GEMS209,2018_Mar_21_1304,Kramer,SF,orientation,8,6,5,29-33;8-11;16-17;7-31,3,SimpleHill,16-17,55,13,selected,32-45,34-40;29-47;34-50;37-44;29-40;34-39,34-50,1.64,94,1,1063.29145803
GEMS209,2018_Mar_21_1304,Kramer,SF,orientation,8,6,5,29-33;8-11;16-17;7-31,3,SimpleHill,16-17,55,14,selected,34-50,35-55;36-52;40-48;28-54;38-54;36-55,38-54,2.08,96,2,1068.91808855
GEMS209,2018_Mar_21_1304,Kramer,SF,orientation,8,6,5,29-33;8-11;16-17;7-31,3,SimpleHill,16-17,55,15,selected,38-54,35-49;45-56;34-51;43-57;41-55;36-61,35-49,1.23,95,-1,1073.71863898
GEMS209,2018_Mar_21_1304,Kramer,SF,orientation,8,6,5,29-33;8-11;16-17;7-31,3,SimpleHill,16-17,55,16,selected,35-49,36-50;30-44;35-47;34-46;31-50;34-44,34-44,1.75,94,-1,1079.03446696
GEMS209,2018_Mar_21_1304,Kramer,SF,orientation,8,6,5,29-33;8-11;16-17;7-31,3,SimpleHill,16-17,55,17,selected,34-44,38-50;30-42;29-50;34-37;32-49;33-48,29-50,1.87,91,-3,1084.47677166
GEMS209,2018_Mar_21_1304,Kramer,SF,orientation,8,6,5,29-33;8-11;16-17;7-31,3,SimpleHill,16-17,55,18,selected,29-50,35-51;34-46;30-44;34-49;35-54;34-50,34-46,1.27,94,3,1089.32350061
GEMS209,2018_Mar_21_1304,Kramer,SF,orientation,8,6,5,29-33;8-11;16-17;7-31,3,SimpleHill,16-17,55,19,selected,34-46,38-46;35-44;35-39;37-45;40-43;35-41,37-45,1.31,96,2,1094.19748868
GEMS209,2018_Mar_21_1304,Kramer,SF,orientation,8,6,5,29-33;8-11;16-17;7-31,3,SimpleHill,16-17,55,20,selected,37-45,37-37;35-39;36-51;44-44;40-45;34-50,37-37,1.21,93,-3,1098.96746736
GEMS209,2018_Mar_21_1304,Kramer,SF,orientation,8,6,5,29-33;8-11;16-17;7-31,3,SimpleHill,16-17,55,21,selected,37-37,40-33;44-35;36-35;32-37;36-42;40-41,32-37,0.79,90,-3,1103.34221068
GEMS209,2018_Mar_21_1304,Kramer,SF,orientation,8,6,5,29-33;8-11;16-17;7-31,3,SimpleHill,16-17,55,22,selected,32-37,34-35;35-33;28-41;30-30;31-38;31-43,28-41,1.52,88,-2,1108.42482826
GEMS209,2018_Mar_21_1304,Kramer,SF,orientation,8,6,5,29-33;8-11;16-17;7-31,3,SimpleHill,16-17,55,23,selected,28-41,26-36;23-45;32-43;30-46;23-47;27-38,23-45,0.62,84,-4,1112.617134
GEMS209,2018_Mar_21_1304,Kramer,SF,orientation,8,6,5,29-33;8-11;16-17;7-31,3,SimpleHill,16-17,55,24,selected,23-45,25-46;16-43;16-48;26-41;21-38;24-52,26-41,0.94,86,2,1117.1093591
GEMS209,2018_Mar_21_1304,Kramer,SF,orientation,8,6,5,29-33;8-11;16-17;7-31,3,SimpleHill,16-17,55,25,selected,26-41,26-48;29-39;27-43;22-44;29-48;23-37,29-48,0.67,91,5,1121.33515359
GEMS209,2018_Mar_21_1304,Kramer,SF,orientation,8,6,5,29-33;8-11;16-17;7-31,3,SimpleHill,16-17,55,26,selected,29-48,26-44;36-47;32-52;35-44;23-46;27-48,27-48,0.78,89,-2,1125.68904095
GEMS209,2018_Mar_21_1304,Kramer,SF,orientation,8,6,5,29-33;8-11;16-17;7-31,3,SimpleHill,16-17,55,27,selected,27-48,28-52;33-46;27-55;25-43;24-50;30-54,25-43,1.5,86,-3,1130.75676908
GEMS209,2018_Mar_21_1304,Kramer,SF,orientation,8,6,5,29-33;8-11;16-17;7-31,3,SimpleHill,16-17,55,28,selected,25-43,23-46;21-39;31-46;30-49;32-43;21-42,23-46,0.95,85,-1,1135.27272748
GEMS209,2018_Mar_21_1304,Kramer,SF,orientation,8,6,5,29-33;8-11;16-17;7-31,3,SimpleHill,16-17,55,29,selected,23-46,20-49;21-48;24-41;17-42;22-40;23-41,21-48,0.91,83,-2,1139.75239085
GEMS209,2018_Mar_21_1304,Kramer,SF,orientation,8,6,5,29-33;8-11;16-17;7-31,3,SimpleHill,16-17,55,30,selected,21-48,24-55;22-42;20-49;25-45;25-47;24-53,25-45,1.33,87,4,1144.65219537
GEMS209,2018_Mar_21_1304,Kramer,SF,orientation,8,6,5,29-33;8-11;16-17;7-31,3,SimpleHill,16-17,55,31,selected,25-45,24-42;26-42;22-51;22-49;21-51;30-46,26-42,1.5,87,0,1149.719549
GEMS209,2018_Mar_21_1304,Kramer,SF,orientation,8,6,5,29-33;8-11;16-17;7-31,3,SimpleHill,16-17,55,32,selected,26-42,26-37;25-49;27-47;25-37;23-42;21-36,25-37,1.13,84,-3,1154.43706637
GEMS209,2018_Mar_21_1304,Kramer,SF,orientation,8,6,5,29-33;8-11;16-17;7-31,3,SimpleHill,16-17,55,33,selected,25-37,30-42;23-42;27-34;24-41;23-43;23-34,27-34,1.01,84,0,1159.00854456
GEMS209,2018_Mar_21_1304,Kramer,SF,orientation,8,6,5,29-33;8-11;16-17;7-31,3,SimpleHill,16-17,55,34,selected,27-34,25-32;22-34;22-40;32-30;27-42;22-33,22-34,1.88,79,-5,1164.47054425
GEMS209,2018_Mar_21_1304,Kramer,SF,orientation,8,6,5,29-33;8-11;16-17;7-31,3,SimpleHill,16-17,55,35,selected,22-34,18-36;27-32;18-35;21-32;25-35;23-28,23-28,0.58,75,-4,1168.61144275
GEMS209,2018_Mar_21_1304,Kramer,SF,orientation,8,6,5,29-33;8-11;16-17;7-31,3,SimpleHill,16-17,55,36,selected,23-28,24-21;22-33;26-29;16-27;21-34;17-26,24-21,1.05,69,-6,1173.23085004
GEMS209,2018_Mar_21_1304,Kramer,SF,orientation,8,6,5,29-33;8-11;16-17;7-31,3,SimpleHill,16-17,55,37,selected,24-21,29-18;19-17;21-27;28-19;28-18;29-23,28-19,2.64,71,2,1179.43249289
GEMS209,2018_Mar_21_1304,Kramer,SF,orientation,8,6,5,29-33;8-11;16-17;7-31,3,SimpleHill,16-17,55,38,selected,28-19,31-21;23-23;33-18;34-16;26-22;24-21,31-21,0.88,75,4,1183.87463433
GEMS209,2018_Mar_21_1304,Kramer,SF,orientation,8,6,5,29-33;8-11;16-17;7-31,3,SimpleHill,16-17,55,39,selected,31-21,28-19;36-23;36-26;35-17;34-17;33-22,33-22,0.68,78,3,1188.12233663
GEMS209,2018_Mar_21_1304,Kramer,SF,orientation,8,6,5,29-33;8-11;16-17;7-31,4,SimpleHill,7-31,55,0,selected,7-31,4-30;2-26;5-33;2-36;6-26;11-34,4-30,2.57,49,-6,1202.64429452
GEMS209,2018_Mar_21_1304,Kramer,SF,orientation,8,6,5,29-33;8-11;16-17;7-31,4,SimpleHill,7-31,55,1,selected,4-30,8-34;0-36;2-37;11-33;3-26;9-36,11-33,2.39,63,14,1208.59256175
GEMS209,2018_Mar_21_1304,Kramer,SF,orientation,8,6,5,29-33;8-11;16-17;7-31,4,SimpleHill,7-31,55,2,selected,11-33,12-33;14-28;12-39;15-34;6-31;10-35,12-33,1.41,65,2,1213.57679973
GEMS209,2018_Mar_21_1304,Kramer,SF,orientation,8,6,5,29-33;8-11;16-17;7-31,4,SimpleHill,7-31,55,3,selected,12-33,9-34;11-27;6-33;6-34;15-38;11-32,11-27,1.7,59,-6,1218.8483211
GEMS209,2018_Mar_21_1304,Kramer,SF,orientation,8,6,5,29-33;8-11;16-17;7-31,4,SimpleHill,7-31,55,4,selected,11-27,9-31;11-22;7-31;9-24;15-31;11-19,15-31,1.06,68,9,1223.46976707
GEMS209,2018_Mar_21_1304,Kramer,SF,orientation,8,6,5,29-33;8-11;16-17;7-31,4,SimpleHill,7-31,55,5,selected,15-31,13-36;19-33;22-29;12-37;21-28;17-36,12-37,1.59,67,-1,1228.64538124
GEMS209,2018_Mar_21_1304,Kramer,SF,orientation,8,6,5,29-33;8-11;16-17;7-31,4,SimpleHill,7-31,55,6,selected,12-37,17-43;14-31;9-35;12-34;16-37;11-36,14-31,0.87,66,-1,1233.08271905
GEMS209,2018_Mar_21_1304,Kramer,SF,orientation,8,6,5,29-33;8-11;16-17;7-31,4,SimpleHill,7-31,55,7,selected,14-31,9-29;8-34;19-32;10-29;15-33;9-28,19-32,2.08,74,8,1238.74900619
GEMS209,2018_Mar_21_1304,Kramer,SF,orientation,8,6,5,29-33;8-11;16-17;7-31,4,SimpleHill,7-31,55,8,selected,19-32,17-25;14-34;23-28;15-27;13-32;20-30,23-28,2.44,75,1,1244.75213382
GEMS209,2018_Mar_21_1304,Kramer,SF,orientation,8,6,5,29-33;8-11;16-17;7-31,4,SimpleHill,7-31,55,9,selected,23-28,18-24;23-23;24-33;23-31;18-25;27-34,27-34,2.94,84,9,1251.27387789
GEMS209,2018_Mar_21_1304,Kramer,SF,orientation,8,6,5,29-33;8-11;16-17;7-31,4,SimpleHill,7-31,55,10,selected,27-34,24-32;20-33;28-37;32-38;27-27;33-32,32-38,1.25,90,6,1256.07795831
GEMS209,2018_Mar_21_1304,Kramer,SF,orientation,8,6,5,29-33;8-11;16-17;7-31,4,SimpleHill,7-31,55,11,selected,32-38,38-43;36-38;35-36;30-40;33-39;31-38,38-43,2.47,96,6,1262.12395022
GEMS209,2018_Mar_21_1304,Kramer,SF,orientation,8,6,5,29-33;8-11;16-17;7-31,4,SimpleHill,7-31,55,12,selected,38-43,43-42;43-40;34-39;33-42;40-41;39-48,34-39,0.86,92,-4,1266.55006333
GEMS209,2018_Mar_21_1304,Kramer,SF,orientation,8,6,5,29-33;8-11;16-17;7-31,4,SimpleHill,7-31,55,13,selected,34-39,29-45;34-42;35-39;31-32;38-44;34-37,38-44,1.13,96,4,1271.25954221
GEMS209,2018_Mar_21_1304,Kramer,SF,orientation,8,6,5,29-33;8-11;16-17;7-31,4,SimpleHill,7-31,55,14,selected,38-44,44-44;35-42;45-43;33-39;32-49;38-50,44-44,1.68,98,2,1276.50471833
GEMS209,2018_Mar_21_1304,Kramer,SF,orientation,8,6,5,29-33;8-11;16-17;7-31,4,SimpleHill,7-31,55,15,selected,44-44,44-42;47-50;44-52;43-42;44-43;49-50,44-43,0.8,98,0,1280.88321474
GEMS209,2018_Mar_21_1304,Kramer,SF,orientation,8,6,5,29-33;8-11;16-17;7-31,4,SimpleHill,7-31,55,16,selected,44-43,40-44;38-45;39-47;45-45;42-36;38-42,45-45,1.08,99,1,1285.53346299
GEMS209,2018_Mar_21_1304,Kramer,SF,orientation,8,6,5,29-33;8-11;16-17;7-31,4,SimpleHill,7-31,55,17,selected,45-45,52-44;43-52;47-46;46-39;40-40;43-38,40-40,1.07,96,-3,1290.1818323
GEMS209,2018_Mar_21_1304,Kramer,SF,orientation,8,6,5,29-33;8-11;16-17;7-31,4,SimpleHill,7-31,55,18,selected,40-40,47-42;39-38;45-34;45-41;39-45;40-32,47-42,0.43,98,2,1294.19120333
GEMS209,2018_Mar_21_1304,Kramer,SF,orientation,8,6,5,29-33;8-11;16-17;7-31,4,SimpleHill,7-31,55,19,selected,47-42,47-46;45-38;53-43;43-39;50-47;47-36,50-47,3.36,99,1,1301.09930722
GEMS209,2018_Mar_21_1304,Kramer,SF,orientation,8,6,5,29-33;8-11;16-17;7-31,4,SimpleHill,7-31,55,20,selected,50-47,50-39;52-41;54-47;52-46;51-47;47-49,52-46,2.73,99,0,1307.3975858
GEMS209,2018_Mar_21_1304,Kramer,SF,orientation,8,6,5,29-33;8-11;16-17;7-31,4,SimpleHill,7-31,55,21,selected,52-46,45-49;57-44;58-48;52-44;47-48;55-42,58-48,2.06,98,-1,1313.02401401
GEMS209,2018_Mar_21_1304,Kramer,SF,orientation,8,6,5,29-33;8-11;16-17;7-31,4,SimpleHill,7-31,55,22,selected,58-48,65-45;59-47;59-48;57-51;58-43;57-49,65-45,1.11,95,-3,1317.69559869
GEMS209,2018_Mar_21_1304,Kramer,SF,orientation,8,6,5,29-33;8-11;16-17;7-31,4,SimpleHill,7-31,55,23,selected,65-45,64-41;65-40;65-50;70-43;70-47;65-46,65-40,1.25,93,-2,1322.52368191
GEMS209,2018_Mar_21_1304,Kramer,SF,orientation,8,6,5,29-33;8-11;16-17;7-31,4,SimpleHill,7-31,55,24,selected,65-40,60-43;64-35;69-41;64-40;59-44;65-33,59-44,1.07,97,4,1327.1458769
GEMS209,2018_Mar_21_1304,Kramer,SF,orientation,8,6,5,29-33;8-11;16-17;7-31,4,SimpleHill,7-31,55,25,selected,59-44,60-37;59-49;56-38;56-49;66-41;55-48,66-41,1.9,93,-4,1332.62674255
GEMS209,2018_Mar_21_1304,Kramer,SF,orientation,8,6,5,29-33;8-11;16-17;7-31,4,SimpleHill,7-31,55,26,selected,66-41,69-44;60-41;66-42;65-42;65-47;66-34,66-42,1.18,93,0,1337.36421067
GEMS209,2018_Mar_21_1304,Kramer,SF,orientation,8,6,5,29-33;8-11;16-17;7-31,4,SimpleHill,7-31,55,27,selected,66-42,67-38;65-42;70-41;60-43;66-38;60-38,67-38,1.49,91,-2,1342.4226161
GEMS209,2018_Mar_21_1304,Kramer,SF,orientation,8,6,5,29-33;8-11;16-17;7-31,4,SimpleHill,7-31,55,28,selected,67-38,67-35;67-40;70-42;61-42;69-39;61-35,61-35,0.74,93,2,1346.7386371
GEMS209,2018_Mar_21_1304,Kramer,SF,orientation,8,6,5,29-33;8-11;16-17;7-31,4,SimpleHill,7-31,55,29,selected,61-35,54-33;64-31;62-32;58-37;62-37;62-41,62-32,1.0,90,-3,1351.30336485
GEMS209,2018_Mar_21_1304,Kramer,SF,orientation,8,6,5,29-33;8-11;16-17;7-31,4,SimpleHill,7-31,55,30,selected,62-32,67-31;59-27;58-26;65-27;60-37;62-31,58-26,2.06,87,-3,1356.93185062
GEMS209,2018_Mar_21_1304,Kramer,SF,orientation,8,6,5,29-33;8-11;16-17;7-31,4,SimpleHill,7-31,55,31,selected,58-26,55-19;64-26;60-33;58-30;52-21;58-26,52-21,0.87,83,-4,1361.36505411
GEMS209,2018_Mar_21_1304,Kramer,SF,orientation,8,6,5,29-33;8-11;16-17;7-31,4,SimpleHill,7-31,55,32,selected,52-21,49-18;52-22;48-26;56-23;49-25;54-17,49-18,0.47,79,-4,1365.40985016
GEMS209,2018_Mar_21_1304,Kramer,SF,orientation,8,6,5,29-33;8-11;16-17;7-31,4,SimpleHill,7-31,55,33,selected,49-18,56-16;45-24;45-15;47-16;43-14;52-15,47-16,0.53,76,-3,1369.50585434
GEMS209,2018_Mar_21_1304,Kramer,SF,orientation,8,6,5,29-33;8-11;16-17;7-31,4,SimpleHill,7-31,55,34,selected,47-16,47-9;44-18;48-16;46-18;53-16;40-19,44-18,0.49,78,2,1373.55688995
GEMS209,2018_Mar_21_1304,Kramer,SF,orientation,8,6,5,29-33;8-11;16-17;7-31,4,SimpleHill,7-31,55,35,selected,44-18,42-18;45-22;43-23;40-24;38-18;41-22,43-23,1.18,84,6,1378.31190205
GEMS209,2018_Mar_21_1304,Kramer,SF,orientation,8,6,5,29-33;8-11;16-17;7-31,4,SimpleHill,7-31,55,36,selected,43-23,45-29;49-28;48-27;36-23;45-26;43-16,43-16,0.87,75,-9,1382.75349742
GEMS209,2018_Mar_21_1304,Kramer,SF,orientation,8,6,5,29-33;8-11;16-17;7-31,4,SimpleHill,7-31,55,37,selected,43-16,44-14;47-21;43-15;41-18;50-14;41-16,41-18,0.83,77,2,1387.16534975
GEMS209,2018_Mar_21_1304,Kramer,SF,orientation,8,6,5,29-33;8-11;16-17;7-31,4,SimpleHill,7-31,55,38,selected,41-18,43-17;37-20;45-17;43-24;40-17;41-17,37-20,1.05,78,1,1391.79091948
GEMS209,2018_Mar_21_1304,Kramer,SF,orientation,8,6,5,29-33;8-11;16-17;7-31,4,SimpleHill,7-31,55,39,selected,37-20,41-23;39-18;35-22;35-16;40-27;32-18,40-27,1.17,87,9,1396.53814531
