subj_id,date,computer,experimenter,version,generation,inherit_from,sight_radius,n_gabors,block_ix,landscape_name,starting_pos,starting_score,trial,pos,stims,selected,rt,score,delta,exp_time,landscape_ix
GEMS183,2018_Oct_22_1000,Jerry,VC,1.3,1,,10,6,1,SimpleHill,0-0,0,0,0-0,5-1;4-0;6-7;2-5;2-3;6-8,4-0,4.33,7,7,134.137198672,1
GEMS183,2018_Oct_22_1000,Jerry,VC,1.3,1,,10,6,1,SimpleHill,0-0,0,1,4-0,9-2;1-4;9-5;11-7;5-0;11-2,11-7,8.31,32,25,146.580980702,1
GEMS183,2018_Oct_22_1000,Jerry,VC,1.3,1,,10,6,1,SimpleHill,0-0,0,2,11-7,11-3;4-14;21-7;14-13;6-10;8-3,4-14,6.58,31,-1,157.237395209,1
GEMS183,2018_Oct_22_1000,Jerry,VC,1.3,1,,10,6,1,SimpleHill,0-0,0,3,4-14,7-19;3-6;2-7;3-17;10-11;0-11,2-7,4.51,16,-15,165.814056893,1
GEMS183,2018_Oct_22_1000,Jerry,VC,1.3,1,,10,6,1,SimpleHill,0-0,0,4,2-7,5-7;11-3;2-8;8-3;8-11;8-0,8-0,4.04,14,-2,173.930145738,1
GEMS183,2018_Oct_22_1000,Jerry,VC,1.3,1,,10,6,1,SimpleHill,0-0,0,5,8-0,15-4;3-0;2-3;7-5;13-6;6-9,15-4,6.02,33,19,184.020973147,1
GEMS183,2018_Oct_22_1000,Jerry,VC,1.3,1,,10,6,1,SimpleHill,0-0,0,6,15-4,9-6;24-2;13-0;21-1;11-7;11-9,11-7,6.55,32,-1,194.647578015,1
GEMS183,2018_Oct_22_1000,Jerry,VC,1.3,1,,10,6,1,SimpleHill,0-0,0,7,11-7,5-1;8-6;4-4;11-4;4-1;17-15,5-1,7.5,11,-21,206.220921612,1
GEMS183,2018_Oct_22_1000,Jerry,VC,1.3,1,,10,6,1,SimpleHill,0-0,0,8,5-1,1-1;11-4;4-0;10-1;8-5;8-0,8-0,18.54,14,3,228.838457599,1
GEMS183,2018_Oct_22_1000,Jerry,VC,1.3,1,,10,6,1,SimpleHill,0-0,0,9,8-0,12-6;15-5;12-7;10-0;2-6;9-8,10-0,2.64,18,4,235.529726096,1
GEMS183,2018_Oct_22_1000,Jerry,VC,1.3,1,,10,6,1,SimpleHill,0-0,0,10,10-0,2-4;17-4;5-1;3-1;6-2;1-2,3-1,3.6,7,-11,243.201563015,1
GEMS183,2018_Oct_22_1000,Jerry,VC,1.3,1,,10,6,1,SimpleHill,0-0,0,11,3-1,11-0;6-4;9-6;2-6;10-7;11-7,11-0,2.2,19,12,249.46651857,1
GEMS183,2018_Oct_22_1000,Jerry,VC,1.3,1,,10,6,1,SimpleHill,0-0,0,12,11-0,4-3;15-3;10-6;16-7;12-9;12-4,15-3,3.24,31,12,256.76486945,1
GEMS183,2018_Oct_22_1000,Jerry,VC,1.3,1,,10,6,1,SimpleHill,0-0,0,13,15-3,13-5;12-12;15-3;8-8;9-6;15-8,15-3,1.81,31,0,262.617270309,1
GEMS183,2018_Oct_22_1000,Jerry,VC,1.3,1,,10,6,1,SimpleHill,0-0,0,14,15-3,14-12;10-7;16-11;17-4;16-10;21-7,10-7,2.91,31,0,269.584456274,1
GEMS183,2018_Oct_22_1000,Jerry,VC,1.3,1,,10,6,1,SimpleHill,0-0,0,15,10-7,12-14;7-14;9-8;13-4;4-6;11-3,9-8,1.4,31,0,275.045595997,1
GEMS183,2018_Oct_22_1000,Jerry,VC,1.3,1,,10,6,1,SimpleHill,0-0,0,16,9-8,8-8;12-6;4-11;8-2;2-14;6-4,8-8,3.6,29,-2,282.717062569,1
GEMS183,2018_Oct_22_1000,Jerry,VC,1.3,1,,10,6,1,SimpleHill,0-0,0,17,8-8,11-7;15-13;5-1;3-10;6-9;9-0,6-9,0.8,27,-2,287.587941128,1
GEMS183,2018_Oct_22_1000,Jerry,VC,1.3,1,,10,6,1,SimpleHill,0-0,0,18,6-9,0-16;5-18;5-5;2-18;8-8;1-15,0-16,6.2,26,-1,297.85625094,1
GEMS183,2018_Oct_22_1000,Jerry,VC,1.3,1,,10,6,1,SimpleHill,0-0,0,19,0-16,3-14;7-9;2-25;3-20;6-22;5-9,2-25,1.71,41,15,303.632844444,1
GEMS183,2018_Oct_22_1000,Jerry,VC,1.3,1,,10,6,1,SimpleHill,0-0,0,20,2-25,8-32;2-16;0-21;6-34;3-24;11-21,3-24,7.46,42,1,315.170305593,1
GEMS183,2018_Oct_22_1000,Jerry,VC,1.3,1,,10,6,1,SimpleHill,0-0,0,21,3-24,3-26;3-21;1-17;11-21;6-33;10-22,3-26,3.66,44,2,322.905266173,1
GEMS183,2018_Oct_22_1000,Jerry,VC,1.3,1,,10,6,1,SimpleHill,0-0,0,22,3-26,8-19;3-29;8-24;12-22;9-27;9-33,8-19,6.61,45,1,333.592862562,1
GEMS183,2018_Oct_22_1000,Jerry,VC,1.3,1,,10,6,1,SimpleHill,0-0,0,23,8-19,6-21;6-25;7-21;4-19;14-22;7-14,7-14,3.77,37,-8,341.422960606,1
GEMS183,2018_Oct_22_1000,Jerry,VC,1.3,1,,10,6,1,SimpleHill,0-0,0,24,7-14,3-16;16-10;8-9;2-13;7-17;5-20,8-9,1.25,31,-6,346.734836384,1
GEMS183,2018_Oct_22_1000,Jerry,VC,1.3,1,,10,6,1,SimpleHill,0-0,0,25,8-9,3-6;4-4;12-18;16-5;13-12;7-17,3-6,1.66,17,-14,352.457234266,1
GEMS183,2018_Oct_22_1000,Jerry,VC,1.3,1,,10,6,1,SimpleHill,0-0,0,26,3-6,7-1;9-9;0-14;3-12;0-9;4-5,0-14,4.58,24,7,361.106797179,1
GEMS183,2018_Oct_22_1000,Jerry,VC,1.3,1,,10,6,1,SimpleHill,0-0,0,27,0-14,1-20;4-23;4-6;8-13;7-16;8-8,4-6,4.35,18,-6,369.533053145,1
GEMS183,2018_Oct_22_1000,Jerry,VC,1.3,1,,10,6,1,SimpleHill,0-0,0,28,4-6,2-10;10-11;3-10;6-5;9-10;14-6,3-10,4.63,23,5,378.242406269,1
GEMS183,2018_Oct_22_1000,Jerry,VC,1.3,1,,10,6,1,SimpleHill,0-0,0,29,3-10,9-16;6-10;2-12;4-2;1-18;7-15,9-16,6.0,43,20,388.312237804,1
GEMS183,2018_Oct_22_1000,Jerry,VC,1.3,1,,10,6,1,SimpleHill,0-0,0,30,9-16,5-22;15-19;10-22;13-21;13-19;0-19,0-19,8.01,30,-13,400.409661693,1
GEMS183,2018_Oct_22_1000,Jerry,VC,1.3,1,,10,6,1,SimpleHill,0-0,0,31,0-19,6-24;4-16;3-12;7-14;2-19;3-10,7-14,4.02,37,7,408.49646265,1
GEMS183,2018_Oct_22_1000,Jerry,VC,1.3,1,,10,6,1,SimpleHill,0-0,0,32,7-14,11-9;4-6;5-5;6-9;2-6;5-23,11-9,7.04,35,-2,419.60456805,1
GEMS183,2018_Oct_22_1000,Jerry,VC,1.3,1,,10,6,1,SimpleHill,0-0,0,33,11-9,11-16;14-17;9-1;6-8;10-18;10-11,11-16,5.8,46,11,429.469351075,1
GEMS183,2018_Oct_22_1000,Jerry,VC,1.3,1,,10,6,1,SimpleHill,0-0,0,34,11-16,15-10;14-14;13-8;9-15;9-10;10-16,13-8,3.98,37,-9,437.506550387,1
GEMS183,2018_Oct_22_1000,Jerry,VC,1.3,1,,10,6,1,SimpleHill,0-0,0,35,13-8,6-1;22-10;16-6;11-10;18-1;19-13,18-1,1.36,31,-6,442.943801875,1
GEMS183,2018_Oct_22_1000,Jerry,VC,1.3,1,,10,6,1,SimpleHill,0-0,0,36,18-1,23-0;25-3;12-6;11-7;11-6;16-8,16-8,6.75,41,10,453.773532132,1
GEMS183,2018_Oct_22_1000,Jerry,VC,1.3,1,,10,6,1,SimpleHill,0-0,0,37,16-8,17-13;22-13;14-12;12-1;12-5;17-2,12-1,5.45,23,-18,463.29862584,1
GEMS183,2018_Oct_22_1000,Jerry,VC,1.3,1,,10,6,1,SimpleHill,0-0,0,38,12-1,10-6;16-2;10-2;14-7;12-10;17-4,12-10,6.53,39,16,473.889370665,1
GEMS183,2018_Oct_22_1000,Jerry,VC,1.3,1,,10,6,1,SimpleHill,0-0,0,39,12-10,7-9;9-15;12-20;15-18;13-18;9-1,13-18,1.01,52,13,478.960974236,1
GEMS183,2018_Oct_22_1000,Jerry,VC,1.3,1,,10,6,1,SimpleHill,0-0,0,40,13-18,16-23;15-16;16-27;14-24;15-27;13-22,15-27,0.8,64,12,483.80580393,1
GEMS183,2018_Oct_22_1000,Jerry,VC,1.3,1,,10,6,1,SimpleHill,0-0,0,41,15-27,20-31;17-25;14-18;18-25;21-28;11-32,21-28,0.29,73,9,488.161385875,1
GEMS183,2018_Oct_22_1000,Jerry,VC,1.3,1,,10,6,1,SimpleHill,0-0,0,42,21-28,24-34;19-29;27-36;16-22;21-34;22-24,21-34,0.33,78,5,492.561690604,1
GEMS183,2018_Oct_22_1000,Jerry,VC,1.3,1,,10,6,1,SimpleHill,0-0,0,43,21-34,20-32;22-32;16-29;20-34;25-43;16-36,25-43,0.35,86,8,496.968813318,1
GEMS183,2018_Oct_22_1000,Jerry,VC,1.3,1,,10,6,1,SimpleHill,0-0,0,44,25-43,21-41;16-42;29-37;17-39;25-36;24-48,25-36,0.49,83,-3,501.508417491,1
GEMS183,2018_Oct_22_1000,Jerry,VC,1.3,1,,10,6,1,SimpleHill,0-0,0,45,25-36,21-37;30-35;22-43;28-37;26-37;24-30,28-37,1.54,86,3,507.114815514,1
GEMS183,2018_Oct_22_1000,Jerry,VC,1.3,1,,10,6,1,SimpleHill,0-0,0,46,28-37,19-39;27-44;31-30;22-44;21-34;26-45,22-44,0.43,83,-3,511.616282821,1
GEMS183,2018_Oct_22_1000,Jerry,VC,1.3,1,,10,6,1,SimpleHill,0-0,0,47,22-44,28-38;28-40;24-51;18-50;20-39;15-37,20-39,0.24,79,-4,515.929298452,1
GEMS183,2018_Oct_22_1000,Jerry,VC,1.3,1,,10,6,1,SimpleHill,0-0,0,48,20-39,19-34;14-41;14-35;28-35;11-35;20-31,19-34,0.69,75,-4,520.684533736,1
GEMS183,2018_Oct_22_1000,Jerry,VC,1.3,1,,10,6,1,SimpleHill,0-0,0,49,19-34,17-37;14-37;19-25;23-37;12-31;13-39,14-37,0.49,70,-5,525.249489611,1
GEMS183,2018_Oct_22_1000,Jerry,VC,1.3,1,,10,6,1,SimpleHill,0-0,0,50,14-37,7-40;20-35;8-32;7-36;14-36;5-36,5-36,0.38,55,-15,529.701884069,1
GEMS183,2018_Oct_22_1000,Jerry,VC,1.3,1,,10,6,1,SimpleHill,0-0,0,51,5-36,5-44;1-37;0-39;10-42;1-28;14-37,1-28,0.36,42,-13,534.135213134,1
GEMS183,2018_Oct_22_1000,Jerry,VC,1.3,1,,10,6,1,SimpleHill,0-0,0,52,1-28,5-33;0-23;3-28;0-35;3-29;0-32,3-28,0.5,46,4,538.713257941,1
GEMS183,2018_Oct_22_1000,Jerry,VC,1.3,1,,10,6,1,SimpleHill,0-0,0,53,3-28,0-37;7-32;6-32;1-33;9-36;3-29,6-32,0.4,54,8,543.180801129,1
GEMS183,2018_Oct_22_1000,Jerry,VC,1.3,1,,10,6,1,SimpleHill,0-0,0,54,6-32,3-34;6-42;5-29;10-28;10-29;14-34,5-29,0.29,50,-4,547.585292357,1
GEMS183,2018_Oct_22_1000,Jerry,VC,1.3,1,,10,6,1,SimpleHill,0-0,0,55,5-29,14-33;1-22;10-28;0-28;11-30;13-23,1-22,0.58,36,-14,552.236741579,1
GEMS183,2018_Oct_22_1000,Jerry,VC,1.3,1,,10,6,1,SimpleHill,0-0,0,56,1-22,6-22;7-20;5-29;10-22;10-23;9-25,10-22,2.17,52,16,558.489399153,1
GEMS183,2018_Oct_22_1000,Jerry,VC,1.3,1,,10,6,1,SimpleHill,0-0,0,57,10-22,16-25;7-16;7-30;9-16;10-19;13-17,9-16,0.52,43,-9,563.083109962,1
GEMS183,2018_Oct_22_1000,Jerry,VC,1.3,1,,10,6,1,SimpleHill,0-0,0,58,9-16,11-9;12-15;8-11;17-21;6-16;5-17,5-17,5.31,37,-6,572.466856589,1
GEMS183,2018_Oct_22_1000,Jerry,VC,1.3,1,,10,6,1,SimpleHill,0-0,0,59,5-17,6-19;14-20;14-16;5-8;10-22;6-23,10-22,0.52,52,15,577.066889238,1
GEMS183,2018_Oct_22_1000,Jerry,VC,1.3,1,,10,6,1,SimpleHill,0-0,0,60,10-22,5-27;16-16;12-16;17-18;2-18;17-25,2-18,0.36,33,-19,581.490832851,1
GEMS183,2018_Oct_22_1000,Jerry,VC,1.3,1,,10,6,1,SimpleHill,0-0,0,61,2-18,0-17;2-8;6-26;2-22;4-25;9-12,6-26,10.25,49,16,595.813120301,1
GEMS183,2018_Oct_22_1000,Jerry,VC,1.3,1,,10,6,1,SimpleHill,0-0,0,62,6-26,11-23;2-20;11-27;1-33;14-28;14-31,2-20,3.84,35,-14,603.721723126,1
GEMS183,2018_Oct_22_1000,Jerry,VC,1.3,1,,10,6,1,SimpleHill,0-0,0,63,2-20,9-13;3-21;7-20;0-16;11-19;4-17,11-19,2.1,50,15,609.878104344,1
GEMS183,2018_Oct_22_1000,Jerry,VC,1.3,1,,10,6,1,SimpleHill,0-0,0,64,11-19,4-19;18-24;5-24;13-14;14-28;19-16,18-24,6.19,66,16,620.146170245,1
GEMS183,2018_Oct_22_1000,Jerry,VC,1.3,1,,10,6,1,SimpleHill,0-0,0,65,18-24,20-32;20-31;26-22;15-18;25-31;16-27,15-18,8.66,55,-11,632.879337343,1
GEMS183,2018_Oct_22_1000,Jerry,VC,1.3,1,,10,6,1,SimpleHill,0-0,0,66,15-18,24-19;7-20;21-10;10-11;15-20;22-16,24-19,4.4,67,12,641.33808309,1
GEMS183,2018_Oct_22_1000,Jerry,VC,1.3,1,,10,6,1,SimpleHill,0-0,0,67,24-19,20-20;23-17;17-23;27-13;24-17;25-11,24-17,5.63,64,-3,651.048218521,1
GEMS183,2018_Oct_22_1000,Jerry,VC,1.3,1,,10,6,1,SimpleHill,0-0,0,68,24-17,26-18;21-19;16-19;30-10;28-21;25-9,30-10,8.32,60,-4,663.441911404,1
GEMS183,2018_Oct_22_1000,Jerry,VC,1.3,1,,10,6,1,SimpleHill,0-0,0,69,30-10,37-14;32-8;23-17;24-5;36-5;39-6,39-6,10.25,58,-2,677.744826813,1
GEMS183,2018_Oct_22_1000,Jerry,VC,1.3,1,,10,6,1,SimpleHill,0-0,0,70,39-6,46-11;32-5;41-14;44-8;41-0;33-11,41-14,4.98,72,14,686.799636374,1
GEMS183,2018_Oct_22_1000,Jerry,VC,1.3,1,,10,6,1,SimpleHill,0-0,0,71,41-14,49-8;49-16;34-17;39-6;50-11;39-19,49-16,2.01,76,4,692.880843702,1
GEMS183,2018_Oct_22_1000,Jerry,VC,1.3,1,,10,6,1,SimpleHill,0-0,0,72,49-16,55-16;46-15;56-22;43-14;48-20;56-14,56-14,8.97,73,-3,705.917681629,1
GEMS183,2018_Oct_22_1000,Jerry,VC,1.3,1,,10,6,1,SimpleHill,0-0,0,73,56-14,55-9;48-9;49-10;64-13;62-15;47-10,62-15,3.44,72,-1,713.432859809,1
GEMS183,2018_Oct_22_1000,Jerry,VC,1.3,1,,10,6,1,SimpleHill,0-0,0,74,62-15,64-16;65-15;65-14;68-14;60-9;57-17,68-14,7.29,67,-5,724.801454183,1
GEMS183,2018_Oct_22_1000,Jerry,VC,1.3,1,,10,6,1,SimpleHill,0-0,0,75,68-14,65-10;66-15;63-10;61-8;69-10;66-12,61-8,10.0,62,-5,738.865986255,1
GEMS183,2018_Oct_22_1000,Jerry,VC,1.3,1,,10,6,1,SimpleHill,0-0,0,76,61-8,55-14;58-12;56-0;61-3;60-16;59-17,61-3,2.61,53,-9,745.545378974,1
GEMS183,2018_Oct_22_1000,Jerry,VC,1.3,1,,10,6,1,SimpleHill,0-0,0,77,61-3,62-10;54-7;62-1;59-7;61-1;61-0,54-7,5.2,62,9,754.819109245,1
GEMS183,2018_Oct_22_1000,Jerry,VC,1.3,1,,10,6,1,SimpleHill,0-0,0,78,54-7,56-2;50-16;56-7;51-10;50-0;62-11,50-16,1.2,76,14,760.081537664,1
GEMS183,2018_Oct_22_1000,Jerry,VC,1.3,1,,10,6,1,SimpleHill,0-0,0,79,50-16,49-23;49-20;47-12;46-14;57-16;46-10,46-14,2.76,73,-3,766.922025934,1
GEMS183,2018_Oct_22_1000,Jerry,VC,1.3,1,,10,6,2,SimpleHill,0-0,0,0,0-0,3-6;0-10;7-3;4-6;6-5;8-1,8-1,2.63,16,16,898.480262732,1
GEMS183,2018_Oct_22_1000,Jerry,VC,1.3,1,,10,6,2,SimpleHill,0-0,0,1,8-1,15-0;6-3;1-6;6-8;0-0;4-9,15-0,2.42,25,9,904.946948391,1
GEMS183,2018_Oct_22_1000,Jerry,VC,1.3,1,,10,6,2,SimpleHill,0-0,0,2,15-0,20-8;8-3;19-8;16-9;19-7;25-0,25-0,2.33,37,12,911.331309597,1
GEMS183,2018_Oct_22_1000,Jerry,VC,1.3,1,,10,6,2,SimpleHill,0-0,0,3,25-0,27-9;26-2;21-2;26-9;23-7;30-8,30-8,1.44,56,19,916.849824749,1
GEMS183,2018_Oct_22_1000,Jerry,VC,1.3,1,,10,6,2,SimpleHill,0-0,0,4,30-8,38-9;32-1;36-6;28-8;22-13;34-5,38-9,3.58,63,7,924.503180126,1
GEMS183,2018_Oct_22_1000,Jerry,VC,1.3,1,,10,6,2,SimpleHill,0-0,0,5,38-9,33-2;32-11;41-5;44-5;30-6;33-6,41-5,4.51,57,-6,933.083286333,1
GEMS183,2018_Oct_22_1000,Jerry,VC,1.3,1,,10,6,2,SimpleHill,0-0,0,6,41-5,46-0;45-10;43-11;45-9;42-11;46-7,45-9,1.26,65,8,938.409448191,1
GEMS183,2018_Oct_22_1000,Jerry,VC,1.3,1,,10,6,2,SimpleHill,0-0,0,7,45-9,42-2;37-9;51-13;48-0;37-8;46-5,51-13,1.35,72,7,943.829153769,1
GEMS183,2018_Oct_22_1000,Jerry,VC,1.3,1,,10,6,2,SimpleHill,0-0,0,8,51-13,52-10;45-11;58-20;42-11;50-11;48-6,58-20,4.72,80,8,952.624815866,1
GEMS183,2018_Oct_22_1000,Jerry,VC,1.3,1,,10,6,2,SimpleHill,0-0,0,9,58-20,63-24;60-12;57-23;52-26;63-12;53-23,57-23,0.78,84,4,957.465531723,1
GEMS183,2018_Oct_22_1000,Jerry,VC,1.3,1,,10,6,2,SimpleHill,0-0,0,10,57-23,56-28;62-23;63-25;61-31;53-24;55-26,63-25,2.13,84,0,963.674521221,1
GEMS183,2018_Oct_22_1000,Jerry,VC,1.3,1,,10,6,2,SimpleHill,0-0,0,11,63-25,61-27;56-19;54-23;63-18;60-26;62-16,60-26,5.02,86,2,972.76960747,1
GEMS183,2018_Oct_22_1000,Jerry,VC,1.3,1,,10,6,2,SimpleHill,0-0,0,12,60-26,55-29;62-27;61-19;62-22;68-20;61-35,55-29,7.53,90,4,984.373795249,1
GEMS183,2018_Oct_22_1000,Jerry,VC,1.3,1,,10,6,2,SimpleHill,0-0,0,13,55-29,60-23;51-29;56-28;52-35;51-24;55-33,52-35,5.28,95,5,993.700362345,1
GEMS183,2018_Oct_22_1000,Jerry,VC,1.3,1,,10,6,2,SimpleHill,0-0,0,14,52-35,59-39;48-26;55-42;54-29;55-43;56-44,48-26,3.31,88,-7,1001.07448473,1
GEMS183,2018_Oct_22_1000,Jerry,VC,1.3,1,,10,6,2,SimpleHill,0-0,0,15,48-26,55-22;51-27;44-31;44-17;57-22;40-23,44-17,1.4,77,-11,1006.54180481,1
GEMS183,2018_Oct_22_1000,Jerry,VC,1.3,1,,10,6,2,SimpleHill,0-0,0,16,44-17,45-8;38-16;35-20;51-20;49-14;41-16,35-20,1.13,77,0,1011.75483357,1
GEMS183,2018_Oct_22_1000,Jerry,VC,1.3,1,,10,6,2,SimpleHill,0-0,0,17,35-20,28-17;41-16;38-25;38-26;29-21;37-15,29-21,5.22,74,-3,1021.04703706,1
GEMS183,2018_Oct_22_1000,Jerry,VC,1.3,1,,10,6,2,SimpleHill,0-0,0,18,29-21,20-17;26-12;21-20;35-21;30-30;36-18,21-20,5.27,65,-9,1030.39451264,1
GEMS183,2018_Oct_22_1000,Jerry,VC,1.3,1,,10,6,2,SimpleHill,0-0,0,19,21-20,20-20;28-27;24-18;24-29;25-29;14-19,14-19,11.85,54,-11,1046.32829336,1
GEMS183,2018_Oct_22_1000,Jerry,VC,1.3,1,,10,6,2,SimpleHill,0-0,0,20,14-19,19-14;13-13;20-26;5-20;9-25;19-27,5-20,4.47,41,-13,1054.87191214,1
GEMS183,2018_Oct_22_1000,Jerry,VC,1.3,1,,10,6,2,SimpleHill,0-0,0,21,5-20,3-18;9-12;13-18;1-29;8-22;10-22,3-18,4.94,35,-6,1063.88976982,1
GEMS183,2018_Oct_22_1000,Jerry,VC,1.3,1,,10,6,2,SimpleHill,0-0,0,22,3-18,12-18;1-13;11-23;3-15;5-21;12-14,11-23,5.41,55,20,1073.36796955,1
GEMS183,2018_Oct_22_1000,Jerry,VC,1.3,1,,10,6,2,SimpleHill,0-0,0,23,11-23,1-23;6-17;18-23;6-20;4-16;15-28,18-23,10.26,64,9,1087.71412315,1
GEMS183,2018_Oct_22_1000,Jerry,VC,1.3,1,,10,6,2,SimpleHill,0-0,0,24,18-23,21-20;14-15;13-22;18-22;16-15;17-25,18-22,1.75,63,-1,1093.53566671,1
GEMS183,2018_Oct_22_1000,Jerry,VC,1.3,1,,10,6,2,SimpleHill,0-0,0,25,18-22,17-18;16-30;17-30;16-27;10-16;18-27,17-18,2.24,57,-6,1099.85010195,1
GEMS183,2018_Oct_22_1000,Jerry,VC,1.3,1,,10,6,2,SimpleHill,0-0,0,26,17-18,23-10;20-19;9-24;22-26;11-19;18-19,20-19,7.73,62,5,1111.65627143,1
GEMS183,2018_Oct_22_1000,Jerry,VC,1.3,1,,10,6,2,SimpleHill,0-0,0,27,20-19,26-23;25-27;26-24;19-18;28-21;15-25,28-21,8.9,73,11,1124.62104581,1
GEMS183,2018_Oct_22_1000,Jerry,VC,1.3,1,,10,6,2,SimpleHill,0-0,0,28,28-21,28-20;23-13;29-21;20-16;33-15;36-26,33-15,6.34,69,-4,1135.02697233,1
GEMS183,2018_Oct_22_1000,Jerry,VC,1.3,1,,10,6,2,SimpleHill,0-0,0,29,33-15,34-19;33-12;39-7;26-10;28-10;33-8,39-7,11.22,60,-9,1150.31834198,1
GEMS183,2018_Oct_22_1000,Jerry,VC,1.3,1,,10,6,2,SimpleHill,0-0,0,30,39-7,37-1;38-16;38-4;33-7;40-1;34-8,37-1,4.92,48,-12,1159.3122871,1
GEMS183,2018_Oct_22_1000,Jerry,VC,1.3,1,,10,6,2,SimpleHill,0-0,0,31,37-1,40-5;36-3;30-3;37-6;40-0;40-1,40-5,7.45,57,9,1170.82873989,1
GEMS183,2018_Oct_22_1000,Jerry,VC,1.3,1,,10,6,2,SimpleHill,0-0,0,32,40-5,31-8;33-5;34-10;38-13;34-11;33-0,34-11,3.66,64,7,1178.5394819,1
GEMS183,2018_Oct_22_1000,Jerry,VC,1.3,1,,10,6,2,SimpleHill,0-0,0,33,34-11,26-12;26-6;27-14;40-8;37-19;39-16,27-14,2.75,63,-1,1185.36163299,1
GEMS183,2018_Oct_22_1000,Jerry,VC,1.3,1,,10,6,2,SimpleHill,0-0,0,34,27-14,19-19;21-13;22-9;22-6;32-22;36-11,36-11,3.23,65,2,1192.65305321,1
GEMS183,2018_Oct_22_1000,Jerry,VC,1.3,1,,10,6,2,SimpleHill,0-0,0,35,36-11,36-18;41-7;32-14;42-11;44-17;32-4,36-18,6.58,75,10,1203.29141574,1
GEMS183,2018_Oct_22_1000,Jerry,VC,1.3,1,,10,6,2,SimpleHill,0-0,0,36,36-18,32-26;40-15;30-15;30-11;26-18;39-14,39-14,5.21,71,-4,1212.55156189,1
GEMS183,2018_Oct_22_1000,Jerry,VC,1.3,1,,10,6,2,SimpleHill,0-0,0,37,39-14,48-13;32-17;40-12;39-14;46-13;42-16,46-13,10.41,72,1,1227.02399227,1
GEMS183,2018_Oct_22_1000,Jerry,VC,1.3,1,,10,6,2,SimpleHill,0-0,0,38,46-13,46-19;43-4;54-10;47-6;49-13;49-8,49-8,1.57,64,-8,1232.6716948,1
GEMS183,2018_Oct_22_1000,Jerry,VC,1.3,1,,10,6,2,SimpleHill,0-0,0,39,49-8,46-15;45-13;41-9;49-6;44-7;57-6,57-6,3.63,60,-4,1240.37124507,1
GEMS183,2018_Oct_22_1000,Jerry,VC,1.3,1,,10,6,2,SimpleHill,0-0,0,40,57-6,56-3;58-4;63-10;48-7;64-4;50-10,50-10,1.52,68,8,1246.05946724,1
GEMS183,2018_Oct_22_1000,Jerry,VC,1.3,1,,10,6,2,SimpleHill,0-0,0,41,50-10,51-6;46-6;47-2;59-6;49-5;44-17,59-6,3.49,59,-9,1253.61703056,1
GEMS183,2018_Oct_22_1000,Jerry,VC,1.3,1,,10,6,2,SimpleHill,0-0,0,42,59-6,51-6;64-3;57-13;60-8;61-4;52-8,52-8,1.5,64,5,1259.19155722,1
GEMS183,2018_Oct_22_1000,Jerry,VC,1.3,1,,10,6,2,SimpleHill,0-0,0,43,52-8,46-9;60-6;52-8;61-4;60-12;43-10,46-9,4.33,66,2,1267.59351363,1
GEMS183,2018_Oct_22_1000,Jerry,VC,1.3,1,,10,6,2,SimpleHill,0-0,0,44,46-9,45-6;46-5;49-13;49-9;48-11;47-13,47-13,3.92,72,6,1275.55804858,1
GEMS183,2018_Oct_22_1000,Jerry,VC,1.3,1,,10,6,2,SimpleHill,0-0,0,45,47-13,47-9;49-4;51-22;54-12;40-16;53-11,47-9,4.67,66,-6,1284.29284816,1
GEMS183,2018_Oct_22_1000,Jerry,VC,1.3,1,,10,6,2,SimpleHill,0-0,0,46,47-9,38-9;43-5;52-11;43-7;43-18;50-8,43-18,3.26,78,12,1291.61963996,1
GEMS183,2018_Oct_22_1000,Jerry,VC,1.3,1,,10,6,2,SimpleHill,0-0,0,47,43-18,42-11;34-19;36-12;39-15;48-22;37-15,37-15,1.27,72,-6,1296.95871022,1
GEMS183,2018_Oct_22_1000,Jerry,VC,1.3,1,,10,6,2,SimpleHill,0-0,0,48,37-15,29-20;38-17;32-15;38-7;34-14;35-6,29-20,2.35,73,1,1303.38752597,1
GEMS183,2018_Oct_22_1000,Jerry,VC,1.3,1,,10,6,2,SimpleHill,0-0,0,49,29-20,23-15;28-27;28-25;28-19;31-19;31-26,28-27,3.63,79,6,1311.10075574,1
GEMS183,2018_Oct_22_1000,Jerry,VC,1.3,1,,10,6,2,SimpleHill,0-0,0,50,28-27,23-23;33-21;30-35;29-18;22-34;34-25,29-18,2.93,70,-9,1318.10127621,1
GEMS183,2018_Oct_22_1000,Jerry,VC,1.3,1,,10,6,2,SimpleHill,0-0,0,51,29-18,36-19;32-18;33-24;26-16;25-15;30-10,33-24,1.66,80,10,1323.83206694,1
GEMS183,2018_Oct_22_1000,Jerry,VC,1.3,1,,10,6,2,SimpleHill,0-0,0,52,33-24,29-25;26-24;30-32;39-28;33-21;30-18,39-28,4.55,87,7,1332.45053792,1
GEMS183,2018_Oct_22_1000,Jerry,VC,1.3,1,,10,6,2,SimpleHill,0-0,0,53,39-28,36-31;36-20;41-25;33-25;42-23;46-35,36-20,2.37,78,-9,1338.88084978,1
GEMS183,2018_Oct_22_1000,Jerry,VC,1.3,1,,10,6,2,SimpleHill,0-0,0,54,36-20,38-25;41-16;43-20;37-26;36-26;29-15,36-26,2.69,84,6,1345.65192424,1
GEMS183,2018_Oct_22_1000,Jerry,VC,1.3,1,,10,6,2,SimpleHill,0-0,0,55,36-26,41-22;40-25;44-20;30-32;40-19;30-26,30-32,4.02,85,1,1353.75287876,1
GEMS183,2018_Oct_22_1000,Jerry,VC,1.3,1,,10,6,2,SimpleHill,0-0,0,56,30-32,22-30;26-28;39-35;33-36;35-27;32-28,39-35,4.15,93,8,1361.97066954,1
GEMS183,2018_Oct_22_1000,Jerry,VC,1.3,1,,10,6,2,SimpleHill,0-0,0,57,39-35,36-37;33-35;48-34;45-32;45-27;42-43,42-43,4.32,97,4,1370.35829089,1
GEMS183,2018_Oct_22_1000,Jerry,VC,1.3,1,,10,6,2,SimpleHill,0-0,0,58,42-43,35-49;41-48;50-38;39-45;40-38;40-34,40-38,1.68,95,-2,1376.11391317,1
GEMS183,2018_Oct_22_1000,Jerry,VC,1.3,1,,10,6,2,SimpleHill,0-0,0,59,40-38,43-30;36-33;36-38;37-37;44-46;35-34,36-33,2.15,90,-5,1382.35106127,1
GEMS183,2018_Oct_22_1000,Jerry,VC,1.3,1,,10,6,2,SimpleHill,0-0,0,60,36-33,31-35;33-28;32-37;40-41;33-24;41-29,31-35,1.69,88,-2,1388.11469676,1
GEMS183,2018_Oct_22_1000,Jerry,VC,1.3,1,,10,6,2,SimpleHill,0-0,0,61,31-35,30-31;23-31;32-27;35-31;24-39;40-35,24-39,1.54,84,-4,1393.71772996,1
GEMS183,2018_Oct_22_1000,Jerry,VC,1.3,1,,10,6,2,SimpleHill,0-0,0,62,24-39,25-33;20-42;24-37;22-41;23-32;17-37,24-37,3.57,83,-1,1401.37132125,1
GEMS183,2018_Oct_22_1000,Jerry,VC,1.3,1,,10,6,2,SimpleHill,0-0,0,63,24-37,17-42;20-29;18-43;28-46;30-39;18-32,20-29,0.7,73,-10,1406.13944637,1
GEMS183,2018_Oct_22_1000,Jerry,VC,1.3,1,,10,6,2,SimpleHill,0-0,0,64,20-29,21-38;11-29;19-31;13-33;19-30;18-29,21-38,1.88,80,7,1412.09600876,1
GEMS183,2018_Oct_22_1000,Jerry,VC,1.3,1,,10,6,2,SimpleHill,0-0,0,65,21-38,21-33;12-36;26-46;17-37;30-38;14-41,26-46,2.04,88,8,1418.2031574,1
GEMS183,2018_Oct_22_1000,Jerry,VC,1.3,1,,10,6,2,SimpleHill,0-0,0,66,26-46,31-51;32-54;33-51;33-44;28-54;34-41,33-44,4.74,93,5,1427.01130601,1
GEMS183,2018_Oct_22_1000,Jerry,VC,1.3,1,,10,6,2,SimpleHill,0-0,0,67,33-44,36-35;38-44;33-52;28-51;26-39;30-42,38-44,3.95,96,3,1435.03211687,1
GEMS183,2018_Oct_22_1000,Jerry,VC,1.3,1,,10,6,2,SimpleHill,0-0,0,68,38-44,38-42;37-37;40-37;42-48;38-41;31-50,42-48,6.17,98,2,1445.26527501,1
GEMS183,2018_Oct_22_1000,Jerry,VC,1.3,1,,10,6,2,SimpleHill,0-0,0,69,42-48,36-55;39-56;51-49;40-49;34-47;41-45,51-49,3.01,99,1,1452.35212622,1
GEMS183,2018_Oct_22_1000,Jerry,VC,1.3,1,,10,6,2,SimpleHill,0-0,0,70,51-49,56-50;59-51;46-42;57-44;45-52;57-45,46-42,5.05,98,-1,1461.46985906,1
GEMS183,2018_Oct_22_1000,Jerry,VC,1.3,1,,10,6,2,SimpleHill,0-0,0,71,46-42,44-41;53-48;54-45;46-47;44-37;48-48,44-41,1.75,97,-1,1467.38383273,1
GEMS183,2018_Oct_22_1000,Jerry,VC,1.3,1,,10,6,2,SimpleHill,0-0,0,72,44-41,42-37;52-46;35-41;45-34;44-40;48-34,52-46,4.0,99,2,1475.45511877,1
GEMS183,2018_Oct_22_1000,Jerry,VC,1.3,1,,10,6,2,SimpleHill,0-0,0,73,52-46,46-41;56-40;44-46;56-55;45-45;56-49,56-55,5.59,98,-1,1485.11477102,1
GEMS183,2018_Oct_22_1000,Jerry,VC,1.3,1,,10,6,2,SimpleHill,0-0,0,74,56-55,51-54;51-60;56-55;57-52;57-61;58-61,56-55,4.32,98,0,1493.50712688,1
GEMS183,2018_Oct_22_1000,Jerry,VC,1.3,1,,10,6,2,SimpleHill,0-0,0,75,56-55,65-57;65-54;56-47;56-58;50-59;57-60,65-54,1.74,95,-3,1499.3190878,1
GEMS183,2018_Oct_22_1000,Jerry,VC,1.3,1,,10,6,2,SimpleHill,0-0,0,76,65-54,67-59;65-58;67-52;69-54;69-45;56-53,65-58,3.47,94,-1,1506.85990576,1
GEMS183,2018_Oct_22_1000,Jerry,VC,1.3,1,,10,6,2,SimpleHill,0-0,0,77,65-58,59-60;64-58;63-66;60-54;62-51;58-51,60-54,1.86,97,3,1512.8025505,1
GEMS183,2018_Oct_22_1000,Jerry,VC,1.3,1,,10,6,2,SimpleHill,0-0,0,78,60-54,52-48;56-56;60-49;64-54;62-62;57-57,60-49,2.4,97,0,1519.26379394,1
GEMS183,2018_Oct_22_1000,Jerry,VC,1.3,1,,10,6,2,SimpleHill,0-0,0,79,60-49,52-54;66-45;57-52;65-41;60-49;56-54,65-41,1.52,93,-4,1524.84933629,1
