subj_id,date,computer,experimenter,instructions,sight_radius,n_gabors,start_pos_list_ix,start_pos_list,landscape_ix,landscape_name,starting_pos,starting_score,trial,feedback,pos,stims,selected,rt,score,delta,exp_time
GEMS216,2018_Mar_23_1056,Elaine,SF,spatial_frequency,8,6,8,53-2;1-6;23-34;3-33,0,SpatialFrequencyBias,0-0,0,0,training,0-0,1-2;8-0;2-1;3-4;5-4;6-5,6-5,6.04,19,19,196.01178036
GEMS216,2018_Mar_23_1056,Elaine,SF,spatial_frequency,8,6,8,53-2;1-6;23-34;3-33,0,SpatialFrequencyBias,0-0,0,1,training,6-5,11-2;11-9;3-12;10-4;5-2;1-3,5-2,13.58,7,-12,218.893996923
GEMS216,2018_Mar_23_1056,Elaine,SF,spatial_frequency,8,6,8,53-2;1-6;23-34;3-33,0,SpatialFrequencyBias,0-0,0,2,training,5-2,2-1;12-0;8-2;6-8;12-1;10-6,10-6,3.61,22,15,226.85071307
GEMS216,2018_Mar_23_1056,Elaine,SF,spatial_frequency,8,6,8,53-2;1-6;23-34;3-33,0,SpatialFrequencyBias,0-0,0,3,training,10-6,7-2;13-9;11-6;16-5;13-0;10-3,7-2,2.82,7,-15,242.746046699
GEMS216,2018_Mar_23_1056,Elaine,SF,spatial_frequency,8,6,8,53-2;1-6;23-34;3-33,0,SpatialFrequencyBias,0-0,0,4,training,7-2,4-3;11-0;2-1;0-0;8-7;0-1,0-1,3.13,3,-4,251.388722761
GEMS216,2018_Mar_23_1056,Elaine,SF,spatial_frequency,8,6,8,53-2;1-6;23-34;3-33,0,SpatialFrequencyBias,0-0,0,5,training,0-1,0-5;0-9;4-1;5-5;1-8;3-0,4-1,1.84,3,0,258.099653724
GEMS216,2018_Mar_23_1056,Elaine,SF,spatial_frequency,8,6,8,53-2;1-6;23-34;3-33,0,SpatialFrequencyBias,0-0,0,6,training,4-1,7-7;1-8;3-3;3-4;7-2;7-5,3-4,6.45,15,12,271.395240482
GEMS216,2018_Mar_23_1056,Elaine,SF,spatial_frequency,8,6,8,53-2;1-6;23-34;3-33,0,SpatialFrequencyBias,0-0,0,7,training,3-4,6-9;2-10;0-6;0-3;0-7;9-6,2-10,2.39,36,21,279.024677203
GEMS216,2018_Mar_23_1056,Elaine,SF,spatial_frequency,8,6,8,53-2;1-6;23-34;3-33,0,SpatialFrequencyBias,0-0,0,8,training,2-10,8-10;4-4;1-8;2-10;7-16;6-14,4-4,0.84,15,-21,283.555747291
GEMS216,2018_Mar_23_1056,Elaine,SF,spatial_frequency,8,6,8,53-2;1-6;23-34;3-33,0,SpatialFrequencyBias,0-0,0,9,training,4-4,7-9;4-12;0-4;8-7;1-10;4-4,1-10,0.54,36,21,289.54303098
GEMS216,2018_Mar_23_1056,Elaine,SF,spatial_frequency,8,6,8,53-2;1-6;23-34;3-33,0,SpatialFrequencyBias,0-0,0,10,training,1-10,7-11;7-8;4-7;3-15;4-11;5-15,4-7,3.94,26,-10,299.102660672
GEMS216,2018_Mar_23_1056,Elaine,SF,spatial_frequency,8,6,8,53-2;1-6;23-34;3-33,0,SpatialFrequencyBias,0-0,0,11,training,4-7,7-5;12-7;11-10;6-3;2-5;8-12,8-12,5.9,42,16,316.644007646
GEMS216,2018_Mar_23_1056,Elaine,SF,spatial_frequency,8,6,8,53-2;1-6;23-34;3-33,0,SpatialFrequencyBias,0-0,0,12,training,8-12,13-8;4-15;4-9;10-19;1-15;3-13,10-19,4.34,61,19,324.702162032
GEMS216,2018_Mar_23_1056,Elaine,SF,spatial_frequency,8,6,8,53-2;1-6;23-34;3-33,0,SpatialFrequencyBias,0-0,0,13,training,10-19,3-16;4-18;10-16;16-17;17-21;12-15,4-18,16.2,59,-2,344.37007962
GEMS216,2018_Mar_23_1056,Elaine,SF,spatial_frequency,8,6,8,53-2;1-6;23-34;3-33,0,SpatialFrequencyBias,0-0,0,14,training,4-18,2-14;1-19;6-19;10-22;7-24;8-18,2-14,7.95,48,-11,356.275466711
GEMS216,2018_Mar_23_1056,Elaine,SF,spatial_frequency,8,6,8,53-2;1-6;23-34;3-33,0,SpatialFrequencyBias,0-0,0,15,training,2-14,9-16;6-11;9-14;4-18;5-18;0-15,5-18,2.49,59,11,361.843624944
GEMS216,2018_Mar_23_1056,Elaine,SF,spatial_frequency,8,6,8,53-2;1-6;23-34;3-33,0,SpatialFrequencyBias,0-0,0,16,training,5-18,2-23;4-22;9-21;0-13;5-12;9-15,4-22,6.39,68,9,372.514288604
GEMS216,2018_Mar_23_1056,Elaine,SF,spatial_frequency,8,6,8,53-2;1-6;23-34;3-33,0,SpatialFrequencyBias,0-0,0,17,training,4-22,2-15;11-24;0-22;6-24;3-23;4-21,2-15,3.59,51,-17,379.572263098
GEMS216,2018_Mar_23_1056,Elaine,SF,spatial_frequency,8,6,8,53-2;1-6;23-34;3-33,0,SpatialFrequencyBias,0-0,0,18,training,2-15,2-20;5-8;1-12;0-10;0-22;7-9,0-22,2.87,68,17,387.696636597
GEMS216,2018_Mar_23_1056,Elaine,SF,spatial_frequency,8,6,8,53-2;1-6;23-34;3-33,0,SpatialFrequencyBias,0-0,0,19,training,0-22,4-22;1-16;6-24;0-22;4-26;7-24,0-22,2.08,68,0,393.612812082
GEMS216,2018_Mar_23_1056,Elaine,SF,spatial_frequency,8,6,8,53-2;1-6;23-34;3-33,0,SpatialFrequencyBias,0-0,0,20,training,0-22,3-16;7-19;5-22;1-28;3-28;1-25,5-22,2.96,68,0,400.979547377
GEMS216,2018_Mar_23_1056,Elaine,SF,spatial_frequency,8,6,8,53-2;1-6;23-34;3-33,0,SpatialFrequencyBias,0-0,0,21,training,5-22,8-20;8-28;1-21;4-15;1-25;5-25,1-21,13.96,66,-2,418.609489523
GEMS216,2018_Mar_23_1056,Elaine,SF,spatial_frequency,8,6,8,53-2;1-6;23-34;3-33,0,SpatialFrequencyBias,0-0,0,22,training,1-21,3-26;5-23;0-26;2-17;6-21;8-20,5-23,6.4,70,4,428.193779132
GEMS216,2018_Mar_23_1056,Elaine,SF,spatial_frequency,8,6,8,53-2;1-6;23-34;3-33,0,SpatialFrequencyBias,0-0,0,23,training,5-23,8-21;7-19;6-18;8-27;12-21;1-29,8-21,5.96,66,-4,437.01704428
GEMS216,2018_Mar_23_1056,Elaine,SF,spatial_frequency,8,6,8,53-2;1-6;23-34;3-33,0,SpatialFrequencyBias,0-0,0,24,training,8-21,8-16;6-17;4-17;7-18;9-21;6-26,6-26,2.65,76,10,442.532322289
GEMS216,2018_Mar_23_1056,Elaine,SF,spatial_frequency,8,6,8,53-2;1-6;23-34;3-33,0,SpatialFrequencyBias,0-0,0,25,training,6-26,8-20;4-22;13-26;4-31;2-32;12-25,13-26,2.99,76,0,448.86242557
GEMS216,2018_Mar_23_1056,Elaine,SF,spatial_frequency,8,6,8,53-2;1-6;23-34;3-33,0,SpatialFrequencyBias,0-0,0,26,training,13-26,14-23;9-26;8-31;18-31;12-32;8-32,12-32,1.37,87,11,453.148699561
GEMS216,2018_Mar_23_1056,Elaine,SF,spatial_frequency,8,6,8,53-2;1-6;23-34;3-33,0,SpatialFrequencyBias,0-0,0,27,training,12-32,6-37;16-33;11-36;8-37;13-30;6-36,8-37,0.59,93,6,456.47547292
GEMS216,2018_Mar_23_1056,Elaine,SF,spatial_frequency,8,6,8,53-2;1-6;23-34;3-33,0,SpatialFrequencyBias,0-0,0,28,training,8-37,7-34;1-36;10-43;9-33;10-35;15-40,9-33,0.22,88,-5,460.243574625
GEMS216,2018_Mar_23_1056,Elaine,SF,spatial_frequency,8,6,8,53-2;1-6;23-34;3-33,0,SpatialFrequencyBias,0-0,0,29,training,9-33,14-34;15-31;13-31;2-35;5-34;10-40,15-31,0.9,85,-3,464.58529502
GEMS216,2018_Mar_23_1056,Elaine,SF,spatial_frequency,8,6,8,53-2;1-6;23-34;3-33,1,SimpleHill,53-2,53,0,selected,53-2,53-2;48-4;50-0;49-4;52-8;55-1,49-4,4.44,57,4,490.684052805
GEMS216,2018_Mar_23_1056,Elaine,SF,spatial_frequency,8,6,8,53-2;1-6;23-34;3-33,1,SimpleHill,53-2,53,1,selected,49-4,44-5;47-2;44-4;55-2;53-9;44-8,44-4,2.14,56,-1,496.381528684
GEMS216,2018_Mar_23_1056,Elaine,SF,spatial_frequency,8,6,8,53-2;1-6;23-34;3-33,1,SimpleHill,53-2,53,2,selected,44-4,41-2;47-7;43-11;43-9;48-5;45-9,48-5,2.18,59,3,502.215865187
GEMS216,2018_Mar_23_1056,Elaine,SF,spatial_frequency,8,6,8,53-2;1-6;23-34;3-33,1,SimpleHill,53-2,53,3,selected,48-5,48-8;54-7;42-5;52-0;44-0;52-2,52-0,3.29,49,-10,509.071524965
GEMS216,2018_Mar_23_1056,Elaine,SF,spatial_frequency,8,6,8,53-2;1-6;23-34;3-33,1,SimpleHill,53-2,53,4,selected,52-0,51-7;46-5;58-0;52-6;54-3;52-5,54-3,0.56,55,6,513.198234818
GEMS216,2018_Mar_23_1056,Elaine,SF,spatial_frequency,8,6,8,53-2;1-6;23-34;3-33,1,SimpleHill,53-2,53,5,selected,54-3,59-5;47-0;52-0;50-5;49-7;48-5,48-5,0.77,59,4,517.555845879
GEMS216,2018_Mar_23_1056,Elaine,SF,spatial_frequency,8,6,8,53-2;1-6;23-34;3-33,1,SimpleHill,53-2,53,6,selected,48-5,51-8;55-6;43-0;46-1;46-3;48-12,51-8,0.99,64,5,522.120712602
GEMS216,2018_Mar_23_1056,Elaine,SF,spatial_frequency,8,6,8,53-2;1-6;23-34;3-33,1,SimpleHill,53-2,53,7,selected,51-8,58-10;54-11;57-10;47-9;55-14;48-6,54-11,0.38,69,5,526.065784428
GEMS216,2018_Mar_23_1056,Elaine,SF,spatial_frequency,8,6,8,53-2;1-6;23-34;3-33,1,SimpleHill,53-2,53,8,selected,54-11,55-9;59-10;61-14;59-13;50-7;60-10,59-10,0.3,66,-3,529.937490437
GEMS216,2018_Mar_23_1056,Elaine,SF,spatial_frequency,8,6,8,53-2;1-6;23-34;3-33,1,SimpleHill,53-2,53,9,selected,59-10,60-14;65-8;53-12;61-11;62-3;56-14,53-12,0.27,70,4,533.78772721
GEMS216,2018_Mar_23_1056,Elaine,SF,spatial_frequency,8,6,8,53-2;1-6;23-34;3-33,1,SimpleHill,53-2,53,10,selected,53-12,58-7;56-7;60-15;47-12;51-11;58-17,47-12,1.02,70,0,538.38619083
GEMS216,2018_Mar_23_1056,Elaine,SF,spatial_frequency,8,6,8,53-2;1-6;23-34;3-33,1,SimpleHill,53-2,53,11,selected,47-12,50-14;46-6;46-19;47-18;49-11;44-5,49-11,0.37,69,-1,542.327529418
GEMS216,2018_Mar_23_1056,Elaine,SF,spatial_frequency,8,6,8,53-2;1-6;23-34;3-33,1,SimpleHill,53-2,53,12,selected,49-11,46-8;46-6;49-13;52-7;46-14;45-14,46-8,0.55,64,-5,546.462971392
GEMS216,2018_Mar_23_1056,Elaine,SF,spatial_frequency,8,6,8,53-2;1-6;23-34;3-33,1,SimpleHill,53-2,53,13,selected,46-8,41-12;52-13;45-3;43-7;46-1;40-5,52-13,1.2,72,8,551.211067322
GEMS216,2018_Mar_23_1056,Elaine,SF,spatial_frequency,8,6,8,53-2;1-6;23-34;3-33,1,SimpleHill,53-2,53,14,selected,52-13,48-10;56-14;51-9;56-18;50-20;59-11,51-9,0.72,66,-6,555.484736074
GEMS216,2018_Mar_23_1056,Elaine,SF,spatial_frequency,8,6,8,53-2;1-6;23-34;3-33,1,SimpleHill,53-2,53,15,selected,51-9,48-14;48-7;51-7;48-11;55-14;51-17,55-14,1.5,73,7,560.57057141
GEMS216,2018_Mar_23_1056,Elaine,SF,spatial_frequency,8,6,8,53-2;1-6;23-34;3-33,1,SimpleHill,53-2,53,16,selected,55-14,53-19;53-20;52-19;54-12;52-8;57-9,57-9,1.7,65,-8,565.850314235
GEMS216,2018_Mar_23_1056,Elaine,SF,spatial_frequency,8,6,8,53-2;1-6;23-34;3-33,1,SimpleHill,53-2,53,17,selected,57-9,60-7;62-13;63-11;57-2;64-11;53-9,57-2,0.99,52,-13,570.409849499
GEMS216,2018_Mar_23_1056,Elaine,SF,spatial_frequency,8,6,8,53-2;1-6;23-34;3-33,1,SimpleHill,53-2,53,18,selected,57-2,61-7;56-6;50-4;61-6;64-4;59-3,56-6,0.62,60,8,574.611719287
GEMS216,2018_Mar_23_1056,Elaine,SF,spatial_frequency,8,6,8,53-2;1-6;23-34;3-33,1,SimpleHill,53-2,53,19,selected,56-6,58-6;56-12;59-11;54-6;57-11;53-6,59-11,1.12,67,7,579.316606905
GEMS216,2018_Mar_23_1056,Elaine,SF,spatial_frequency,8,6,8,53-2;1-6;23-34;3-33,1,SimpleHill,53-2,53,20,selected,59-11,64-12;52-10;55-5;56-9;52-11;62-7,52-10,0.99,67,0,583.871217868
GEMS216,2018_Mar_23_1056,Elaine,SF,spatial_frequency,8,6,8,53-2;1-6;23-34;3-33,1,SimpleHill,53-2,53,21,selected,52-10,52-12;60-10;55-11;53-4;56-11;53-11,53-4,2.37,57,-10,589.788858736
GEMS216,2018_Mar_23_1056,Elaine,SF,spatial_frequency,8,6,8,53-2;1-6;23-34;3-33,1,SimpleHill,53-2,53,22,selected,53-4,53-9;54-10;51-7;51-1;59-4;57-5,51-7,0.26,63,6,593.619990794
GEMS216,2018_Mar_23_1056,Elaine,SF,spatial_frequency,8,6,8,53-2;1-6;23-34;3-33,1,SimpleHill,53-2,53,23,selected,51-7,49-11;58-7;48-9;55-12;47-2;53-1,58-7,0.2,61,-2,597.402527386
GEMS216,2018_Mar_23_1056,Elaine,SF,spatial_frequency,8,6,8,53-2;1-6;23-34;3-33,1,SimpleHill,53-2,53,24,selected,58-7,60-9;60-2;50-7;55-6;56-3;59-8,60-9,0.34,64,3,601.287528112
GEMS216,2018_Mar_23_1056,Elaine,SF,spatial_frequency,8,6,8,53-2;1-6;23-34;3-33,1,SimpleHill,53-2,53,25,selected,60-9,58-11;64-9;65-8;65-15;55-12;63-13,63-13,0.27,69,5,605.14073022
GEMS216,2018_Mar_23_1056,Elaine,SF,spatial_frequency,8,6,8,53-2;1-6;23-34;3-33,1,SimpleHill,53-2,53,26,selected,63-13,64-8;63-7;68-10;62-17;62-6;61-12,61-12,0.27,68,-1,608.975704667
GEMS216,2018_Mar_23_1056,Elaine,SF,spatial_frequency,8,6,8,53-2;1-6;23-34;3-33,1,SimpleHill,53-2,53,27,selected,61-12,57-18;57-10;57-6;63-17;63-13;60-10,63-13,0.27,69,1,612.804363371
GEMS216,2018_Mar_23_1056,Elaine,SF,spatial_frequency,8,6,8,53-2;1-6;23-34;3-33,1,SimpleHill,53-2,53,28,selected,63-13,65-16;68-18;64-7;67-18;62-20;68-15,64-7,0.72,59,-10,617.091268904
GEMS216,2018_Mar_23_1056,Elaine,SF,spatial_frequency,8,6,8,53-2;1-6;23-34;3-33,1,SimpleHill,53-2,53,29,selected,64-7,63-13;62-2;65-1;67-5;58-3;61-0,61-0,0.26,47,-12,620.909568458
GEMS216,2018_Mar_23_1056,Elaine,SF,spatial_frequency,8,6,8,53-2;1-6;23-34;3-33,1,SimpleHill,53-2,53,30,selected,61-0,60-2;64-3;65-4;60-7;60-0;62-1,60-0,0.25,48,1,624.727538637
GEMS216,2018_Mar_23_1056,Elaine,SF,spatial_frequency,8,6,8,53-2;1-6;23-34;3-33,1,SimpleHill,53-2,53,31,selected,60-0,61-5;63-1;61-0;62-6;62-1;57-1,61-5,0.33,57,9,628.613435622
GEMS216,2018_Mar_23_1056,Elaine,SF,spatial_frequency,8,6,8,53-2;1-6;23-34;3-33,1,SimpleHill,53-2,53,32,selected,61-5,65-6;61-10;57-0;59-7;63-0;55-8,61-10,0.3,65,8,632.49369642
GEMS216,2018_Mar_23_1056,Elaine,SF,spatial_frequency,8,6,8,53-2;1-6;23-34;3-33,1,SimpleHill,53-2,53,33,selected,61-10,56-11;57-5;66-16;65-11;66-4;65-15,57-5,2.17,58,-7,638.242671645
GEMS216,2018_Mar_23_1056,Elaine,SF,spatial_frequency,8,6,8,53-2;1-6;23-34;3-33,1,SimpleHill,53-2,53,34,selected,57-5,59-0;57-0;53-1;61-11;55-12;60-7,55-12,2.03,70,12,643.835632237
GEMS216,2018_Mar_23_1056,Elaine,SF,spatial_frequency,8,6,8,53-2;1-6;23-34;3-33,1,SimpleHill,53-2,53,35,selected,55-12,52-7;61-7;57-6;53-17;56-12;49-11,53-17,2.46,78,8,649.86793148
GEMS216,2018_Mar_23_1056,Elaine,SF,spatial_frequency,8,6,8,53-2;1-6;23-34;3-33,1,SimpleHill,53-2,53,36,selected,53-17,49-12;47-12;60-17;52-14;53-13;59-16,60-17,3.38,76,-2,656.823693431
GEMS216,2018_Mar_23_1056,Elaine,SF,spatial_frequency,8,6,8,53-2;1-6;23-34;3-33,1,SimpleHill,53-2,53,37,selected,60-17,56-11;55-12;57-23;61-13;53-19;67-15,53-19,2.05,80,4,662.442519089
GEMS216,2018_Mar_23_1056,Elaine,SF,spatial_frequency,8,6,8,53-2;1-6;23-34;3-33,1,SimpleHill,53-2,53,38,selected,53-19,56-25;48-19;49-14;59-18;57-23;50-15,57-23,2.87,84,4,668.896545819
GEMS216,2018_Mar_23_1056,Elaine,SF,spatial_frequency,8,6,8,53-2;1-6;23-34;3-33,1,SimpleHill,53-2,53,39,selected,57-23,57-24;57-16;60-19;61-19;51-18;59-20,60-19,2.57,78,-6,675.040760565
GEMS216,2018_Mar_23_1056,Elaine,SF,spatial_frequency,8,6,8,53-2;1-6;23-34;3-33,2,SimpleHill,1-6,13,0,selected,1-6,0-10;6-6;7-7;0-6;4-0;6-11,7-7,3.54,26,13,695.263544229
GEMS216,2018_Mar_23_1056,Elaine,SF,spatial_frequency,8,6,8,53-2;1-6;23-34;3-33,2,SimpleHill,1-6,13,1,selected,7-7,4-3;0-9;3-5;3-12;8-10;5-6,3-5,1.27,15,-11,700.093128961
GEMS216,2018_Mar_23_1056,Elaine,SF,spatial_frequency,8,6,8,53-2;1-6;23-34;3-33,2,SimpleHill,1-6,13,2,selected,3-5,5-8;0-5;4-9;5-4;9-5;6-4,0-5,1.09,9,-6,704.736493862
GEMS216,2018_Mar_23_1056,Elaine,SF,spatial_frequency,8,6,8,53-2;1-6;23-34;3-33,2,SimpleHill,1-6,13,3,selected,0-5,0-5;2-11;3-12;6-4;7-6;2-3,7-6,0.5,24,15,708.810056535
GEMS216,2018_Mar_23_1056,Elaine,SF,spatial_frequency,8,6,8,53-2;1-6;23-34;3-33,2,SimpleHill,1-6,13,4,selected,7-6,14-3;9-10;15-6;5-5;3-8;11-10,14-3,2.34,29,5,714.719499196
GEMS216,2018_Mar_23_1056,Elaine,SF,spatial_frequency,8,6,8,53-2;1-6;23-34;3-33,2,SimpleHill,1-6,13,5,selected,14-3,10-4;20-4;21-0;9-6;14-3;11-6,9-6,6.48,27,-2,724.768648743
GEMS216,2018_Mar_23_1056,Elaine,SF,spatial_frequency,8,6,8,53-2;1-6;23-34;3-33,2,SimpleHill,1-6,13,6,selected,9-6,10-13;9-5;10-3;4-10;15-2;2-7,9-5,2.31,25,-2,730.634006039
GEMS216,2018_Mar_23_1056,Elaine,SF,spatial_frequency,8,6,8,53-2;1-6;23-34;3-33,2,SimpleHill,1-6,13,7,selected,9-5,8-2;3-0;9-3;16-5;3-8;3-6,16-5,1.53,36,11,735.741890619
GEMS216,2018_Mar_23_1056,Elaine,SF,spatial_frequency,8,6,8,53-2;1-6;23-34;3-33,2,SimpleHill,1-6,13,8,selected,16-5,18-7;18-9;18-0;21-6;10-10;18-6,18-6,2.51,40,4,741.818779372
GEMS216,2018_Mar_23_1056,Elaine,SF,spatial_frequency,8,6,8,53-2;1-6;23-34;3-33,2,SimpleHill,1-6,13,9,selected,18-6,23-1;12-3;17-7;18-2;12-8;14-8,18-2,3.5,33,-7,748.900024903
GEMS216,2018_Mar_23_1056,Elaine,SF,spatial_frequency,8,6,8,53-2;1-6;23-34;3-33,2,SimpleHill,1-6,13,10,selected,18-2,23-8;24-1;17-6;14-6;13-8;26-2,26-2,1.19,42,9,753.66407808
GEMS216,2018_Mar_23_1056,Elaine,SF,spatial_frequency,8,6,8,53-2;1-6;23-34;3-33,2,SimpleHill,1-6,13,11,selected,26-2,22-4;33-3;26-4;30-3;21-5;27-6,21-5,3.11,42,0,760.348122242
GEMS216,2018_Mar_23_1056,Elaine,SF,spatial_frequency,8,6,8,53-2;1-6;23-34;3-33,2,SimpleHill,1-6,13,12,selected,21-5,28-3;25-1;19-6;27-5;22-7;21-9,28-3,2.45,46,4,766.367161658
GEMS216,2018_Mar_23_1056,Elaine,SF,spatial_frequency,8,6,8,53-2;1-6;23-34;3-33,2,SimpleHill,1-6,13,13,selected,28-3,21-6;32-6;28-0;23-5;29-1;33-1,29-1,1.47,43,-3,771.40618028
GEMS216,2018_Mar_23_1056,Elaine,SF,spatial_frequency,8,6,8,53-2;1-6;23-34;3-33,2,SimpleHill,1-6,13,14,selected,29-1,30-6;23-2;34-0;34-6;25-3;28-3,34-0,1.14,44,1,776.11103845
GEMS216,2018_Mar_23_1056,Elaine,SF,spatial_frequency,8,6,8,53-2;1-6;23-34;3-33,2,SimpleHill,1-6,13,15,selected,34-0,38-5;31-3;40-3;31-6;32-5;29-6,32-5,1.38,53,9,781.051010564
GEMS216,2018_Mar_23_1056,Elaine,SF,spatial_frequency,8,6,8,53-2;1-6;23-34;3-33,2,SimpleHill,1-6,13,16,selected,32-5,26-3;32-10;35-6;37-1;31-1;27-1,37-1,0.95,48,-5,785.564793742
GEMS216,2018_Mar_23_1056,Elaine,SF,spatial_frequency,8,6,8,53-2;1-6;23-34;3-33,2,SimpleHill,1-6,13,17,selected,37-1,39-7;41-4;43-5;33-3;42-0;33-4,39-7,1.2,60,12,790.352329216
GEMS216,2018_Mar_23_1056,Elaine,SF,spatial_frequency,8,6,8,53-2;1-6;23-34;3-33,2,SimpleHill,1-6,13,18,selected,39-7,39-10;33-6;34-1;44-2;39-9;45-2,45-2,3.2,53,-7,797.122357237
GEMS216,2018_Mar_23_1056,Elaine,SF,spatial_frequency,8,6,8,53-2;1-6;23-34;3-33,2,SimpleHill,1-6,13,19,selected,45-2,43-4;52-1;50-1;44-4;44-0;45-4,44-0,1.75,49,-4,802.45135812
GEMS216,2018_Mar_23_1056,Elaine,SF,spatial_frequency,8,6,8,53-2;1-6;23-34;3-33,2,SimpleHill,1-6,13,20,selected,44-0,46-3;41-3;41-6;47-2;46-7;40-5,47-2,2.33,53,4,808.350626325
GEMS216,2018_Mar_23_1056,Elaine,SF,spatial_frequency,8,6,8,53-2;1-6;23-34;3-33,2,SimpleHill,1-6,13,21,selected,47-2,45-2;40-0;50-4;45-7;49-7;52-4,50-4,1.93,57,4,813.861768101
GEMS216,2018_Mar_23_1056,Elaine,SF,spatial_frequency,8,6,8,53-2;1-6;23-34;3-33,2,SimpleHill,1-6,13,22,selected,50-4,44-5;53-5;45-10;45-7;51-10;55-7,53-5,2.25,59,2,819.677768111
GEMS216,2018_Mar_23_1056,Elaine,SF,spatial_frequency,8,6,8,53-2;1-6;23-34;3-33,2,SimpleHill,1-6,13,23,selected,53-5,50-12;51-12;53-6;50-9;58-5;53-10,58-5,1.54,58,-1,824.799105214
GEMS216,2018_Mar_23_1056,Elaine,SF,spatial_frequency,8,6,8,53-2;1-6;23-34;3-33,2,SimpleHill,1-6,13,24,selected,58-5,53-3;64-4;55-6;53-5;57-4;63-6,55-6,1.5,60,2,829.881922398
GEMS216,2018_Mar_23_1056,Elaine,SF,spatial_frequency,8,6,8,53-2;1-6;23-34;3-33,2,SimpleHill,1-6,13,25,selected,55-6,56-10;55-11;55-13;53-13;59-3;49-1,49-1,1.23,51,-9,834.693093815
GEMS216,2018_Mar_23_1056,Elaine,SF,spatial_frequency,8,6,8,53-2;1-6;23-34;3-33,2,SimpleHill,1-6,13,26,selected,49-1,52-4;54-2;51-4;44-1;46-3;41-1,54-2,1.1,53,2,839.372075716
GEMS216,2018_Mar_23_1056,Elaine,SF,spatial_frequency,8,6,8,53-2;1-6;23-34;3-33,2,SimpleHill,1-6,13,27,selected,54-2,59-5;57-0;60-0;56-3;61-3;53-6,56-3,1.03,55,2,843.981031645
GEMS216,2018_Mar_23_1056,Elaine,SF,spatial_frequency,8,6,8,53-2;1-6;23-34;3-33,2,SimpleHill,1-6,13,28,selected,56-3,52-9;53-7;56-10;51-6;59-9;56-11,51-6,1.23,61,6,848.77979468
GEMS216,2018_Mar_23_1056,Elaine,SF,spatial_frequency,8,6,8,53-2;1-6;23-34;3-33,2,SimpleHill,1-6,13,29,selected,51-6,46-12;55-7;44-6;56-12;49-1;47-2,55-7,2.97,62,1,855.331621159
GEMS216,2018_Mar_23_1056,Elaine,SF,spatial_frequency,8,6,8,53-2;1-6;23-34;3-33,2,SimpleHill,1-6,13,30,selected,55-7,61-11;53-2;59-5;62-7;61-10;49-4,61-10,1.06,65,3,859.970073282
GEMS216,2018_Mar_23_1056,Elaine,SF,spatial_frequency,8,6,8,53-2;1-6;23-34;3-33,2,SimpleHill,1-6,13,31,selected,61-10,59-13;61-11;56-14;55-8;65-14;53-10,56-14,0.86,73,8,864.402803305
GEMS216,2018_Mar_23_1056,Elaine,SF,spatial_frequency,8,6,8,53-2;1-6;23-34;3-33,2,SimpleHill,1-6,13,32,selected,56-14,54-8;63-12;54-13;54-11;59-20;57-10,54-8,0.9,64,-9,868.874016436
GEMS216,2018_Mar_23_1056,Elaine,SF,spatial_frequency,8,6,8,53-2;1-6;23-34;3-33,2,SimpleHill,1-6,13,33,selected,54-8,51-15;50-5;56-8;52-11;50-2;59-12,50-2,1.86,53,-11,874.303622678
GEMS216,2018_Mar_23_1056,Elaine,SF,spatial_frequency,8,6,8,53-2;1-6;23-34;3-33,2,SimpleHill,1-6,13,34,selected,50-2,50-10;54-7;57-1;53-3;46-6;52-4,57-1,0.48,51,-2,878.34302285
GEMS216,2018_Mar_23_1056,Elaine,SF,spatial_frequency,8,6,8,53-2;1-6;23-34;3-33,2,SimpleHill,1-6,13,35,selected,57-1,64-2;59-2;61-2;51-1;52-1;55-3,59-2,1.36,52,1,883.285830662
GEMS216,2018_Mar_23_1056,Elaine,SF,spatial_frequency,8,6,8,53-2;1-6;23-34;3-33,2,SimpleHill,1-6,13,36,selected,59-2,53-7;62-7;61-8;59-6;53-6;63-4,59-6,3.3,59,7,890.14866243
GEMS216,2018_Mar_23_1056,Elaine,SF,spatial_frequency,8,6,8,53-2;1-6;23-34;3-33,2,SimpleHill,1-6,13,37,selected,59-6,56-4;60-2;62-3;56-8;59-6;62-12,59-6,2.19,59,0,895.892597159
GEMS216,2018_Mar_23_1056,Elaine,SF,spatial_frequency,8,6,8,53-2;1-6;23-34;3-33,2,SimpleHill,1-6,13,38,selected,59-6,64-5;56-6;63-3;52-9;57-5;52-7,57-5,0.25,58,-1,899.720607356
GEMS216,2018_Mar_23_1056,Elaine,SF,spatial_frequency,8,6,8,53-2;1-6;23-34;3-33,2,SimpleHill,1-6,13,39,selected,57-5,63-2;58-10;54-4;63-8;62-8;52-5,52-5,0.43,59,1,903.718303651
GEMS216,2018_Mar_23_1056,Elaine,SF,spatial_frequency,8,6,8,53-2;1-6;23-34;3-33,3,SimpleHill,23-34,80,0,selected,23-34,22-27;21-39;17-32;27-36;23-34;29-39,23-34,8.19,80,0,929.444293681
GEMS216,2018_Mar_23_1056,Elaine,SF,spatial_frequency,8,6,8,53-2;1-6;23-34;3-33,3,SimpleHill,23-34,80,1,selected,23-34,19-31;25-39;26-35;30-33;21-40;26-39,25-39,2.09,85,5,935.107528317
GEMS216,2018_Mar_23_1056,Elaine,SF,spatial_frequency,8,6,8,53-2;1-6;23-34;3-33,3,SimpleHill,23-34,80,2,selected,25-39,30-34;29-33;26-33;25-31;28-34;22-43,22-43,1.17,83,-2,939.841316438
GEMS216,2018_Mar_23_1056,Elaine,SF,spatial_frequency,8,6,8,53-2;1-6;23-34;3-33,3,SimpleHill,23-34,80,3,selected,22-43,22-43;19-37;29-44;26-38;16-44;16-41,26-38,1.47,85,2,944.875545838
GEMS216,2018_Mar_23_1056,Elaine,SF,spatial_frequency,8,6,8,53-2;1-6;23-34;3-33,3,SimpleHill,23-34,80,4,selected,26-38,20-34;27-44;19-40;27-31;30-34;23-39,27-44,0.54,88,3,948.993849105
GEMS216,2018_Mar_23_1056,Elaine,SF,spatial_frequency,8,6,8,53-2;1-6;23-34;3-33,3,SimpleHill,23-34,80,5,selected,27-44,31-45;24-41;23-50;26-43;24-43;29-50,24-43,0.35,85,-3,952.887172874
GEMS216,2018_Mar_23_1056,Elaine,SF,spatial_frequency,8,6,8,53-2;1-6;23-34;3-33,3,SimpleHill,23-34,80,6,selected,24-43,19-40;29-38;17-45;25-45;28-45;28-46,29-38,1.53,88,3,957.991505388
GEMS216,2018_Mar_23_1056,Elaine,SF,spatial_frequency,8,6,8,53-2;1-6;23-34;3-33,3,SimpleHill,23-34,80,7,selected,29-38,27-32;31-40;26-33;33-44;25-35;35-34,26-33,0.45,82,-6,962.027735686
GEMS216,2018_Mar_23_1056,Elaine,SF,spatial_frequency,8,6,8,53-2;1-6;23-34;3-33,3,SimpleHill,23-34,80,8,selected,26-33,24-30;33-33;30-28;22-35;21-34;20-30,20-30,0.25,74,-8,965.823385822
GEMS216,2018_Mar_23_1056,Elaine,SF,spatial_frequency,8,6,8,53-2;1-6;23-34;3-33,3,SimpleHill,23-34,80,9,selected,20-30,24-29;26-30;25-34;17-24;26-31;14-28,24-29,1.76,77,3,971.159427137
GEMS216,2018_Mar_23_1056,Elaine,SF,spatial_frequency,8,6,8,53-2;1-6;23-34;3-33,3,SimpleHill,23-34,80,10,selected,24-29,28-24;24-27;29-25;27-26;21-33;21-35,24-27,0.82,75,-2,975.554762046
GEMS216,2018_Mar_23_1056,Elaine,SF,spatial_frequency,8,6,8,53-2;1-6;23-34;3-33,3,SimpleHill,23-34,80,11,selected,24-27,27-22;27-25;22-32;21-28;25-25;28-31,25-25,0.31,75,0,979.440483621
GEMS216,2018_Mar_23_1056,Elaine,SF,spatial_frequency,8,6,8,53-2;1-6;23-34;3-33,3,SimpleHill,23-34,80,12,selected,25-25,19-30;22-19;24-28;29-19;26-18;18-23,24-28,0.44,76,1,983.454572808
GEMS216,2018_Mar_23_1056,Elaine,SF,spatial_frequency,8,6,8,53-2;1-6;23-34;3-33,3,SimpleHill,23-34,80,13,selected,24-28,27-29;24-27;29-24;24-35;16-28;31-31,29-24,0.26,77,1,987.277001554
GEMS216,2018_Mar_23_1056,Elaine,SF,spatial_frequency,8,6,8,53-2;1-6;23-34;3-33,3,SimpleHill,23-34,80,14,selected,29-24,27-22;33-28;34-26;34-21;29-25;34-28,34-26,0.38,83,6,991.22782736
GEMS216,2018_Mar_23_1056,Elaine,SF,spatial_frequency,8,6,8,53-2;1-6;23-34;3-33,3,SimpleHill,23-34,80,15,selected,34-26,32-29;33-27;38-27;35-19;38-21;29-20,38-27,0.45,86,3,995.244778813
GEMS216,2018_Mar_23_1056,Elaine,SF,spatial_frequency,8,6,8,53-2;1-6;23-34;3-33,3,SimpleHill,23-34,80,16,selected,38-27,36-28;38-28;32-23;42-28;42-29;34-32,32-23,0.24,78,-8,999.067923285
GEMS216,2018_Mar_23_1056,Elaine,SF,spatial_frequency,8,6,8,53-2;1-6;23-34;3-33,3,SimpleHill,23-34,80,17,selected,32-23,38-21;33-17;32-15;28-24;30-17;36-19,36-19,0.27,76,-2,1002.92368357
GEMS216,2018_Mar_23_1056,Elaine,SF,spatial_frequency,8,6,8,53-2;1-6;23-34;3-33,3,SimpleHill,23-34,80,18,selected,36-19,42-18;38-23;43-21;33-18;42-17;31-21,42-17,0.89,76,0,1007.37910591
GEMS216,2018_Mar_23_1056,Elaine,SF,spatial_frequency,8,6,8,53-2;1-6;23-34;3-33,3,SimpleHill,23-34,80,19,selected,42-17,40-12;36-18;49-15;46-16;48-12;42-15,46-16,0.74,76,0,1011.70790097
GEMS216,2018_Mar_23_1056,Elaine,SF,spatial_frequency,8,6,8,53-2;1-6;23-34;3-33,3,SimpleHill,23-34,80,20,selected,46-16,50-12;51-13;44-19;43-9;46-13;51-20,50-12,0.47,71,-5,1015.74013267
GEMS216,2018_Mar_23_1056,Elaine,SF,spatial_frequency,8,6,8,53-2;1-6;23-34;3-33,3,SimpleHill,23-34,80,21,selected,50-12,53-8;55-8;46-7;46-9;47-17;45-14,55-8,0.57,64,-7,1019.88854319
GEMS216,2018_Mar_23_1056,Elaine,SF,spatial_frequency,8,6,8,53-2;1-6;23-34;3-33,3,SimpleHill,23-34,80,22,selected,55-8,61-10;54-9;49-11;53-7;59-11;54-3,53-7,0.71,62,-2,1024.17171484
GEMS216,2018_Mar_23_1056,Elaine,SF,spatial_frequency,8,6,8,53-2;1-6;23-34;3-33,3,SimpleHill,23-34,80,23,selected,53-7,48-3;59-6;49-10;46-10;52-4;46-9,49-10,0.8,67,5,1028.53965433
GEMS216,2018_Mar_23_1056,Elaine,SF,spatial_frequency,8,6,8,53-2;1-6;23-34;3-33,3,SimpleHill,23-34,80,24,selected,49-10,51-9;54-6;48-7;53-15;50-9;46-16,48-7,0.28,62,-5,1032.40464256
GEMS216,2018_Mar_23_1056,Elaine,SF,spatial_frequency,8,6,8,53-2;1-6;23-34;3-33,3,SimpleHill,23-34,80,25,selected,48-7,50-14;50-2;49-4;44-5;53-12;45-9,53-12,0.54,70,8,1036.50557665
GEMS216,2018_Mar_23_1056,Elaine,SF,spatial_frequency,8,6,8,53-2;1-6;23-34;3-33,3,SimpleHill,23-34,80,26,selected,53-12,54-13;49-18;50-9;48-9;59-10;54-11,54-13,0.42,72,2,1040.47730961
GEMS216,2018_Mar_23_1056,Elaine,SF,spatial_frequency,8,6,8,53-2;1-6;23-34;3-33,3,SimpleHill,23-34,80,27,selected,54-13,51-7;48-11;52-10;56-12;59-19;59-18,59-19,0.27,79,7,1044.31971212
GEMS216,2018_Mar_23_1056,Elaine,SF,spatial_frequency,8,6,8,53-2;1-6;23-34;3-33,3,SimpleHill,23-34,80,28,selected,59-19,63-23;60-19;63-25;57-18;64-23;59-14,63-23,1.11,82,3,1049.00548574
GEMS216,2018_Mar_23_1056,Elaine,SF,spatial_frequency,8,6,8,53-2;1-6;23-34;3-33,3,SimpleHill,23-34,80,29,selected,63-23,68-18;58-27;67-18;57-28;67-25;60-17,67-25,0.43,81,-1,1052.99855446
GEMS216,2018_Mar_23_1056,Elaine,SF,spatial_frequency,8,6,8,53-2;1-6;23-34;3-33,3,SimpleHill,23-34,80,30,selected,67-25,65-23;70-23;59-25;69-19;70-20;64-18,65-23,1.12,80,-1,1057.68197477
GEMS216,2018_Mar_23_1056,Elaine,SF,spatial_frequency,8,6,8,53-2;1-6;23-34;3-33,3,SimpleHill,23-34,80,31,selected,65-23,62-28;63-29;69-23;65-25;69-25;65-20,65-20,1.36,77,-3,1062.60693006
GEMS216,2018_Mar_23_1056,Elaine,SF,spatial_frequency,8,6,8,53-2;1-6;23-34;3-33,3,SimpleHill,23-34,80,32,selected,65-20,62-13;69-24;65-13;63-27;66-15;62-14,69-24,1.43,79,2,1067.6159285
GEMS216,2018_Mar_23_1056,Elaine,SF,spatial_frequency,8,6,8,53-2;1-6;23-34;3-33,3,SimpleHill,23-34,80,33,selected,69-24,70-28;70-20;64-18;64-28;70-26;64-27,64-28,2.09,86,7,1073.27764686
GEMS216,2018_Mar_23_1056,Elaine,SF,spatial_frequency,8,6,8,53-2;1-6;23-34;3-33,3,SimpleHill,23-34,80,34,selected,64-28,61-35;61-33;57-30;63-29;57-29;62-32,61-33,1.65,91,5,1078.50241894
GEMS216,2018_Mar_23_1056,Elaine,SF,spatial_frequency,8,6,8,53-2;1-6;23-34;3-33,3,SimpleHill,23-34,80,35,selected,61-33,56-35;56-30;57-36;62-35;68-31;60-40,56-30,1.39,91,0,1083.46240259
GEMS216,2018_Mar_23_1056,Elaine,SF,spatial_frequency,8,6,8,53-2;1-6;23-34;3-33,3,SimpleHill,23-34,80,36,selected,56-30,58-28;56-37;59-25;53-27;58-33;53-36,53-27,0.42,89,-2,1087.46669151
GEMS216,2018_Mar_23_1056,Elaine,SF,spatial_frequency,8,6,8,53-2;1-6;23-34;3-33,3,SimpleHill,23-34,80,37,selected,53-27,52-34;50-27;60-24;58-32;58-24;59-25,50-27,0.2,89,0,1091.23229393
GEMS216,2018_Mar_23_1056,Elaine,SF,spatial_frequency,8,6,8,53-2;1-6;23-34;3-33,3,SimpleHill,23-34,80,38,selected,50-27,50-32;53-27;43-30;45-23;51-21;50-35,43-30,0.25,91,2,1095.05513463
GEMS216,2018_Mar_23_1056,Elaine,SF,spatial_frequency,8,6,8,53-2;1-6;23-34;3-33,3,SimpleHill,23-34,80,39,selected,43-30,38-29;44-30;47-33;44-27;45-37;45-35,45-37,1.89,96,5,1100.50923178
GEMS216,2018_Mar_23_1056,Elaine,SF,spatial_frequency,8,6,8,53-2;1-6;23-34;3-33,4,SimpleHill,3-33,50,0,selected,3-33,4-38;5-35;1-31;1-39;5-27;6-33,1-39,1.65,49,-1,1132.95013249
GEMS216,2018_Mar_23_1056,Elaine,SF,spatial_frequency,8,6,8,53-2;1-6;23-34;3-33,4,SimpleHill,3-33,50,1,selected,1-39,5-39;2-40;6-43;7-41;6-33;4-33,7-41,0.35,61,12,1136.88127069
GEMS216,2018_Mar_23_1056,Elaine,SF,spatial_frequency,8,6,8,53-2;1-6;23-34;3-33,4,SimpleHill,3-33,50,2,selected,7-41,3-47;12-38;11-35;2-36;2-40;13-45,2-36,0.58,50,-11,1141.02263021
GEMS216,2018_Mar_23_1056,Elaine,SF,spatial_frequency,8,6,8,53-2;1-6;23-34;3-33,4,SimpleHill,3-33,50,3,selected,2-36,1-42;0-33;8-40;3-32;8-41;6-31,1-42,0.35,50,0,1144.93703847
GEMS216,2018_Mar_23_1056,Elaine,SF,spatial_frequency,8,6,8,53-2;1-6;23-34;3-33,4,SimpleHill,3-33,50,4,selected,1-42,8-41;0-46;1-46;4-45;6-42;3-48,0-46,0.46,49,-1,1148.96510161
GEMS216,2018_Mar_23_1056,Elaine,SF,spatial_frequency,8,6,8,53-2;1-6;23-34;3-33,4,SimpleHill,3-33,50,5,selected,0-46,5-42;5-47;1-41;0-46;0-40;4-43,1-41,1.0,50,1,1153.5124167
GEMS216,2018_Mar_23_1056,Elaine,SF,spatial_frequency,8,6,8,53-2;1-6;23-34;3-33,4,SimpleHill,3-33,50,6,selected,1-41,1-41;5-39;8-39;2-46;5-45;1-39,5-45,0.47,59,9,1157.55479374
GEMS216,2018_Mar_23_1056,Elaine,SF,spatial_frequency,8,6,8,53-2;1-6;23-34;3-33,4,SimpleHill,3-33,50,7,selected,5-45,6-47;0-41;12-47;3-50;6-50;11-46,11-46,1.36,69,10,1162.49435133
GEMS216,2018_Mar_23_1056,Elaine,SF,spatial_frequency,8,6,8,53-2;1-6;23-34;3-33,4,SimpleHill,3-33,50,8,selected,11-46,11-48;11-52;15-47;13-53;12-42;4-44,11-52,0.52,69,0,1166.57899528
GEMS216,2018_Mar_23_1056,Elaine,SF,spatial_frequency,8,6,8,53-2;1-6;23-34;3-33,4,SimpleHill,3-33,50,9,selected,11-52,13-53;7-46;17-52;13-48;14-58;9-56,13-48,0.6,72,3,1170.75647147
GEMS216,2018_Mar_23_1056,Elaine,SF,spatial_frequency,8,6,8,53-2;1-6;23-34;3-33,4,SimpleHill,3-33,50,10,selected,13-48,7-47;16-55;7-44;16-41;14-46;13-46,7-47,0.49,62,-10,1174.82169829
GEMS216,2018_Mar_23_1056,Elaine,SF,spatial_frequency,8,6,8,53-2;1-6;23-34;3-33,4,SimpleHill,3-33,50,11,selected,7-47,4-40;6-50;11-53;4-43;12-42;10-50,12-42,0.77,69,7,1179.15740383
GEMS216,2018_Mar_23_1056,Elaine,SF,spatial_frequency,8,6,8,53-2;1-6;23-34;3-33,4,SimpleHill,3-33,50,12,selected,12-42,16-47;16-40;9-49;7-37;17-46;11-41,16-40,0.31,74,5,1183.05430271
GEMS216,2018_Mar_23_1056,Elaine,SF,spatial_frequency,8,6,8,53-2;1-6;23-34;3-33,4,SimpleHill,3-33,50,13,selected,16-40,13-36;15-39;13-47;14-47;17-45;17-35,13-47,0.9,72,-2,1187.52503251
GEMS216,2018_Mar_23_1056,Elaine,SF,spatial_frequency,8,6,8,53-2;1-6;23-34;3-33,4,SimpleHill,3-33,50,14,selected,13-47,18-43;15-52;14-46;12-44;19-43;13-53,13-53,0.87,72,0,1191.96897537
GEMS216,2018_Mar_23_1056,Elaine,SF,spatial_frequency,8,6,8,53-2;1-6;23-34;3-33,4,SimpleHill,3-33,50,15,selected,13-53,11-46;9-52;13-50;20-53;14-59;21-53,14-59,1.81,72,0,1197.3471546
GEMS216,2018_Mar_23_1056,Elaine,SF,spatial_frequency,8,6,8,53-2;1-6;23-34;3-33,4,SimpleHill,3-33,50,16,selected,14-59,9-57;18-54;17-54;13-65;17-62;13-66,13-65,1.51,68,-4,1202.4140856
GEMS216,2018_Mar_23_1056,Elaine,SF,spatial_frequency,8,6,8,53-2;1-6;23-34;3-33,4,SimpleHill,3-33,50,17,selected,13-65,18-69;10-59;12-69;18-67;7-64;11-62,10-59,1.16,66,-2,1207.13730395
GEMS216,2018_Mar_23_1056,Elaine,SF,spatial_frequency,8,6,8,53-2;1-6;23-34;3-33,4,SimpleHill,3-33,50,18,selected,10-59,14-63;13-53;6-62;5-53;5-57;6-59,6-59,0.22,59,-7,1210.91507021
GEMS216,2018_Mar_23_1056,Elaine,SF,spatial_frequency,8,6,8,53-2;1-6;23-34;3-33,4,SimpleHill,3-33,50,19,selected,6-59,1-55;3-61;7-58;7-61;13-62;10-58,1-55,2.56,51,-8,1217.05442755
GEMS216,2018_Mar_23_1056,Elaine,SF,spatial_frequency,8,6,8,53-2;1-6;23-34;3-33,4,SimpleHill,3-33,50,20,selected,1-55,3-57;5-56;2-58;1-55;4-52;5-57,2-58,0.24,52,1,1220.86691327
GEMS216,2018_Mar_23_1056,Elaine,SF,spatial_frequency,8,6,8,53-2;1-6;23-34;3-33,4,SimpleHill,3-33,50,21,selected,2-58,4-62;3-63;6-64;5-59;1-60;4-65,1-60,0.24,49,-3,1224.66343437
GEMS216,2018_Mar_23_1056,Elaine,SF,spatial_frequency,8,6,8,53-2;1-6;23-34;3-33,4,SimpleHill,3-33,50,22,selected,1-60,0-62;7-57;2-61;2-56;3-54;4-56,7-57,2.29,62,13,1230.52119588
GEMS216,2018_Mar_23_1056,Elaine,SF,spatial_frequency,8,6,8,53-2;1-6;23-34;3-33,4,SimpleHill,3-33,50,23,selected,7-57,13-62;7-58;8-62;10-53;9-52;10-61,7-58,1.11,61,-1,1235.21795859
GEMS216,2018_Mar_23_1056,Elaine,SF,spatial_frequency,8,6,8,53-2;1-6;23-34;3-33,4,SimpleHill,3-33,50,24,selected,7-58,11-63;6-57;5-56;13-60;2-52;14-59,2-52,1.05,53,-8,1239.83908251
GEMS216,2018_Mar_23_1056,Elaine,SF,spatial_frequency,8,6,8,53-2;1-6;23-34;3-33,4,SimpleHill,3-33,50,25,selected,2-52,9-54;8-54;8-50;3-51;5-49;5-56,3-51,0.56,55,2,1243.97133092
GEMS216,2018_Mar_23_1056,Elaine,SF,spatial_frequency,8,6,8,53-2;1-6;23-34;3-33,4,SimpleHill,3-33,50,26,selected,3-51,2-52;0-46;4-55;3-45;0-57;3-46,4-55,1.07,57,2,1248.60699216
GEMS216,2018_Mar_23_1056,Elaine,SF,spatial_frequency,8,6,8,53-2;1-6;23-34;3-33,4,SimpleHill,3-33,50,27,selected,4-55,7-54;4-62;6-48;5-56;4-61;1-60,7-54,1.54,62,5,1253.73639943
GEMS216,2018_Mar_23_1056,Elaine,SF,spatial_frequency,8,6,8,53-2;1-6;23-34;3-33,4,SimpleHill,3-33,50,28,selected,7-54,2-56;10-51;8-57;7-48;13-59;6-54,10-51,1.08,67,5,1258.39204084
GEMS216,2018_Mar_23_1056,Elaine,SF,spatial_frequency,8,6,8,53-2;1-6;23-34;3-33,4,SimpleHill,3-33,50,29,selected,10-51,2-51;12-44;17-51;9-52;16-49;3-51,17-51,1.33,78,11,1263.28445683
GEMS216,2018_Mar_23_1056,Elaine,SF,spatial_frequency,8,6,8,53-2;1-6;23-34;3-33,4,SimpleHill,3-33,50,30,selected,17-51,14-51;13-49;18-47;24-48;15-44;23-56,13-49,1.37,72,-6,1268.22160252
GEMS216,2018_Mar_23_1056,Elaine,SF,spatial_frequency,8,6,8,53-2;1-6;23-34;3-33,4,SimpleHill,3-33,50,31,selected,13-49,9-55;14-56;19-48;8-54;10-42;13-42,10-42,1.02,66,-6,1272.80683
GEMS216,2018_Mar_23_1056,Elaine,SF,spatial_frequency,8,6,8,53-2;1-6;23-34;3-33,4,SimpleHill,3-33,50,32,selected,10-42,17-43;7-47;15-36;12-43;8-48;11-43,17-43,0.9,77,11,1277.27940161
GEMS216,2018_Mar_23_1056,Elaine,SF,spatial_frequency,8,6,8,53-2;1-6;23-34;3-33,4,SimpleHill,3-33,50,33,selected,17-43,14-41;23-47;16-40;18-50;17-39;11-45,18-50,0.89,79,2,1281.74090954
GEMS216,2018_Mar_23_1056,Elaine,SF,spatial_frequency,8,6,8,53-2;1-6;23-34;3-33,4,SimpleHill,3-33,50,34,selected,18-50,13-49;22-51;17-55;16-46;18-52;15-49,15-49,1.13,75,-4,1286.42409137
GEMS216,2018_Mar_23_1056,Elaine,SF,spatial_frequency,8,6,8,53-2;1-6;23-34;3-33,4,SimpleHill,3-33,50,35,selected,15-49,18-52;17-42;23-49;16-46;12-56;10-46,18-52,0.25,79,4,1290.23968358
GEMS216,2018_Mar_23_1056,Elaine,SF,spatial_frequency,8,6,8,53-2;1-6;23-34;3-33,4,SimpleHill,3-33,50,36,selected,18-52,18-59;20-54;18-58;15-54;12-51;17-59,20-54,0.3,81,2,1294.10010601
GEMS216,2018_Mar_23_1056,Elaine,SF,spatial_frequency,8,6,8,53-2;1-6;23-34;3-33,4,SimpleHill,3-33,50,37,selected,20-54,15-54;14-50;20-58;17-51;19-49;21-60,20-58,0.7,80,-1,1298.38244831
GEMS216,2018_Mar_23_1056,Elaine,SF,spatial_frequency,8,6,8,53-2;1-6;23-34;3-33,4,SimpleHill,3-33,50,38,selected,20-58,19-57;13-59;17-55;22-53;20-59;16-59,13-59,0.45,71,-9,1302.40507564
GEMS216,2018_Mar_23_1056,Elaine,SF,spatial_frequency,8,6,8,53-2;1-6;23-34;3-33,4,SimpleHill,3-33,50,39,selected,13-59,13-62;9-54;7-64;7-59;7-55;15-52,7-55,0.24,62,-9,1306.20805173
