subj_id,date,computer,experimenter,version,generation,inherit_from,sight_radius,n_gabors,block_ix,landscape_name,starting_pos,starting_score,trial,pos,stims,selected,rt,score,delta,exp_time,landscape_ix
GEMS127,2018_Oct_04_1437,Elaine,VC,1.2,2,GEMS113,10,6,1,SimpleHill,0-0,0,0,0-0,9-2;0-7;1-0;3-5;8-3;2-5,3-5,4.36,15,15,76.1395346678,1
GEMS127,2018_Oct_04_1437,Elaine,VC,1.2,2,GEMS113,10,6,1,SimpleHill,0-0,0,1,3-5,4-5;0-13;2-8;3-2;1-3;11-5,3-2,4.07,9,-6,84.3049943168,1
GEMS127,2018_Oct_04_1437,Elaine,VC,1.2,2,GEMS113,10,6,1,SimpleHill,0-0,0,2,3-2,7-3;2-8;7-7;9-4;11-4;11-7,7-7,6.32,26,17,94.697974867,1
GEMS127,2018_Oct_04_1437,Elaine,VC,1.2,2,GEMS113,10,6,1,SimpleHill,0-0,0,3,7-7,12-6;7-7;0-13;13-13;16-10;11-7,16-10,2.25,44,18,101.027082438,1
GEMS127,2018_Oct_04_1437,Elaine,VC,1.2,2,GEMS113,10,6,1,SimpleHill,0-0,0,4,16-10,17-13;11-6;16-10;23-10;9-13;13-5,17-13,3.98,50,6,109.081984488,1
GEMS127,2018_Oct_04_1437,Elaine,VC,1.2,2,GEMS113,10,6,1,SimpleHill,0-0,0,5,17-13,12-5;24-11;22-14;23-5;20-8;8-16,24-11,1.72,56,6,114.875047814,1
GEMS127,2018_Oct_04_1437,Elaine,VC,1.2,2,GEMS113,10,6,1,SimpleHill,0-0,0,6,24-11,22-4;26-6;26-2;32-8;19-15;31-13,26-6,2.29,49,-7,121.239436367,1
GEMS127,2018_Oct_04_1437,Elaine,VC,1.2,2,GEMS113,10,6,1,SimpleHill,0-0,0,7,26-6,32-12;23-2;29-9;33-4;32-7;23-10,23-10,2.24,53,4,127.547289756,1
GEMS127,2018_Oct_04_1437,Elaine,VC,1.2,2,GEMS113,10,6,1,SimpleHill,0-0,0,8,23-10,23-4;29-6;26-6;27-4;14-8;16-8,27-4,3.33,47,-6,134.955922859,1
GEMS127,2018_Oct_04_1437,Elaine,VC,1.2,2,GEMS113,10,6,1,SimpleHill,0-0,0,9,27-4,26-8;27-3;25-4;33-0;26-7;32-2,26-8,2.13,53,6,141.147370547,1
GEMS127,2018_Oct_04_1437,Elaine,VC,1.2,2,GEMS113,10,6,1,SimpleHill,0-0,0,10,26-8,29-11;22-5;19-2;24-1;19-6;30-5,24-1,1.71,38,-15,146.935681451,1
GEMS127,2018_Oct_04_1437,Elaine,VC,1.2,2,GEMS113,10,6,1,SimpleHill,0-0,0,11,24-1,16-6;20-3;22-8;24-2;16-4;32-5,22-8,1.75,49,11,152.748279419,1
GEMS127,2018_Oct_04_1437,Elaine,VC,1.2,2,GEMS113,10,6,1,SimpleHill,0-0,0,12,22-8,24-15;19-10;28-0;15-1;20-5;25-2,24-15,1.66,61,12,158.495213168,1
GEMS127,2018_Oct_04_1437,Elaine,VC,1.2,2,GEMS113,10,6,1,SimpleHill,0-0,0,13,24-15,21-10;22-19;22-17;26-13;29-22;22-23,29-22,3.77,75,14,166.330321364,1
GEMS127,2018_Oct_04_1437,Elaine,VC,1.2,2,GEMS113,10,6,1,SimpleHill,0-0,0,14,29-22,29-22;33-16;33-22;23-20;20-22;29-21,29-22,2.57,75,0,172.954597673,1
GEMS127,2018_Oct_04_1437,Elaine,VC,1.2,2,GEMS113,10,6,1,SimpleHill,0-0,0,15,29-22,23-15;30-23;35-30;25-18;35-19;31-31,31-31,2.45,85,10,179.475715976,1
GEMS127,2018_Oct_04_1437,Elaine,VC,1.2,2,GEMS113,10,6,1,SimpleHill,0-0,0,16,31-31,29-38;30-40;34-32;36-34;22-35;31-30,29-38,1.49,88,3,185.037578611,1
GEMS127,2018_Oct_04_1437,Elaine,VC,1.2,2,GEMS113,10,6,1,SimpleHill,0-0,0,17,29-38,32-36;22-43;22-38;23-35;31-43;36-44,22-43,1.79,83,-5,190.907400265,1
GEMS127,2018_Oct_04_1437,Elaine,VC,1.2,2,GEMS113,10,6,1,SimpleHill,0-0,0,18,22-43,13-45;22-52;28-42;15-36;31-45;19-39,22-52,2.32,84,1,197.299354276,1
GEMS127,2018_Oct_04_1437,Elaine,VC,1.2,2,GEMS113,10,6,1,SimpleHill,0-0,0,19,22-52,19-44;14-55;18-46;28-56;20-48;27-46,27-46,2.87,89,5,204.235546596,1
GEMS127,2018_Oct_04_1437,Elaine,VC,1.2,2,GEMS113,10,6,1,SimpleHill,0-0,0,20,27-46,36-47;22-47;33-38;22-44;21-50;21-42,22-47,2.69,84,-5,211.01320128,1
GEMS127,2018_Oct_04_1437,Elaine,VC,1.2,2,GEMS113,10,6,1,SimpleHill,0-0,0,21,22-47,13-45;21-45;15-45;25-41;21-47;21-55,21-47,1.08,83,-1,216.162416844,1
GEMS127,2018_Oct_04_1437,Elaine,VC,1.2,2,GEMS113,10,6,1,SimpleHill,0-0,0,22,21-47,20-51;17-46;13-46;28-50;23-44;18-56,23-44,2.25,84,1,222.471937597,1
GEMS127,2018_Oct_04_1437,Elaine,VC,1.2,2,GEMS113,10,6,1,SimpleHill,0-0,0,23,23-44,18-42;14-48;28-50;19-36;18-45;23-52,14-48,1.11,74,-10,227.668802221,1
GEMS127,2018_Oct_04_1437,Elaine,VC,1.2,2,GEMS113,10,6,1,SimpleHill,0-0,0,24,14-48,6-45;19-52;20-52;10-50;15-42;12-46,10-50,1.28,68,-6,233.017939938,1
GEMS127,2018_Oct_04_1437,Elaine,VC,1.2,2,GEMS113,10,6,1,SimpleHill,0-0,0,25,10-50,10-56;14-45;14-53;10-45;8-59;1-49,14-45,1.25,73,5,238.340886997,1
GEMS127,2018_Oct_04_1437,Elaine,VC,1.2,2,GEMS113,10,6,1,SimpleHill,0-0,0,26,14-45,13-42;18-52;22-39;21-49;17-51;14-39,22-39,1.49,81,8,243.898650839,1
GEMS127,2018_Oct_04_1437,Elaine,VC,1.2,2,GEMS113,10,6,1,SimpleHill,0-0,0,27,22-39,20-36;25-43;30-40;16-34;28-40;30-41,16-34,1.09,71,-10,249.072495647,1
GEMS127,2018_Oct_04_1437,Elaine,VC,1.2,2,GEMS113,10,6,1,SimpleHill,0-0,0,28,16-34,19-35;16-33;22-42;10-28;12-37;17-39,16-33,0.62,71,0,253.780984933,1
GEMS127,2018_Oct_04_1437,Elaine,VC,1.2,2,GEMS113,10,6,1,SimpleHill,0-0,0,29,16-33,25-32;16-23;12-41;13-30;17-40;18-40,12-41,2.4,69,-2,260.253312404,1
GEMS127,2018_Oct_04_1437,Elaine,VC,1.2,2,GEMS113,10,6,1,SimpleHill,0-0,0,30,12-41,6-43;11-33;7-43;11-42;18-34;16-39,11-42,0.77,68,-1,265.094936735,1
GEMS127,2018_Oct_04_1437,Elaine,VC,1.2,2,GEMS113,10,6,1,SimpleHill,0-0,0,31,11-42,15-34;2-44;6-37;7-34;10-48;4-47,6-37,1.02,57,-11,270.190709553,1
GEMS127,2018_Oct_04_1437,Elaine,VC,1.2,2,GEMS113,10,6,1,SimpleHill,0-0,0,32,6-37,3-41;1-32;10-44;0-43;3-45;4-29,3-41,2.5,54,-3,276.785464956,1
GEMS127,2018_Oct_04_1437,Elaine,VC,1.2,2,GEMS113,10,6,1,SimpleHill,0-0,0,33,3-41,4-32;12-40;2-38;1-46;0-43;3-38,2-38,0.69,51,-3,281.537708409,1
GEMS127,2018_Oct_04_1437,Elaine,VC,1.2,2,GEMS113,10,6,1,SimpleHill,0-0,0,34,2-38,5-37;9-36;5-30;7-46;7-40;0-41,5-30,1.12,51,0,286.717709887,1
GEMS127,2018_Oct_04_1437,Elaine,VC,1.2,2,GEMS113,10,6,1,SimpleHill,0-0,0,35,5-30,9-22;2-21;14-34;2-35;9-36;6-32,2-21,1.51,37,-14,292.307077803,1
GEMS127,2018_Oct_04_1437,Elaine,VC,1.2,2,GEMS113,10,6,1,SimpleHill,0-0,0,36,2-21,2-21;2-12;2-17;7-19;4-21;1-24,2-17,1.65,32,-5,298.030535602,1
GEMS127,2018_Oct_04_1437,Elaine,VC,1.2,2,GEMS113,10,6,1,SimpleHill,0-0,0,37,2-17,2-19;6-18;1-16;7-16;7-12;3-20,3-20,1.81,37,5,303.925963424,1
GEMS127,2018_Oct_04_1437,Elaine,VC,1.2,2,GEMS113,10,6,1,SimpleHill,0-0,0,38,3-20,10-20;5-27;5-22;5-28;7-14;8-27,7-14,2.21,37,0,310.2093665,1
GEMS127,2018_Oct_04_1437,Elaine,VC,1.2,2,GEMS113,10,6,1,SimpleHill,0-0,0,39,7-14,10-11;11-8;6-19;0-13;8-5;0-11,6-19,1.38,42,5,315.660091847,1
GEMS127,2018_Oct_04_1437,Elaine,VC,1.2,2,GEMS113,10,6,2,SimpleHill,0-0,0,0,0-0,7-5;8-3;1-0;3-8;7-3;0-3,3-8,1.53,20,20,329.532154473,1
GEMS127,2018_Oct_04_1437,Elaine,VC,1.2,2,GEMS113,10,6,2,SimpleHill,0-0,0,1,3-8,11-14;8-13;4-7;5-7;4-16;8-9,5-7,1.61,22,2,335.221897185,1
GEMS127,2018_Oct_04_1437,Elaine,VC,1.2,2,GEMS113,10,6,2,SimpleHill,0-0,0,2,5-7,0-0;8-9;12-11;5-12;12-13;11-3,11-3,3.13,25,3,342.427470262,1
GEMS127,2018_Oct_04_1437,Elaine,VC,1.2,2,GEMS113,10,6,2,SimpleHill,0-0,0,3,11-3,3-7;3-1;5-2;4-4;7-4;16-5,3-1,1.47,7,-18,347.973093614,1
GEMS127,2018_Oct_04_1437,Elaine,VC,1.2,2,GEMS113,10,6,2,SimpleHill,0-0,0,4,3-1,9-5;11-2;12-0;0-8;2-10;1-5,12-0,1.79,21,14,353.823898535,1
GEMS127,2018_Oct_04_1437,Elaine,VC,1.2,2,GEMS113,10,6,2,SimpleHill,0-0,0,5,12-0,12-7;13-4;18-1;14-6;10-2;13-2,18-1,1.63,31,10,359.52543988,1
GEMS127,2018_Oct_04_1437,Elaine,VC,1.2,2,GEMS113,10,6,2,SimpleHill,0-0,0,6,18-1,15-10;21-6;19-5;26-2;21-10;18-0,18-0,1.94,29,-2,365.550985551,1
GEMS127,2018_Oct_04_1437,Elaine,VC,1.2,2,GEMS113,10,6,2,SimpleHill,0-0,0,7,18-0,18-6;17-8;16-8;10-4;12-7;11-7,18-6,2.35,40,11,371.966540347,1
GEMS127,2018_Oct_04_1437,Elaine,VC,1.2,2,GEMS113,10,6,2,SimpleHill,0-0,0,8,18-6,18-13;22-13;26-8;23-0;21-9;19-6,23-0,1.1,35,-5,377.14861859,1
GEMS127,2018_Oct_04_1437,Elaine,VC,1.2,2,GEMS113,10,6,2,SimpleHill,0-0,0,9,23-0,24-5;32-4;29-0;22-2;15-6;14-0,29-0,1.29,41,6,382.52399786,1
GEMS127,2018_Oct_04_1437,Elaine,VC,1.2,2,GEMS113,10,6,2,SimpleHill,0-0,0,10,29-0,26-0;23-2;24-3;37-1;28-3;22-2,22-2,1.66,38,-3,388.260060926,1
GEMS127,2018_Oct_04_1437,Elaine,VC,1.2,2,GEMS113,10,6,2,SimpleHill,0-0,0,11,22-2,16-1;28-10;15-0;26-8;31-5;20-8,15-0,0.56,25,-13,392.930631982,1
GEMS127,2018_Oct_04_1437,Elaine,VC,1.2,2,GEMS113,10,6,2,SimpleHill,0-0,0,12,15-0,14-3;8-0;9-8;19-8;7-5;17-7,7-5,0.99,22,-3,397.993461138,1
GEMS127,2018_Oct_04_1437,Elaine,VC,1.2,2,GEMS113,10,6,2,SimpleHill,0-0,0,13,7-5,14-11;4-7;5-12;11-1;9-6;7-5,9-6,1.61,27,5,403.671944575,1
GEMS127,2018_Oct_04_1437,Elaine,VC,1.2,2,GEMS113,10,6,2,SimpleHill,0-0,0,14,9-6,13-3;14-2;4-0;10-7;12-11;7-1,14-2,1.46,28,1,409.209275274,1
GEMS127,2018_Oct_04_1437,Elaine,VC,1.2,2,GEMS113,10,6,2,SimpleHill,0-0,0,15,14-2,11-2;21-8;14-10;10-8;18-11;15-7,10-8,0.9,32,4,414.193716508,1
GEMS127,2018_Oct_04_1437,Elaine,VC,1.2,2,GEMS113,10,6,2,SimpleHill,0-0,0,16,10-8,6-17;3-13;6-5;4-12;14-17;17-7,17-7,1.66,41,9,419.929229654,1
GEMS127,2018_Oct_04_1437,Elaine,VC,1.2,2,GEMS113,10,6,2,SimpleHill,0-0,0,17,17-7,18-16;18-12;19-0;18-9;12-15;15-10,19-0,0.81,30,-11,424.812060852,1
GEMS127,2018_Oct_04_1437,Elaine,VC,1.2,2,GEMS113,10,6,2,SimpleHill,0-0,0,18,19-0,18-4;26-5;28-0;28-2;17-9;19-9,28-2,0.65,44,14,429.53819431,1
GEMS127,2018_Oct_04_1437,Elaine,VC,1.2,2,GEMS113,10,6,2,SimpleHill,0-0,0,19,28-2,29-11;21-8;23-6;35-5;27-5;32-1,23-6,1.36,46,2,434.978022727,1
GEMS127,2018_Oct_04_1437,Elaine,VC,1.2,2,GEMS113,10,6,2,SimpleHill,0-0,0,20,23-6,20-13;23-11;14-8;19-14;22-0;21-4,14-8,1.19,38,-8,440.218195309,1
GEMS127,2018_Oct_04_1437,Elaine,VC,1.2,2,GEMS113,10,6,2,SimpleHill,0-0,0,21,14-8,14-2;5-7;20-11;14-18;19-11;19-2,19-2,1.74,34,-4,446.035653571,1
GEMS127,2018_Oct_04_1437,Elaine,VC,1.2,2,GEMS113,10,6,2,SimpleHill,0-0,0,22,19-2,20-6;17-0;18-10;16-4;10-1;20-3,18-10,0.65,47,13,450.767596078,1
GEMS127,2018_Oct_04_1437,Elaine,VC,1.2,2,GEMS113,10,6,2,SimpleHill,0-0,0,23,18-10,10-16;24-9;16-19;18-2;21-6;19-11,18-2,1.73,33,-14,456.577338176,1
GEMS127,2018_Oct_04_1437,Elaine,VC,1.2,2,GEMS113,10,6,2,SimpleHill,0-0,0,24,18-2,22-2;11-7;17-11;26-2;13-8;21-5,11-7,1.31,32,-1,461.940761969,1
GEMS127,2018_Oct_04_1437,Elaine,VC,1.2,2,GEMS113,10,6,2,SimpleHill,0-0,0,25,11-7,14-14;8-5;19-8;11-0;15-4;20-6,11-0,0.66,19,-13,466.673719171,1
GEMS127,2018_Oct_04_1437,Elaine,VC,1.2,2,GEMS113,10,6,2,SimpleHill,0-0,0,26,11-0,6-8;12-7;10-8;10-3;20-2;5-3,20-2,0.71,35,16,471.439959015,1
GEMS127,2018_Oct_04_1437,Elaine,VC,1.2,2,GEMS113,10,6,2,SimpleHill,0-0,0,27,20-2,18-1;19-8;27-4;23-2;14-2;26-9,27-4,1.02,47,12,476.523007172,1
GEMS127,2018_Oct_04_1437,Elaine,VC,1.2,2,GEMS113,10,6,2,SimpleHill,0-0,0,28,27-4,22-2;34-11;29-12;29-0;25-11;35-0,29-0,0.93,41,-6,481.514812148,1
GEMS127,2018_Oct_04_1437,Elaine,VC,1.2,2,GEMS113,10,6,2,SimpleHill,0-0,0,29,29-0,20-3;22-6;27-4;33-9;26-5;37-1,27-4,0.84,47,6,486.440368414,1
GEMS127,2018_Oct_04_1437,Elaine,VC,1.2,2,GEMS113,10,6,2,SimpleHill,0-0,0,30,27-4,33-3;21-3;23-1;21-5;23-8;34-2,21-5,1.1,42,-5,491.613565674,1
GEMS127,2018_Oct_04_1437,Elaine,VC,1.2,2,GEMS113,10,6,2,SimpleHill,0-0,0,31,21-5,25-2;27-6;19-6;23-2;14-2;20-14,27-6,0.88,50,8,496.56514903,1
GEMS127,2018_Oct_04_1437,Elaine,VC,1.2,2,GEMS113,10,6,2,SimpleHill,0-0,0,32,27-6,30-0;24-8;26-1;30-14;32-13;20-7,26-1,1.48,40,-10,502.098981752,1
GEMS127,2018_Oct_04_1437,Elaine,VC,1.2,2,GEMS113,10,6,2,SimpleHill,0-0,0,33,26-1,29-4;31-4;34-1;20-7;26-7;34-6,20-7,1.06,45,5,507.222615154,1
GEMS127,2018_Oct_04_1437,Elaine,VC,1.2,2,GEMS113,10,6,2,SimpleHill,0-0,0,34,20-7,17-11;23-14;20-8;21-5;20-7;13-5,23-14,1.0,59,14,512.304950784,1
GEMS127,2018_Oct_04_1437,Elaine,VC,1.2,2,GEMS113,10,6,2,SimpleHill,0-0,0,35,23-14,17-8;15-20;22-7;30-9;19-8;22-12,15-20,2.01,57,-2,518.385386661,1
GEMS127,2018_Oct_04_1437,Elaine,VC,1.2,2,GEMS113,10,6,2,SimpleHill,0-0,0,36,15-20,6-18;11-26;10-28;16-25;20-18;17-26,11-26,1.1,58,1,523.568970622,1
GEMS127,2018_Oct_04_1437,Elaine,VC,1.2,2,GEMS113,10,6,2,SimpleHill,0-0,0,37,11-26,10-25;15-35;4-28;15-18;5-18;6-28,15-18,1.3,55,-3,528.94276159,1
GEMS127,2018_Oct_04_1437,Elaine,VC,1.2,2,GEMS113,10,6,2,SimpleHill,0-0,0,38,15-18,22-11;18-26;14-23;13-23;17-17;22-19,18-26,0.83,68,13,533.836401052,1
GEMS127,2018_Oct_04_1437,Elaine,VC,1.2,2,GEMS113,10,6,2,SimpleHill,0-0,0,39,18-26,12-19;21-18;10-21;15-17;15-26;11-30,15-26,1.74,63,-5,539.627811738,1
GEMS127,2018_Oct_04_1437,Elaine,VC,1.2,2,GEMS113,10,6,3,SimpleHill,0-0,0,0,0-0,1-8;8-5;5-4;2-3;7-1;4-9,2-3,1.2,9,9,578.32270955,1
GEMS127,2018_Oct_04_1437,Elaine,VC,1.2,2,GEMS113,10,6,3,SimpleHill,0-0,0,1,2-3,0-6;9-8;0-12;7-4;0-1;5-10,7-4,0.89,20,11,583.276881819,1
GEMS127,2018_Oct_04_1437,Elaine,VC,1.2,2,GEMS113,10,6,3,SimpleHill,0-0,0,2,7-4,12-0;8-3;4-12;9-11;13-6;8-4,9-11,0.79,35,15,588.157288312,1
GEMS127,2018_Oct_04_1437,Elaine,VC,1.2,2,GEMS113,10,6,3,SimpleHill,0-0,0,3,9-11,14-4;15-3;10-6;4-11;10-9;13-13,4-11,0.58,27,-8,592.812271153,1
GEMS127,2018_Oct_04_1437,Elaine,VC,1.2,2,GEMS113,10,6,3,SimpleHill,0-0,0,4,4-11,7-5;2-5;10-4;10-12;12-10;1-10,10-4,0.51,25,-2,597.386582529,1
GEMS127,2018_Oct_04_1437,Elaine,VC,1.2,2,GEMS113,10,6,3,SimpleHill,0-0,0,5,10-4,7-9;10-5;11-8;18-5;5-7;19-0,5-7,0.66,22,-3,602.131988153,1
GEMS127,2018_Oct_04_1437,Elaine,VC,1.2,2,GEMS113,10,6,3,SimpleHill,0-0,0,6,5-7,9-5;14-9;14-4;10-10;12-10;9-3,14-4,0.8,31,9,607.002528415,1
GEMS127,2018_Oct_04_1437,Elaine,VC,1.2,2,GEMS113,10,6,3,SimpleHill,0-0,0,7,14-4,16-8;9-9;16-3;15-3;15-6;20-6,15-3,0.64,31,0,611.715944254,1
GEMS127,2018_Oct_04_1437,Elaine,VC,1.2,2,GEMS113,10,6,3,SimpleHill,0-0,0,8,15-3,13-0;11-8;14-10;13-11;24-4;23-8,14-10,0.63,42,11,616.423772227,1
GEMS127,2018_Oct_04_1437,Elaine,VC,1.2,2,GEMS113,10,6,3,SimpleHill,0-0,0,9,14-10,23-14;22-14;20-11;19-3;22-4;15-10,19-3,0.51,36,-6,621.003901615,1
GEMS127,2018_Oct_04_1437,Elaine,VC,1.2,2,GEMS113,10,6,3,SimpleHill,0-0,0,10,19-3,10-6;26-7;15-0;22-1;18-2;11-8,15-0,0.55,25,-11,625.626116845,1
GEMS127,2018_Oct_04_1437,Elaine,VC,1.2,2,GEMS113,10,6,3,SimpleHill,0-0,0,11,15-0,8-4;16-6;22-4;21-8;20-3;12-7,8-4,0.85,22,-3,630.557804494,1
GEMS127,2018_Oct_04_1437,Elaine,VC,1.2,2,GEMS113,10,6,3,SimpleHill,0-0,0,12,8-4,6-7;12-11;16-4;8-3;0-10;4-8,8-3,1.44,20,-2,636.069645859,1
GEMS127,2018_Oct_04_1437,Elaine,VC,1.2,2,GEMS113,10,6,3,SimpleHill,0-0,0,13,8-3,6-10;16-5;2-9;5-3;8-2;6-5,5-3,1.57,15,-5,641.709048808,1
GEMS127,2018_Oct_04_1437,Elaine,VC,1.2,2,GEMS113,10,6,3,SimpleHill,0-0,0,14,5-3,5-12;12-5;3-5;2-7;7-7;6-2,3-5,1.08,15,0,646.874316721,1
GEMS127,2018_Oct_04_1437,Elaine,VC,1.2,2,GEMS113,10,6,3,SimpleHill,0-0,0,15,3-5,11-10;3-8;3-9;1-14;7-9;5-0,7-9,1.12,29,14,652.059206022,1
GEMS127,2018_Oct_04_1437,Elaine,VC,1.2,2,GEMS113,10,6,3,SimpleHill,0-0,0,16,7-9,1-3;3-12;9-5;5-14;10-2;1-9,1-9,1.11,18,-11,657.252830663,1
GEMS127,2018_Oct_04_1437,Elaine,VC,1.2,2,GEMS113,10,6,3,SimpleHill,0-0,0,17,1-9,1-17;4-5;3-13;3-8;9-15;6-7,3-8,1.04,20,2,662.366946417,1
GEMS127,2018_Oct_04_1437,Elaine,VC,1.2,2,GEMS113,10,6,3,SimpleHill,0-0,0,18,3-8,10-13;11-7;8-13;11-10;8-11;1-15,8-13,1.46,37,17,667.904846882,1
GEMS127,2018_Oct_04_1437,Elaine,VC,1.2,2,GEMS113,10,6,3,SimpleHill,0-0,0,19,8-13,17-12;0-13;2-11;14-12;11-22;14-19,2-11,1.43,23,-14,673.41288522,1
GEMS127,2018_Oct_04_1437,Elaine,VC,1.2,2,GEMS113,10,6,3,SimpleHill,0-0,0,20,2-11,11-8;6-15;2-16;1-9;1-10;8-13,1-10,2.03,19,-4,679.524042994,1
GEMS127,2018_Oct_04_1437,Elaine,VC,1.2,2,GEMS113,10,6,3,SimpleHill,0-0,0,21,1-10,9-5;8-6;9-12;5-13;5-4;1-13,5-13,1.75,32,13,685.362756399,1
GEMS127,2018_Oct_04_1437,Elaine,VC,1.2,2,GEMS113,10,6,3,SimpleHill,0-0,0,22,5-13,9-7;12-18;3-17;11-5;3-9;0-15,3-9,1.94,22,-10,691.368609301,1
GEMS127,2018_Oct_04_1437,Elaine,VC,1.2,2,GEMS113,10,6,3,SimpleHill,0-0,0,23,3-9,1-16;1-1;2-13;12-13;3-11;6-7,1-16,1.41,28,6,696.844798375,1
GEMS127,2018_Oct_04_1437,Elaine,VC,1.2,2,GEMS113,10,6,3,SimpleHill,0-0,0,24,1-16,9-19;3-12;2-17;1-15;5-24;1-22,1-15,1.2,27,-1,702.100553729,1
GEMS127,2018_Oct_04_1437,Elaine,VC,1.2,2,GEMS113,10,6,3,SimpleHill,0-0,0,25,1-15,1-19;7-9;5-7;6-8;3-22;4-9,3-22,1.1,40,13,707.274901723,1
GEMS127,2018_Oct_04_1437,Elaine,VC,1.2,2,GEMS113,10,6,3,SimpleHill,0-0,0,26,3-22,7-25;2-24;7-27;5-18;12-26;0-16,7-27,1.17,52,12,712.516279455,1
GEMS127,2018_Oct_04_1437,Elaine,VC,1.2,2,GEMS113,10,6,3,SimpleHill,0-0,0,27,7-27,2-26;5-34;13-22;8-30;15-25;2-27,5-34,1.41,54,2,718.006251098,1
GEMS127,2018_Oct_04_1437,Elaine,VC,1.2,2,GEMS113,10,6,3,SimpleHill,0-0,0,28,5-34,1-42;1-39;9-36;2-27;10-36;10-37,10-36,1.14,64,10,723.214254963,1
GEMS127,2018_Oct_04_1437,Elaine,VC,1.2,2,GEMS113,10,6,3,SimpleHill,0-0,0,29,10-36,2-40;7-29;3-34;18-35;5-44;5-35,3-34,0.92,50,-14,728.213154162,1
GEMS127,2018_Oct_04_1437,Elaine,VC,1.2,2,GEMS113,10,6,3,SimpleHill,0-0,0,30,3-34,2-35;4-28;4-30;6-26;3-31;4-43,4-43,1.93,56,6,734.211027144,1
GEMS127,2018_Oct_04_1437,Elaine,VC,1.2,2,GEMS113,10,6,3,SimpleHill,0-0,0,31,4-43,11-42;5-35;6-35;6-37;2-37;10-47,10-47,1.15,67,11,739.429253501,1
GEMS127,2018_Oct_04_1437,Elaine,VC,1.2,2,GEMS113,10,6,3,SimpleHill,0-0,0,32,10-47,8-50;9-56;12-48;10-39;10-50;4-53,9-56,1.45,65,-2,744.943732433,1
GEMS127,2018_Oct_04_1437,Elaine,VC,1.2,2,GEMS113,10,6,3,SimpleHill,0-0,0,33,9-56,2-53;9-51;2-63;18-53;14-61;12-53,14-61,1.77,71,6,750.784796922,1
GEMS127,2018_Oct_04_1437,Elaine,VC,1.2,2,GEMS113,10,6,3,SimpleHill,0-0,0,34,14-61,19-68;18-60;20-69;7-67;6-55;7-58,19-68,1.84,74,3,756.693058877,1
GEMS127,2018_Oct_04_1437,Elaine,VC,1.2,2,GEMS113,10,6,3,SimpleHill,0-0,0,35,19-68,25-65;16-60;11-66;17-61;24-67;23-66,24-67,2.33,80,6,763.088920905,1
GEMS127,2018_Oct_04_1437,Elaine,VC,1.2,2,GEMS113,10,6,3,SimpleHill,0-0,0,36,24-67,31-66;24-66;31-68;28-66;26-67;18-67,26-67,1.26,82,2,768.419817477,1
GEMS127,2018_Oct_04_1437,Elaine,VC,1.2,2,GEMS113,10,6,3,SimpleHill,0-0,0,37,26-67,22-59;31-68;23-60;28-62;22-63;23-67,22-63,1.37,80,-2,773.87015135,1
GEMS127,2018_Oct_04_1437,Elaine,VC,1.2,2,GEMS113,10,6,3,SimpleHill,0-0,0,38,22-63,25-67;13-62;28-69;26-56;26-69;31-66,28-69,1.07,83,3,779.012340229,1
GEMS127,2018_Oct_04_1437,Elaine,VC,1.2,2,GEMS113,10,6,3,SimpleHill,0-0,0,39,28-69,31-62;29-67;30-68;32-60;24-66;31-67,31-67,1.53,87,4,784.606319086,1
GEMS127,2018_Oct_04_1437,Elaine,VC,1.2,2,GEMS113,10,6,4,SimpleHill,0-0,0,0,0-0,0-2;0-4;7-4;0-5;9-0;0-10,9-0,2.04,16,16,798.1082907,1
GEMS127,2018_Oct_04_1437,Elaine,VC,1.2,2,GEMS113,10,6,4,SimpleHill,0-0,0,1,9-0,17-2;13-5;15-8;17-5;15-3;6-0,15-8,1.16,40,24,803.33398579,1
GEMS127,2018_Oct_04_1437,Elaine,VC,1.2,2,GEMS113,10,6,4,SimpleHill,0-0,0,2,15-8,20-13;17-17;11-11;7-12;20-8;18-3,11-11,1.06,39,-1,808.463336055,1
GEMS127,2018_Oct_04_1437,Elaine,VC,1.2,2,GEMS113,10,6,4,SimpleHill,0-0,0,3,11-11,3-17;4-12;19-16;15-5;13-12;12-16,4-12,0.96,28,-11,813.503664906,1
GEMS127,2018_Oct_04_1437,Elaine,VC,1.2,2,GEMS113,10,6,4,SimpleHill,0-0,0,4,4-12,3-18;5-19;8-13;0-10;10-17;0-19,0-10,2.07,18,-10,819.640966284,1
GEMS127,2018_Oct_04_1437,Elaine,VC,1.2,2,GEMS113,10,6,4,SimpleHill,0-0,0,5,0-10,5-11;1-14;1-16;9-10;1-5;6-14,1-16,0.6,28,10,824.324060343,1
GEMS127,2018_Oct_04_1437,Elaine,VC,1.2,2,GEMS113,10,6,4,SimpleHill,0-0,0,6,1-16,0-19;6-19;6-8;2-18;7-11;4-23,6-8,1.54,26,-2,829.945837045,1
GEMS127,2018_Oct_04_1437,Elaine,VC,1.2,2,GEMS113,10,6,4,SimpleHill,0-0,0,7,6-8,5-5;12-14;5-6;15-9;15-4;14-13,12-14,1.19,45,19,835.210036455,1
GEMS127,2018_Oct_04_1437,Elaine,VC,1.2,2,GEMS113,10,6,4,SimpleHill,0-0,0,8,12-14,8-7;17-11;14-6;4-19;7-20;21-16,4-19,0.97,38,-7,840.245707951,1
GEMS127,2018_Oct_04_1437,Elaine,VC,1.2,2,GEMS113,10,6,4,SimpleHill,0-0,0,9,4-19,2-21;7-26;7-16;9-18;6-19;3-20,6-19,0.85,42,4,845.165371623,1
GEMS127,2018_Oct_04_1437,Elaine,VC,1.2,2,GEMS113,10,6,4,SimpleHill,0-0,0,10,6-19,11-26;14-14;15-21;13-22;6-14;12-20,14-14,0.87,48,6,850.10021155,1
GEMS127,2018_Oct_04_1437,Elaine,VC,1.2,2,GEMS113,10,6,4,SimpleHill,0-0,0,11,14-14,20-10;19-15;18-23;16-7;14-12;5-18,19-15,1.94,56,8,856.117432879,1
GEMS127,2018_Oct_04_1437,Elaine,VC,1.2,2,GEMS113,10,6,4,SimpleHill,0-0,0,12,19-15,17-24;28-17;22-8;26-12;19-21;19-11,28-17,1.45,68,12,861.632660508,1
GEMS127,2018_Oct_04_1437,Elaine,VC,1.2,2,GEMS113,10,6,4,SimpleHill,0-0,0,13,28-17,24-9;26-23;33-16;19-17;34-25;20-15,34-25,0.99,82,14,866.690095135,1
GEMS127,2018_Oct_04_1437,Elaine,VC,1.2,2,GEMS113,10,6,4,SimpleHill,0-0,0,14,34-25,37-25;33-18;40-27;42-29;25-28;42-26,33-18,0.93,73,-9,871.692814966,1
GEMS127,2018_Oct_04_1437,Elaine,VC,1.2,2,GEMS113,10,6,4,SimpleHill,0-0,0,15,33-18,39-10;36-20;28-21;39-22;35-17;31-24,39-22,1.06,81,8,876.820994011,1
GEMS127,2018_Oct_04_1437,Elaine,VC,1.2,2,GEMS113,10,6,4,SimpleHill,0-0,0,16,39-22,46-28;34-17;46-21;42-29;34-29;46-23,42-29,1.24,89,8,882.144143688,1
GEMS127,2018_Oct_04_1437,Elaine,VC,1.2,2,GEMS113,10,6,4,SimpleHill,0-0,0,17,42-29,40-36;39-23;35-36;37-21;34-33;46-22,35-36,1.12,91,2,887.336438023,1
GEMS127,2018_Oct_04_1437,Elaine,VC,1.2,2,GEMS113,10,6,4,SimpleHill,0-0,0,18,35-36,29-33;39-43;29-40;35-31;45-36;28-29,29-40,0.92,89,-2,892.33976091,1
GEMS127,2018_Oct_04_1437,Elaine,VC,1.2,2,GEMS113,10,6,4,SimpleHill,0-0,0,19,29-40,30-43;20-40;28-35;27-34;29-44;26-32,27-34,0.59,84,-5,897.006976749,1
GEMS127,2018_Oct_04_1437,Elaine,VC,1.2,2,GEMS113,10,6,4,SimpleHill,0-0,0,20,27-34,23-38;30-30;21-35;28-32;33-42;32-37,30-30,0.87,84,0,901.951400583,1
GEMS127,2018_Oct_04_1437,Elaine,VC,1.2,2,GEMS113,10,6,4,SimpleHill,0-0,0,21,30-30,23-37;28-30;30-30;29-25;25-36;26-32,25-36,1.22,83,-1,907.251012534,1
GEMS127,2018_Oct_04_1437,Elaine,VC,1.2,2,GEMS113,10,6,4,SimpleHill,0-0,0,22,25-36,19-33;21-32;19-32;25-33;17-31;20-37,19-32,1.71,74,-9,913.02990854,1
GEMS127,2018_Oct_04_1437,Elaine,VC,1.2,2,GEMS113,10,6,4,SimpleHill,0-0,0,23,19-32,27-30;27-26;23-32;19-25;15-28;17-23,19-25,1.57,68,-6,918.677906309,1
GEMS127,2018_Oct_04_1437,Elaine,VC,1.2,2,GEMS113,10,6,4,SimpleHill,0-0,0,24,19-25,20-22;15-23;15-28;21-24;20-31;14-26,15-28,1.79,65,-3,924.556875264,1
GEMS127,2018_Oct_04_1437,Elaine,VC,1.2,2,GEMS113,10,6,4,SimpleHill,0-0,0,25,15-28,14-24;22-32;18-32;21-20;19-25;22-30,14-24,0.69,60,-5,929.316613376,1
GEMS127,2018_Oct_04_1437,Elaine,VC,1.2,2,GEMS113,10,6,4,SimpleHill,0-0,0,26,14-24,23-27;20-27;9-19;23-25;10-19;13-27,23-25,1.27,72,12,934.666776992,1
GEMS127,2018_Oct_04_1437,Elaine,VC,1.2,2,GEMS113,10,6,4,SimpleHill,0-0,0,27,23-25,18-21;20-26;19-25;22-31;19-31;21-33,22-31,1.49,77,5,940.220883771,1
GEMS127,2018_Oct_04_1437,Elaine,VC,1.2,2,GEMS113,10,6,4,SimpleHill,0-0,0,28,22-31,13-34;22-30;30-30;15-37;25-40;31-33,15-37,0.95,72,-5,945.241691743,1
GEMS127,2018_Oct_04_1437,Elaine,VC,1.2,2,GEMS113,10,6,4,SimpleHill,0-0,0,29,15-37,12-36;11-28;20-41;18-34;11-33;18-43,20-41,0.82,80,8,950.126748549,1
GEMS127,2018_Oct_04_1437,Elaine,VC,1.2,2,GEMS113,10,6,4,SimpleHill,0-0,0,30,20-41,18-44;28-40;25-41;25-38;16-49;16-46,18-44,1.54,78,-2,955.730216565,1
GEMS127,2018_Oct_04_1437,Elaine,VC,1.2,2,GEMS113,10,6,4,SimpleHill,0-0,0,31,18-44,21-39;16-41;26-48;14-36;23-44;25-41,26-48,1.51,88,10,961.315552588,1
GEMS127,2018_Oct_04_1437,Elaine,VC,1.2,2,GEMS113,10,6,4,SimpleHill,0-0,0,32,26-48,26-42;28-41;28-40;24-50;23-46;25-52,24-50,1.08,86,-2,966.458576911,1
GEMS127,2018_Oct_04_1437,Elaine,VC,1.2,2,GEMS113,10,6,4,SimpleHill,0-0,0,33,24-50,32-46;20-44;20-59;23-49;26-51;15-49,20-59,1.12,80,-6,971.651388196,1
GEMS127,2018_Oct_04_1437,Elaine,VC,1.2,2,GEMS113,10,6,4,SimpleHill,0-0,0,34,20-59,14-51;22-67;13-52;23-60;15-56;17-51,23-60,1.57,83,3,977.307314032,1
GEMS127,2018_Oct_04_1437,Elaine,VC,1.2,2,GEMS113,10,6,4,SimpleHill,0-0,0,35,23-60,23-55;19-57;23-63;23-68;20-56;16-66,16-66,1.61,71,-12,982.99907141,1
GEMS127,2018_Oct_04_1437,Elaine,VC,1.2,2,GEMS113,10,6,4,SimpleHill,0-0,0,36,16-66,13-66;15-63;17-63;25-70;22-65;11-66,25-70,1.45,79,8,988.501072472,1
GEMS127,2018_Oct_04_1437,Elaine,VC,1.2,2,GEMS113,10,6,4,SimpleHill,0-0,0,37,25-70,20-68;23-62;27-70;22-70;31-66;26-61,27-70,1.5,81,2,994.076914533,1
GEMS127,2018_Oct_04_1437,Elaine,VC,1.2,2,GEMS113,10,6,4,SimpleHill,0-0,0,38,27-70,23-70;29-65;26-65;19-65;34-67;28-67,34-67,1.24,89,8,999.391384246,1
GEMS127,2018_Oct_04_1437,Elaine,VC,1.2,2,GEMS113,10,6,4,SimpleHill,0-0,0,39,34-67,30-59;29-65;31-69;31-59;31-60;30-68,29-65,2.06,86,-3,1005.51815008,1
