subj_id,date,computer,experimenter,version,generation,inherit_from,sight_radius,n_gabors,block_ix,landscape_name,starting_pos,starting_score,trial,pos,stims,selected,rt,score,delta,exp_time,landscape_ix
GEMS115,2018_Sep_28_1455,Kramer,SF,1.2,1,,10,6,1,SimpleHill,0-0,0,0,0-0,3-8;6-3;5-1;0-9;9-2;4-9,0-9,6.44,16,16,682.535993053,1
GEMS115,2018_Sep_28_1455,Kramer,SF,1.2,1,,10,6,1,SimpleHill,0-0,0,1,0-9,1-4;8-14;1-2;0-8;3-16;2-6,8-14,9.84,38,22,696.449407491,1
GEMS115,2018_Sep_28_1455,Kramer,SF,1.2,1,,10,6,1,SimpleHill,0-0,0,2,8-14,1-11;6-22;11-15;17-11;3-14;0-17,0-17,5.52,28,-10,706.060689052,1
GEMS115,2018_Sep_28_1455,Kramer,SF,1.2,1,,10,6,1,SimpleHill,0-0,0,3,0-17,1-14;0-22;6-24;6-21;2-8;5-23,6-24,5.54,47,19,715.656719127,1
GEMS115,2018_Sep_28_1455,Kramer,SF,1.2,1,,10,6,1,SimpleHill,0-0,0,4,6-24,6-15;15-23;4-33;10-18;14-29;0-25,14-29,4.51,65,18,724.222237907,1
GEMS115,2018_Sep_28_1455,Kramer,SF,1.2,1,,10,6,1,SimpleHill,0-0,0,5,14-29,13-37;12-27;7-28;23-27;21-26;6-29,13-37,5.47,69,4,733.735329243,1
GEMS115,2018_Sep_28_1455,Kramer,SF,1.2,1,,10,6,1,SimpleHill,0-0,0,6,13-37,21-43;4-37;16-31;7-32;15-43;16-39,16-39,4.82,74,5,742.628493298,1
GEMS115,2018_Sep_28_1455,Kramer,SF,1.2,1,,10,6,1,SimpleHill,0-0,0,7,16-39,22-47;22-43;13-46;14-38;20-48;10-34,20-48,3.63,81,7,750.308236737,1
GEMS115,2018_Sep_28_1455,Kramer,SF,1.2,1,,10,6,1,SimpleHill,0-0,0,8,20-48,24-43;27-41;18-39;26-43;26-54;13-48,26-54,4.58,88,7,758.959253081,1
GEMS115,2018_Sep_28_1455,Kramer,SF,1.2,1,,10,6,1,SimpleHill,0-0,0,9,26-54,31-56;27-56;24-62;19-49;30-62;25-45,30-62,3.69,89,1,766.713385566,1
GEMS115,2018_Sep_28_1455,Kramer,SF,1.2,1,,10,6,1,SimpleHill,0-0,0,10,30-62,37-55;27-56;26-59;25-60;31-59;24-68,24-68,2.28,80,-9,773.072993439,1
GEMS115,2018_Sep_28_1455,Kramer,SF,1.2,1,,10,6,1,SimpleHill,0-0,0,11,24-68,16-64;32-67;26-65;20-66;25-66;21-62,32-67,3.28,87,7,780.432581146,1
GEMS115,2018_Sep_28_1455,Kramer,SF,1.2,1,,10,6,1,SimpleHill,0-0,0,12,32-67,25-63;27-69;26-70;32-59;26-59;39-65,26-70,3.05,80,-7,787.556175576,1
GEMS115,2018_Sep_28_1455,Kramer,SF,1.2,1,,10,6,1,SimpleHill,0-0,0,13,26-70,30-66;23-66;23-68;22-61;29-69;25-65,29-69,2.55,83,3,794.167745861,1
GEMS115,2018_Sep_28_1455,Kramer,SF,1.2,1,,10,6,1,SimpleHill,0-0,0,14,29-69,35-68;33-68;37-63;35-70;26-65;25-65,25-65,5.9,83,0,804.203513408,1
GEMS115,2018_Sep_28_1455,Kramer,SF,1.2,1,,10,6,1,SimpleHill,0-0,0,15,25-65,23-68;20-65;33-69;20-59;18-62;25-70,33-69,3.57,87,4,811.842284263,1
GEMS115,2018_Sep_28_1455,Kramer,SF,1.2,1,,10,6,1,SimpleHill,0-0,0,16,33-69,35-66;38-66;28-70;34-65;42-65;32-69,28-70,2.68,82,-5,818.584665802,1
GEMS115,2018_Sep_28_1455,Kramer,SF,1.2,1,,10,6,1,SimpleHill,0-0,0,17,28-70,33-63;34-67;32-62;28-62;21-65;26-61,21-65,2.41,78,-4,825.050633321,1
GEMS115,2018_Sep_28_1455,Kramer,SF,1.2,1,,10,6,1,SimpleHill,0-0,0,18,21-65,17-62;12-62;20-70;16-64;13-65;13-62,20-70,1.55,74,-4,830.668436142,1
GEMS115,2018_Sep_28_1455,Kramer,SF,1.2,1,,10,6,1,SimpleHill,0-0,0,19,20-70,24-66;27-66;12-67;16-69;26-68;14-65,16-69,2.97,69,-5,837.682258092,1
GEMS115,2018_Sep_28_1455,Kramer,SF,1.2,1,,10,6,1,SimpleHill,0-0,0,20,16-69,18-67;20-65;19-70;13-60;12-60;23-70,23-70,4.52,77,8,846.270352413,1
GEMS115,2018_Sep_28_1455,Kramer,SF,1.2,1,,10,6,1,SimpleHill,0-0,0,21,23-70,29-63;21-63;22-70;30-64;26-63;21-64,21-64,0.95,79,2,851.28773188,1
GEMS115,2018_Sep_28_1455,Kramer,SF,1.2,1,,10,6,1,SimpleHill,0-0,0,22,21-64,25-61;16-64;12-68;23-61;21-58;21-66,21-66,3.0,78,-1,858.377567348,1
GEMS115,2018_Sep_28_1455,Kramer,SF,1.2,1,,10,6,1,SimpleHill,0-0,0,23,21-66,12-70;17-70;13-68;22-64;17-65;26-68,13-68,0.86,66,-12,863.299297811,1
GEMS115,2018_Sep_28_1455,Kramer,SF,1.2,1,,10,6,1,SimpleHill,0-0,0,24,13-68,15-64;7-62;9-59;7-60;17-64;4-65,15-64,5.28,71,5,872.642653266,1
GEMS115,2018_Sep_28_1455,Kramer,SF,1.2,1,,10,6,1,SimpleHill,0-0,0,25,15-64,15-66;24-64;16-61;20-70;10-64;23-61,20-70,1.58,74,3,878.266391578,1
GEMS115,2018_Sep_28_1455,Kramer,SF,1.2,1,,10,6,1,SimpleHill,0-0,0,26,20-70,24-69;30-70;17-66;25-65;28-70;22-67,24-69,15.89,79,5,898.196370526,1
GEMS115,2018_Sep_28_1455,Kramer,SF,1.2,1,,10,6,1,SimpleHill,0-0,0,27,24-69,23-70;21-66;20-62;22-63;16-68;29-63,16-68,2.6,70,-9,904.858521316,1
GEMS115,2018_Sep_28_1455,Kramer,SF,1.2,1,,10,6,1,SimpleHill,0-0,0,28,16-68,10-69;10-64;6-68;20-63;16-68;21-68,10-69,5.83,60,-10,914.760948872,1
GEMS115,2018_Sep_28_1455,Kramer,SF,1.2,1,,10,6,1,SimpleHill,0-0,0,29,10-69,18-70;2-64;11-70;7-70;13-70;9-68,11-70,1.1,61,1,919.941773426,1
GEMS115,2018_Sep_28_1455,Kramer,SF,1.2,1,,10,6,1,SimpleHill,0-0,0,30,11-70,8-68;15-63;17-64;7-64;19-68;6-66,8-68,5.99,58,-3,930.022454546,1
GEMS115,2018_Sep_28_1455,Kramer,SF,1.2,1,,10,6,1,SimpleHill,0-0,0,31,8-68,0-66;5-61;11-65;10-66;12-59;10-61,10-66,1.72,62,4,935.808084213,1
GEMS115,2018_Sep_28_1455,Kramer,SF,1.2,1,,10,6,1,SimpleHill,0-0,0,32,10-66,8-69;8-61;16-65;2-67;15-59;4-67,8-61,1.67,62,0,941.562095702,1
GEMS115,2018_Sep_28_1455,Kramer,SF,1.2,1,,10,6,1,SimpleHill,0-0,0,33,8-61,2-56;7-67;7-58;2-69;13-64;3-62,13-64,3.14,68,6,948.754160973,1
GEMS115,2018_Sep_28_1455,Kramer,SF,1.2,1,,10,6,1,SimpleHill,0-0,0,34,13-64,23-64;19-58;21-66;13-56;18-63;13-68,13-56,1.64,71,3,954.454361575,1
GEMS115,2018_Sep_28_1455,Kramer,SF,1.2,1,,10,6,1,SimpleHill,0-0,0,35,13-56,20-57;10-51;10-48;13-60;15-48;5-50,10-51,1.27,67,-4,959.797416143,1
GEMS115,2018_Sep_28_1455,Kramer,SF,1.2,1,,10,6,1,SimpleHill,0-0,0,36,10-51,17-50;12-46;8-48;19-50;15-43;13-58,13-58,5.23,71,4,969.091324863,1
GEMS115,2018_Sep_28_1455,Kramer,SF,1.2,1,,10,6,1,SimpleHill,0-0,0,37,13-58,7-52;12-53;12-56;8-55;12-62;13-63,12-53,1.74,70,-1,974.922413542,1
GEMS115,2018_Sep_28_1455,Kramer,SF,1.2,1,,10,6,1,SimpleHill,0-0,0,38,12-53,8-54;17-57;15-49;10-51;5-58;19-59,5-58,1.27,58,-12,980.274694479,1
GEMS115,2018_Sep_28_1455,Kramer,SF,1.2,1,,10,6,1,SimpleHill,0-0,0,39,5-58,9-67;13-58;11-54;9-50;14-54;5-67,5-67,1.1,53,-5,985.450579993,1
GEMS115,2018_Sep_28_1455,Kramer,SF,1.2,1,,10,6,2,SimpleHill,0-0,0,0,0-0,3-6;5-4;2-5;4-0;8-1;6-5,2-5,6.68,13,13,1007.8230617,1
GEMS115,2018_Sep_28_1455,Kramer,SF,1.2,1,,10,6,2,SimpleHill,0-0,0,1,2-5,6-9;4-13;0-12;1-5;7-12;8-3,1-5,2.59,11,-2,1014.46674759,1
GEMS115,2018_Sep_28_1455,Kramer,SF,1.2,1,,10,6,2,SimpleHill,0-0,0,2,1-5,2-8;8-2;5-6;0-14;8-1;10-6,2-8,2.39,18,7,1020.9313099,1
GEMS115,2018_Sep_28_1455,Kramer,SF,1.2,1,,10,6,2,SimpleHill,0-0,0,3,2-8,9-6;4-17;8-2;7-11;9-14;6-0,9-14,5.65,40,22,1030.64621078,1
GEMS115,2018_Sep_28_1455,Kramer,SF,1.2,1,,10,6,2,SimpleHill,0-0,0,4,9-14,9-23;9-15;17-19;17-10;12-20;11-13,12-20,2.89,53,13,1037.60618311,1
GEMS115,2018_Sep_28_1455,Kramer,SF,1.2,1,,10,6,2,SimpleHill,0-0,0,5,12-20,16-21;15-16;4-21;8-19;14-12;12-28,12-28,3.55,61,8,1045.21205542,1
GEMS115,2018_Sep_28_1455,Kramer,SF,1.2,1,,10,6,2,SimpleHill,0-0,0,6,12-28,18-36;9-31;15-35;9-37;11-19;15-36,9-37,6.75,63,2,1056.01589487,1
GEMS115,2018_Sep_28_1455,Kramer,SF,1.2,1,,10,6,2,SimpleHill,0-0,0,7,9-37,17-32;13-36;7-37;9-34;9-32;15-42,15-42,2.31,74,11,1062.41607489,1
GEMS115,2018_Sep_28_1455,Kramer,SF,1.2,1,,10,6,2,SimpleHill,0-0,0,8,15-42,18-42;18-48;20-46;20-43;18-44;9-34,18-44,4.11,78,4,1070.58750951,1
GEMS115,2018_Sep_28_1455,Kramer,SF,1.2,1,,10,6,2,SimpleHill,0-0,0,9,18-44,16-35;17-47;27-46;9-41;18-53;10-42,18-53,1.64,79,1,1076.28200445,1
GEMS115,2018_Sep_28_1455,Kramer,SF,1.2,1,,10,6,2,SimpleHill,0-0,0,10,18-53,18-43;26-58;24-55;23-51;24-52;14-59,24-55,9.25,85,6,1089.6020728,1
GEMS115,2018_Sep_28_1455,Kramer,SF,1.2,1,,10,6,2,SimpleHill,0-0,0,11,24-55,32-50;26-53;18-49;22-54;28-63;20-64,20-64,2.12,78,-7,1095.80185584,1
GEMS115,2018_Sep_28_1455,Kramer,SF,1.2,1,,10,6,2,SimpleHill,0-0,0,12,20-64,25-70;17-66;24-67;14-62;11-66;19-60,25-70,0.87,79,1,1100.73323263,1
GEMS115,2018_Sep_28_1455,Kramer,SF,1.2,1,,10,6,2,SimpleHill,0-0,0,13,25-70,30-67;29-64;20-63;28-67;28-63;22-64,28-67,3.5,84,5,1108.30845504,1
GEMS115,2018_Sep_28_1455,Kramer,SF,1.2,1,,10,6,2,SimpleHill,0-0,0,14,28-67,28-60;27-68;32-62;31-70;35-66;26-62,31-70,1.56,84,0,1113.92727896,1
GEMS115,2018_Sep_28_1455,Kramer,SF,1.2,1,,10,6,2,SimpleHill,0-0,0,15,31-70,34-68;38-65;31-62;32-69;28-61;31-64,32-69,5.78,86,2,1123.77525256,1
GEMS115,2018_Sep_28_1455,Kramer,SF,1.2,1,,10,6,2,SimpleHill,0-0,0,16,32-69,37-61;23-68;35-69;40-69;27-69;35-67,35-67,13.42,89,3,1141.25161927,1
GEMS115,2018_Sep_28_1455,Kramer,SF,1.2,1,,10,6,2,SimpleHill,0-0,0,17,35-67,40-64;36-60;27-62;37-70;36-70;39-59,36-70,2.63,88,-1,1147.94092166,1
GEMS115,2018_Sep_28_1455,Kramer,SF,1.2,1,,10,6,2,SimpleHill,0-0,0,18,36-70,37-61;36-69;44-69;33-62;35-61;32-69,44-69,5.51,92,4,1157.51347897,1
GEMS115,2018_Sep_28_1455,Kramer,SF,1.2,1,,10,6,2,SimpleHill,0-0,0,19,44-69,45-70;37-69;41-61;41-67;46-64;39-68,41-67,8.68,92,0,1170.26413172,1
GEMS115,2018_Sep_28_1455,Kramer,SF,1.2,1,,10,6,2,SimpleHill,0-0,0,20,41-67,49-61;39-68;46-65;43-67;40-62;41-69,41-69,7.96,91,-1,1182.28653217,1
GEMS115,2018_Sep_28_1455,Kramer,SF,1.2,1,,10,6,2,SimpleHill,0-0,0,21,41-69,31-69;35-67;47-69;44-60;50-65;32-66,47-69,5.44,92,1,1191.80490985,1
GEMS115,2018_Sep_28_1455,Kramer,SF,1.2,1,,10,6,2,SimpleHill,0-0,0,22,47-69,47-62;40-65;50-68;45-61;42-69;43-62,40-65,9.73,93,1,1205.60027483,1
GEMS115,2018_Sep_28_1455,Kramer,SF,1.2,1,,10,6,2,SimpleHill,0-0,0,23,40-65,45-61;43-58;34-64;47-67;45-62;45-60,47-67,2.87,94,1,1212.54044427,1
GEMS115,2018_Sep_28_1455,Kramer,SF,1.2,1,,10,6,2,SimpleHill,0-0,0,24,47-67,42-63;54-65;39-61;52-65;53-59;55-67,55-67,12.98,93,-1,1229.58899378,1
GEMS115,2018_Sep_28_1455,Kramer,SF,1.2,1,,10,6,2,SimpleHill,0-0,0,25,55-67,64-66;62-63;46-69;59-69;61-60;50-65,59-69,1.1,91,-2,1234.75403614,1
GEMS115,2018_Sep_28_1455,Kramer,SF,1.2,1,,10,6,2,SimpleHill,0-0,0,26,59-69,60-65;53-62;64-67;65-61;67-70;56-66,53-62,4.15,96,5,1242.99453441,1
GEMS115,2018_Sep_28_1455,Kramer,SF,1.2,1,,10,6,2,SimpleHill,0-0,0,27,53-62,52-66;51-70;44-61;58-54;46-67;52-70,46-67,4.57,93,-3,1251.63339105,1
GEMS115,2018_Sep_28_1455,Kramer,SF,1.2,1,,10,6,2,SimpleHill,0-0,0,28,46-67,43-62;41-63;45-64;43-63;42-63;39-66,43-63,10.4,95,2,1266.09486189,1
GEMS115,2018_Sep_28_1455,Kramer,SF,1.2,1,,10,6,2,SimpleHill,0-0,0,29,43-63,38-61;37-66;51-61;44-60;38-66;43-61,51-61,2.0,97,2,1272.18562659,1
GEMS115,2018_Sep_28_1455,Kramer,SF,1.2,1,,10,6,2,SimpleHill,0-0,0,30,51-61,55-70;56-54;56-60;47-58;52-53;51-70,51-70,4.07,91,-6,1280.30158104,1
GEMS115,2018_Sep_28_1455,Kramer,SF,1.2,1,,10,6,2,SimpleHill,0-0,0,31,51-70,52-62;51-65;61-70;55-69;56-66;57-64,51-65,2.53,95,4,1286.90816171,1
GEMS115,2018_Sep_28_1455,Kramer,SF,1.2,1,,10,6,2,SimpleHill,0-0,0,32,51-65,45-61;43-66;48-69;47-62;51-68;51-56,45-61,1.91,97,2,1292.899685,1
GEMS115,2018_Sep_28_1455,Kramer,SF,1.2,1,,10,6,2,SimpleHill,0-0,0,33,45-61,37-55;53-56;44-66;42-60;39-69;42-56,42-56,2.41,98,1,1299.38726329,1
GEMS115,2018_Sep_28_1455,Kramer,SF,1.2,1,,10,6,2,SimpleHill,0-0,0,34,42-56,42-47;38-57;41-49;34-58;50-58;40-60,34-58,13.21,93,-5,1316.65626011,1
GEMS115,2018_Sep_28_1455,Kramer,SF,1.2,1,,10,6,2,SimpleHill,0-0,0,35,34-58,29-64;26-58;36-61;25-56;40-57;38-58,40-57,2.37,97,4,1323.1053776,1
GEMS115,2018_Sep_28_1455,Kramer,SF,1.2,1,,10,6,2,SimpleHill,0-0,0,36,40-57,48-56;39-60;39-59;37-65;43-66;35-60,48-56,2.35,99,2,1329.50792535,1
GEMS115,2018_Sep_28_1455,Kramer,SF,1.2,1,,10,6,2,SimpleHill,0-0,0,37,48-56,39-55;48-57;48-65;54-58;50-64;46-64,39-55,12.82,97,-2,1346.40301893,1
GEMS115,2018_Sep_28_1455,Kramer,SF,1.2,1,,10,6,2,SimpleHill,0-0,0,38,39-55,39-59;42-50;39-47;40-61;39-55;47-49,40-61,2.09,95,-2,1352.55679592,1
GEMS115,2018_Sep_28_1455,Kramer,SF,1.2,1,,10,6,2,SimpleHill,0-0,0,39,40-61,37-56;37-59;37-62;35-55;38-58;35-54,37-59,3.35,95,0,1359.9460854,1
GEMS115,2018_Sep_28_1455,Kramer,SF,1.2,1,,10,6,3,SimpleHill,0-0,0,0,0-0,1-4;6-5;5-6;7-0;2-5;6-0,6-0,14.95,11,11,1502.82911274,1
GEMS115,2018_Sep_28_1455,Kramer,SF,1.2,1,,10,6,3,SimpleHill,0-0,0,1,6-0,11-2;9-9;4-2;7-9;1-2;1-8,1-8,4.56,16,5,1511.44980825,1
GEMS115,2018_Sep_28_1455,Kramer,SF,1.2,1,,10,6,3,SimpleHill,0-0,0,2,1-8,2-15;1-16;6-14;7-7;1-4;1-5,1-16,1.81,28,12,1517.33023163,1
GEMS115,2018_Sep_28_1455,Kramer,SF,1.2,1,,10,6,3,SimpleHill,0-0,0,3,1-16,8-12;11-16;2-12;7-13;4-15;6-10,4-15,5.48,33,5,1526.88923523,1
GEMS115,2018_Sep_28_1455,Kramer,SF,1.2,1,,10,6,3,SimpleHill,0-0,0,4,4-15,6-7;1-16;11-18;10-15;5-14;1-7,11-18,2.65,49,16,1533.62125055,1
GEMS115,2018_Sep_28_1455,Kramer,SF,1.2,1,,10,6,3,SimpleHill,0-0,0,5,11-18,3-19;18-12;13-14;13-15;19-13;9-24,9-24,3.24,52,3,1540.91625143,1
GEMS115,2018_Sep_28_1455,Kramer,SF,1.2,1,,10,6,3,SimpleHill,0-0,0,6,9-24,11-16;19-24;4-25;14-25;5-33;4-29,5-33,9.01,53,1,1554.00083224,1
GEMS115,2018_Sep_28_1455,Kramer,SF,1.2,1,,10,6,3,SimpleHill,0-0,0,7,5-33,0-31;3-29;9-25;1-33;0-26;13-38,0-31,2.67,42,-11,1560.72466181,1
GEMS115,2018_Sep_28_1455,Kramer,SF,1.2,1,,10,6,3,SimpleHill,0-0,0,8,0-31,6-39;7-27;6-31;6-28;5-37;8-30,7-27,1.76,52,10,1566.55224547,1
GEMS115,2018_Sep_28_1455,Kramer,SF,1.2,1,,10,6,3,SimpleHill,0-0,0,9,7-27,9-18;6-34;2-30;8-31;16-31;4-19,6-34,1.0,56,4,1571.5972794,1
GEMS115,2018_Sep_28_1455,Kramer,SF,1.2,1,,10,6,3,SimpleHill,0-0,0,10,6-34,10-43;7-39;4-28;6-37;15-32;2-26,10-43,2.87,67,11,1578.5377875,1
GEMS115,2018_Sep_28_1455,Kramer,SF,1.2,1,,10,6,3,SimpleHill,0-0,0,11,10-43,11-40;5-42;10-52;4-38;7-48;14-34,10-52,1.57,67,0,1584.18390225,1
GEMS115,2018_Sep_28_1455,Kramer,SF,1.2,1,,10,6,3,SimpleHill,0-0,0,12,10-52,9-53;16-46;10-61;5-60;3-55;8-53,3-55,6.48,55,-12,1594.74094528,1
GEMS115,2018_Sep_28_1455,Kramer,SF,1.2,1,,10,6,3,SimpleHill,0-0,0,13,3-55,10-52;1-50;1-61;11-52;6-60;0-53,6-60,2.26,59,4,1601.04459092,1
GEMS115,2018_Sep_28_1455,Kramer,SF,1.2,1,,10,6,3,SimpleHill,0-0,0,14,6-60,11-59;1-67;8-58;7-54;13-65;8-65,1-67,2.43,46,-13,1607.5361387,1
GEMS115,2018_Sep_28_1455,Kramer,SF,1.2,1,,10,6,3,SimpleHill,0-0,0,15,1-67,3-63;9-61;0-59;3-62;1-67;0-67,1-67,1.46,46,0,1613.05112947,1
GEMS115,2018_Sep_28_1455,Kramer,SF,1.2,1,,10,6,3,SimpleHill,0-0,0,16,1-67,9-61;5-68;10-70;5-66;7-64;0-70,10-70,1.71,60,14,1618.82037452,1
GEMS115,2018_Sep_28_1455,Kramer,SF,1.2,1,,10,6,3,SimpleHill,0-0,0,17,10-70,9-65;19-67;1-69;13-70;15-64;8-69,13-70,2.82,64,4,1625.69705921,1
GEMS115,2018_Sep_28_1455,Kramer,SF,1.2,1,,10,6,3,SimpleHill,0-0,0,18,13-70,15-67;7-65;15-64;19-69;12-69;17-69,17-69,1.67,71,7,1631.45790277,1
GEMS115,2018_Sep_28_1455,Kramer,SF,1.2,1,,10,6,3,SimpleHill,0-0,0,19,17-69,25-68;25-65;12-63;15-67;8-69;24-65,25-65,4.39,83,12,1639.90402194,1
GEMS115,2018_Sep_28_1455,Kramer,SF,1.2,1,,10,6,3,SimpleHill,0-0,0,20,25-65,31-70;21-66;27-67;28-59;25-67;32-66,25-67,3.88,81,-2,1647.83558407,1
GEMS115,2018_Sep_28_1455,Kramer,SF,1.2,1,,10,6,3,SimpleHill,0-0,0,21,25-67,22-66;23-68;17-70;22-65;25-63;26-63,17-70,1.86,70,-11,1653.77235444,1
GEMS115,2018_Sep_28_1455,Kramer,SF,1.2,1,,10,6,3,SimpleHill,0-0,0,22,17-70,14-62;9-65;8-66;17-63;20-70;14-61,20-70,1.97,74,4,1659.802126,1
GEMS115,2018_Sep_28_1455,Kramer,SF,1.2,1,,10,6,3,SimpleHill,0-0,0,23,20-70,14-66;16-62;28-68;20-68;10-70;19-61,16-62,2.44,74,0,1666.29694769,1
GEMS115,2018_Sep_28_1455,Kramer,SF,1.2,1,,10,6,3,SimpleHill,0-0,0,24,16-62,23-66;8-63;16-56;11-61;20-54;22-65,22-65,1.01,79,5,1671.36350885,1
GEMS115,2018_Sep_28_1455,Kramer,SF,1.2,1,,10,6,3,SimpleHill,0-0,0,25,22-65,20-68;24-60;29-65;24-62;27-61;28-58,27-61,5.07,87,8,1680.49978826,1
GEMS115,2018_Sep_28_1455,Kramer,SF,1.2,1,,10,6,3,SimpleHill,0-0,0,26,27-61,29-56;26-62;25-61;27-69;36-65;26-69,27-69,2.76,82,-5,1687.29863042,1
GEMS115,2018_Sep_28_1455,Kramer,SF,1.2,1,,10,6,3,SimpleHill,0-0,0,27,27-69,31-63;35-65;24-64;28-70;35-63;24-60,28-70,19.89,82,0,1711.24361054,1
GEMS115,2018_Sep_28_1455,Kramer,SF,1.2,1,,10,6,3,SimpleHill,0-0,0,28,28-70,37-69;21-65;29-61;20-68;34-70;34-62,21-65,7.16,78,-4,1722.46624664,1
GEMS115,2018_Sep_28_1455,Kramer,SF,1.2,1,,10,6,3,SimpleHill,0-0,0,29,21-65,14-69;14-65;18-69;26-61;29-63;15-69,18-69,1.76,72,-6,1728.29224007,1
GEMS115,2018_Sep_28_1455,Kramer,SF,1.2,1,,10,6,3,SimpleHill,0-0,0,30,18-69,18-62;11-68;11-70;19-63;11-62;26-70,19-63,2.65,77,5,1735.00169906,1
GEMS115,2018_Sep_28_1455,Kramer,SF,1.2,1,,10,6,3,SimpleHill,0-0,0,31,19-63,19-63;17-56;12-56;17-62;24-70;25-59,17-62,1.48,75,-2,1740.54486124,1
GEMS115,2018_Sep_28_1455,Kramer,SF,1.2,1,,10,6,3,SimpleHill,0-0,0,32,17-62,16-64;18-64;18-68;13-66;21-63;13-53,18-68,0.63,73,-2,1745.23182566,1
GEMS115,2018_Sep_28_1455,Kramer,SF,1.2,1,,10,6,3,SimpleHill,0-0,0,33,18-68,15-69;19-70;23-67;24-70;19-59;15-65,19-70,0.8,72,-1,1750.09565669,1
GEMS115,2018_Sep_28_1455,Kramer,SF,1.2,1,,10,6,3,SimpleHill,0-0,0,34,19-70,23-67;27-67;20-64;19-60;22-69;16-64,19-60,1.77,78,6,1755.92117254,1
GEMS115,2018_Sep_28_1455,Kramer,SF,1.2,1,,10,6,3,SimpleHill,0-0,0,35,19-60,27-58;15-59;28-58;10-61;28-62;11-58,11-58,3.25,68,-10,1763.24091823,1
GEMS115,2018_Sep_28_1455,Kramer,SF,1.2,1,,10,6,3,SimpleHill,0-0,0,36,11-58,13-58;20-57;14-57;11-58;16-55;15-63,11-58,4.26,68,0,1771.58121232,1
GEMS115,2018_Sep_28_1455,Kramer,SF,1.2,1,,10,6,3,SimpleHill,0-0,0,37,11-58,17-50;12-57;12-64;15-54;5-55;4-57,17-50,5.3,78,10,1780.94741987,1
GEMS115,2018_Sep_28_1455,Kramer,SF,1.2,1,,10,6,3,SimpleHill,0-0,0,38,17-50,15-41;15-47;14-46;26-47;17-50;21-43,21-43,1.5,82,4,1786.49930012,1
GEMS115,2018_Sep_28_1455,Kramer,SF,1.2,1,,10,6,3,SimpleHill,0-0,0,39,21-43,27-40;15-45;19-36;17-44;17-47;25-51,17-47,10.31,78,-4,1800.86008113,1
GEMS115,2018_Sep_28_1455,Kramer,SF,1.2,1,,10,6,4,SimpleHill,0-0,0,0,0-0,5-1;4-0;7-6;4-1;5-6;4-8,7-6,1.74,24,24,1813.03993516,1
GEMS115,2018_Sep_28_1455,Kramer,SF,1.2,1,,10,6,4,SimpleHill,0-0,0,1,7-6,7-14;13-6;12-3;5-13;2-12;11-4,7-14,1.93,37,13,1819.03587542,1
GEMS115,2018_Sep_28_1455,Kramer,SF,1.2,1,,10,6,4,SimpleHill,0-0,0,2,7-14,10-8;5-19;7-12;2-6;6-14;15-10,5-19,3.86,40,3,1826.96641293,1
GEMS115,2018_Sep_28_1455,Kramer,SF,1.2,1,,10,6,4,SimpleHill,0-0,0,3,5-19,4-19;8-12;6-14;0-11;3-19;13-25,6-14,0.86,35,-5,1831.89367364,1
GEMS115,2018_Sep_28_1455,Kramer,SF,1.2,1,,10,6,4,SimpleHill,0-0,0,4,6-14,14-16;6-10;6-12;15-15;3-21;12-9,3-21,1.02,39,4,1836.98497226,1
GEMS115,2018_Sep_28_1455,Kramer,SF,1.2,1,,10,6,4,SimpleHill,0-0,0,5,3-21,11-25;11-26;10-16;11-19;2-29;5-25,2-29,2.82,45,6,1843.86839491,1
GEMS115,2018_Sep_28_1455,Kramer,SF,1.2,1,,10,6,4,SimpleHill,0-0,0,6,2-29,3-29;4-23;1-28;4-37;10-27;6-34,4-37,1.54,54,9,1849.46567943,1
GEMS115,2018_Sep_28_1455,Kramer,SF,1.2,1,,10,6,4,SimpleHill,0-0,0,7,4-37,13-36;9-38;6-32;7-40;11-37;4-43,13-36,1.83,68,14,1855.37392501,1
GEMS115,2018_Sep_28_1455,Kramer,SF,1.2,1,,10,6,4,SimpleHill,0-0,0,8,13-36,22-36;8-38;22-32;18-38;21-41;10-43,10-43,7.61,67,-1,1867.03404929,1
GEMS115,2018_Sep_28_1455,Kramer,SF,1.2,1,,10,6,4,SimpleHill,0-0,0,9,10-43,8-50;18-46;5-39;17-39;7-37;12-47,8-50,6.29,64,-3,1877.38924979,1
GEMS115,2018_Sep_28_1455,Kramer,SF,1.2,1,,10,6,4,SimpleHill,0-0,0,10,8-50,13-58;14-52;15-54;0-54;3-43;12-59,3-43,2.2,54,-10,1883.65832664,1
GEMS115,2018_Sep_28_1455,Kramer,SF,1.2,1,,10,6,4,SimpleHill,0-0,0,11,3-43,7-36;9-36;12-41;11-40;1-47;6-34,1-47,2.18,51,-3,1889.92037231,1
GEMS115,2018_Sep_28_1455,Kramer,SF,1.2,1,,10,6,4,SimpleHill,0-0,0,12,1-47,1-51;0-50;7-47;2-41;0-45;2-56,2-56,5.08,53,2,1899.05792921,1
GEMS115,2018_Sep_28_1455,Kramer,SF,1.2,1,,10,6,4,SimpleHill,0-0,0,13,2-56,6-63;4-49;5-55;5-50;3-61;3-51,6-63,1.5,57,4,1904.64442242,1
GEMS115,2018_Sep_28_1455,Kramer,SF,1.2,1,,10,6,4,SimpleHill,0-0,0,14,6-63,7-64;13-66;5-70;10-65;15-64;0-66,5-70,7.79,51,-6,1916.52040547,1
GEMS115,2018_Sep_28_1455,Kramer,SF,1.2,1,,10,6,4,SimpleHill,0-0,0,15,5-70,5-64;0-70;7-66;8-63;7-68;2-68,0-70,3.42,42,-9,1924.01660708,1
GEMS115,2018_Sep_28_1455,Kramer,SF,1.2,1,,10,6,4,SimpleHill,0-0,0,16,0-70,5-68;6-64;5-66;2-70;1-69;8-70,2-70,1.27,45,3,1929.3678013,1
GEMS115,2018_Sep_28_1455,Kramer,SF,1.2,1,,10,6,4,SimpleHill,0-0,0,17,2-70,3-70;2-65;2-62;0-68;5-67;1-67,3-70,1.81,47,2,1935.23674646,1
GEMS115,2018_Sep_28_1455,Kramer,SF,1.2,1,,10,6,4,SimpleHill,0-0,0,18,3-70,2-67;0-63;3-64;9-64;9-69;10-68,10-68,0.84,61,14,1940.15118039,1
GEMS115,2018_Sep_28_1455,Kramer,SF,1.2,1,,10,6,4,SimpleHill,0-0,0,19,10-68,13-68;7-66;4-60;11-69;13-64;9-61,7-66,1.53,57,-4,1945.76808631,1
GEMS115,2018_Sep_28_1455,Kramer,SF,1.2,1,,10,6,4,SimpleHill,0-0,0,20,7-66,11-57;13-59;14-62;14-66;10-63;9-62,14-66,1.94,68,11,1951.78103057,1
GEMS115,2018_Sep_28_1455,Kramer,SF,1.2,1,,10,6,4,SimpleHill,0-0,0,21,14-66,18-58;5-62;10-67;6-69;16-60;19-61,10-67,2.77,62,-6,1958.62482311,1
GEMS115,2018_Sep_28_1455,Kramer,SF,1.2,1,,10,6,4,SimpleHill,0-0,0,22,10-67,16-68;12-68;8-68;15-64;9-66;17-65,9-66,1.85,61,-1,1964.5561903,1
GEMS115,2018_Sep_28_1455,Kramer,SF,1.2,1,,10,6,4,SimpleHill,0-0,0,23,9-66,0-70;9-59;11-65;5-70;15-63;2-62,5-70,2.03,51,-10,1970.64348615,1
GEMS115,2018_Sep_28_1455,Kramer,SF,1.2,1,,10,6,4,SimpleHill,0-0,0,24,5-70,3-63;4-65;3-68;2-70;11-70;8-68,11-70,3.61,61,10,1978.32961097,1
GEMS115,2018_Sep_28_1455,Kramer,SF,1.2,1,,10,6,4,SimpleHill,0-0,0,25,11-70,17-66;10-64;4-64;15-65;16-70;12-63,16-70,1.71,68,7,1984.17504943,1
GEMS115,2018_Sep_28_1455,Kramer,SF,1.2,1,,10,6,4,SimpleHill,0-0,0,26,16-70,24-65;16-64;21-69;19-67;20-67;9-70,21-69,0.92,75,7,1989.15639887,1
GEMS115,2018_Sep_28_1455,Kramer,SF,1.2,1,,10,6,4,SimpleHill,0-0,0,27,21-69,13-67;18-60;20-65;26-66;15-62;17-60,26-66,2.18,83,8,1995.39538022,1
GEMS115,2018_Sep_28_1455,Kramer,SF,1.2,1,,10,6,4,SimpleHill,0-0,0,28,26-66,21-64;17-63;21-63;24-67;17-70;30-57,17-70,3.24,70,-13,2002.70449561,1
GEMS115,2018_Sep_28_1455,Kramer,SF,1.2,1,,10,6,4,SimpleHill,0-0,0,29,17-70,22-68;23-67;17-70;18-65;16-63;25-68,17-70,1.47,70,0,2008.2216643,1
GEMS115,2018_Sep_28_1455,Kramer,SF,1.2,1,,10,6,4,SimpleHill,0-0,0,30,17-70,21-67;16-61;15-66;19-63;25-65;21-66,21-67,4.46,77,7,2016.76973383,1
GEMS115,2018_Sep_28_1455,Kramer,SF,1.2,1,,10,6,4,SimpleHill,0-0,0,31,21-67,13-68;21-67;26-59;17-67;23-61;19-60,17-67,3.06,72,-5,2023.91065171,1
GEMS115,2018_Sep_28_1455,Kramer,SF,1.2,1,,10,6,4,SimpleHill,0-0,0,32,17-67,24-66;9-69;22-70;13-63;14-63;20-66,20-66,2.62,76,4,2030.61157669,1
GEMS115,2018_Sep_28_1455,Kramer,SF,1.2,1,,10,6,4,SimpleHill,0-0,0,33,20-66,17-68;12-68;23-57;27-65;25-69;23-63,25-69,2.05,80,4,2036.73489392,1
GEMS115,2018_Sep_28_1455,Kramer,SF,1.2,1,,10,6,4,SimpleHill,0-0,0,34,25-69,22-69;21-66;23-60;29-63;29-68;24-65,22-69,2.16,77,-3,2042.95657294,1
GEMS115,2018_Sep_28_1455,Kramer,SF,1.2,1,,10,6,4,SimpleHill,0-0,0,35,22-69,22-70;31-70;14-63;25-68;30-64;24-64,31-70,1.17,84,7,2048.19623321,1
GEMS115,2018_Sep_28_1455,Kramer,SF,1.2,1,,10,6,4,SimpleHill,0-0,0,36,31-70,25-69;34-64;32-68;33-62;34-63;25-67,25-67,2.24,81,-3,2054.50087401,1
GEMS115,2018_Sep_28_1455,Kramer,SF,1.2,1,,10,6,4,SimpleHill,0-0,0,37,25-67,21-67;34-66;19-68;19-62;18-64;32-69,19-68,2.39,74,-7,2060.94102121,1
GEMS115,2018_Sep_28_1455,Kramer,SF,1.2,1,,10,6,4,SimpleHill,0-0,0,38,19-68,25-70;18-65;13-61;27-66;25-63;22-68,25-70,1.07,79,5,2066.08380651,1
GEMS115,2018_Sep_28_1455,Kramer,SF,1.2,1,,10,6,4,SimpleHill,0-0,0,39,25-70,28-61;25-70;17-67;19-65;20-67;18-68,25-70,1.92,79,0,2072.08392174,1
