subj_id,date,computer,experimenter,instructions,sight_radius,n_gabors,start_pos_list_ix,start_pos_list,landscape_ix,landscape_name,starting_pos,starting_score,trial,feedback,pos,stims,selected,rt,score,delta,exp_time
GEMS219,2018_Apr_09_1537,Kramer,EG,orientation,8,6,10,27-67;14-69;29-41;20-51,0,OrientationBias,0-0,0,0,training,0-0,7-3;2-4;6-5;1-5;0-8;1-3,2-4,2.0,7,7,154.291218283
GEMS219,2018_Apr_09_1537,Kramer,EG,orientation,8,6,10,27-67;14-69;29-41;20-51,0,OrientationBias,0-0,0,1,training,2-4,9-7;1-4;2-8;5-9;5-7;5-3,9-7,1.07,32,25,161.333068829
GEMS219,2018_Apr_09_1537,Kramer,EG,orientation,8,6,10,27-67;14-69;29-41;20-51,0,OrientationBias,0-0,0,2,training,9-7,13-11;16-9;8-8;6-10;6-7;10-8,13-11,1.36,45,13,166.245251342
GEMS219,2018_Apr_09_1537,Kramer,EG,orientation,8,6,10,27-67;14-69;29-41;20-51,0,OrientationBias,0-0,0,3,training,13-11,6-14;11-11;17-14;18-14;9-11;15-4,11-11,0.78,39,-6,170.215022728
GEMS219,2018_Apr_09_1537,Kramer,EG,orientation,8,6,10,27-67;14-69;29-41;20-51,0,OrientationBias,0-0,0,4,training,11-11,14-5;4-14;16-14;10-8;7-17;16-10,10-8,0.6,36,-3,174.256538458
GEMS219,2018_Apr_09_1537,Kramer,EG,orientation,8,6,10,27-67;14-69;29-41;20-51,0,OrientationBias,0-0,0,5,training,10-8,14-9;6-7;15-13;15-4;9-7;8-10,15-13,0.75,51,15,178.214607248
GEMS219,2018_Apr_09_1537,Kramer,EG,orientation,8,6,10,27-67;14-69;29-41;20-51,0,OrientationBias,0-0,0,6,training,15-13,15-18;17-11;12-20;14-6;12-6;23-13,15-18,0.64,51,0,182.791557102
GEMS219,2018_Apr_09_1537,Kramer,EG,orientation,8,6,10,27-67;14-69;29-41;20-51,0,OrientationBias,0-0,0,7,training,15-18,14-18;20-21;12-23;11-22;21-13;10-14,20-21,1.01,64,13,186.369470435
GEMS219,2018_Apr_09_1537,Kramer,EG,orientation,8,6,10,27-67;14-69;29-41;20-51,0,OrientationBias,0-0,0,8,training,20-21,20-24;14-22;16-16;23-20;20-22;21-14,20-22,1.01,64,0,197.894271713
GEMS219,2018_Apr_09_1537,Kramer,EG,orientation,8,6,10,27-67;14-69;29-41;20-51,0,OrientationBias,0-0,0,9,training,20-22,19-16;26-22;14-23;21-22;23-28;19-20,19-16,2.2,61,-3,205.205483319
GEMS219,2018_Apr_09_1537,Kramer,EG,orientation,8,6,10,27-67;14-69;29-41;20-51,0,OrientationBias,0-0,0,10,training,19-16,15-22;24-10;18-17;20-12;22-22;15-20,24-10,1.09,72,11,226.653743022
GEMS219,2018_Apr_09_1537,Kramer,EG,orientation,8,6,10,27-67;14-69;29-41;20-51,0,OrientationBias,0-0,0,11,training,24-10,16-10;23-4;30-13;27-11;22-17;18-6,23-4,1.05,70,-2,231.977651434
GEMS219,2018_Apr_09_1537,Kramer,EG,orientation,8,6,10,27-67;14-69;29-41;20-51,0,OrientationBias,0-0,0,12,training,23-4,29-6;19-6;20-9;30-7;21-7;26-3,30-7,3.54,84,14,249.888935444
GEMS219,2018_Apr_09_1537,Kramer,EG,orientation,8,6,10,27-67;14-69;29-41;20-51,0,OrientationBias,0-0,0,13,training,30-7,26-11;23-6;24-10;27-6;27-0;25-3,26-11,2.99,76,-8,256.650663088
GEMS219,2018_Apr_09_1537,Kramer,EG,orientation,8,6,10,27-67;14-69;29-41;20-51,0,OrientationBias,0-0,0,14,training,26-11,21-8;27-8;29-12;22-7;26-16;23-7,26-16,2.28,76,0,287.292762091
GEMS219,2018_Apr_09_1537,Kramer,EG,orientation,8,6,10,27-67;14-69;29-41;20-51,0,OrientationBias,0-0,0,15,training,26-16,27-13;28-9;29-16;25-11;32-15;23-18,29-16,0.95,82,6,296.909036318
GEMS219,2018_Apr_09_1537,Kramer,EG,orientation,8,6,10,27-67;14-69;29-41;20-51,0,OrientationBias,0-0,0,16,training,29-16,31-19;31-14;26-11;28-21;32-13;27-13,32-13,1.54,87,5,301.947306626
GEMS219,2018_Apr_09_1537,Kramer,EG,orientation,8,6,10,27-67;14-69;29-41;20-51,0,OrientationBias,0-0,0,17,training,32-13,35-20;38-18;28-14;27-15;25-14;26-14,35-20,0.95,91,4,306.258396917
GEMS219,2018_Apr_09_1537,Kramer,EG,orientation,8,6,10,27-67;14-69;29-41;20-51,0,OrientationBias,0-0,0,18,training,35-20,29-21;37-16;39-21;40-22;34-15;34-17,29-21,0.95,82,-9,310.260264659
GEMS219,2018_Apr_09_1537,Kramer,EG,orientation,8,6,10,27-67;14-69;29-41;20-51,0,OrientationBias,0-0,0,19,training,29-21,34-17;28-28;25-22;24-17;35-19;25-27,25-27,1.98,75,-7,317.171431836
GEMS219,2018_Apr_09_1537,Kramer,EG,orientation,8,6,10,27-67;14-69;29-41;20-51,0,OrientationBias,0-0,0,20,training,25-27,21-31;25-33;23-32;29-32;21-30;25-30,25-30,1.13,75,0,323.779785044
GEMS219,2018_Apr_09_1537,Kramer,EG,orientation,8,6,10,27-67;14-69;29-41;20-51,0,OrientationBias,0-0,0,21,training,25-30,21-31;26-27;21-26;19-29;24-25;27-36,26-27,0.87,76,1,328.323693628
GEMS219,2018_Apr_09_1537,Kramer,EG,orientation,8,6,10,27-67;14-69;29-41;20-51,0,OrientationBias,0-0,0,22,training,26-27,23-29;27-32;26-22;26-32;28-28;25-26,27-32,0.88,78,2,332.92089352
GEMS219,2018_Apr_09_1537,Kramer,EG,orientation,8,6,10,27-67;14-69;29-41;20-51,0,OrientationBias,0-0,0,23,training,27-32,25-29;26-27;31-33;30-31;29-34;30-25,26-27,0.89,76,-2,336.980620935
GEMS219,2018_Apr_09_1537,Kramer,EG,orientation,8,6,10,27-67;14-69;29-41;20-51,0,OrientationBias,0-0,0,24,training,26-27,20-31;21-27;29-24;23-20;30-29;21-28,29-24,0.87,82,6,341.240985463
GEMS219,2018_Apr_09_1537,Kramer,EG,orientation,8,6,10,27-67;14-69;29-41;20-51,0,OrientationBias,0-0,0,25,training,29-24,28-22;32-24;31-25;22-25;32-25;28-25,32-24,0.42,87,5,345.31587568
GEMS219,2018_Apr_09_1537,Kramer,EG,orientation,8,6,10,27-67;14-69;29-41;20-51,0,OrientationBias,0-0,0,26,training,32-24,37-30;34-19;28-26;25-25;33-22;28-18,37-30,1.08,93,6,349.831181722
GEMS219,2018_Apr_09_1537,Kramer,EG,orientation,8,6,10,27-67;14-69;29-41;20-51,0,OrientationBias,0-0,0,27,training,37-30,40-24;34-32;35-28;31-29;34-35;41-32,34-32,0.41,89,-4,354.725994392
GEMS219,2018_Apr_09_1537,Kramer,EG,orientation,8,6,10,27-67;14-69;29-41;20-51,0,OrientationBias,0-0,0,28,training,34-32,27-31;34-33;29-30;32-34;40-30;38-31,27-31,0.55,78,-11,358.1531158
GEMS219,2018_Apr_09_1537,Kramer,EG,orientation,8,6,10,27-67;14-69;29-41;20-51,0,OrientationBias,0-0,0,29,training,27-31,22-30;24-28;29-28;21-31;27-27;30-31,21-31,0.72,66,-12,362.004005963
GEMS219,2018_Apr_09_1537,Kramer,EG,orientation,8,6,10,27-67;14-69;29-41;20-51,1,SimpleHill,27-67,83,0,selected,27-67,20-70;25-65;21-63;31-63;21-64;22-63,25-65,1.24,83,0,376.017465549
GEMS219,2018_Apr_09_1537,Kramer,EG,orientation,8,6,10,27-67;14-69;29-41;20-51,1,SimpleHill,27-67,83,1,selected,25-65,31-69;22-69;26-61;25-69;22-60;27-65,31-69,0.81,85,2,380.384425175
GEMS219,2018_Apr_09_1537,Kramer,EG,orientation,8,6,10,27-67;14-69;29-41;20-51,1,SimpleHill,27-67,83,2,selected,31-69,31-68;33-63;30-70;29-63;33-67;26-69,33-63,0.6,90,5,384.535814715
GEMS219,2018_Apr_09_1537,Kramer,EG,orientation,8,6,10,27-67;14-69;29-41;20-51,1,SimpleHill,27-67,83,3,selected,33-63,33-70;30-68;39-62;37-65;37-58;39-67,33-70,0.51,86,-4,388.620347729
GEMS219,2018_Apr_09_1537,Kramer,EG,orientation,8,6,10,27-67;14-69;29-41;20-51,1,SimpleHill,27-67,83,4,selected,33-70,26-69;35-68;32-65;36-67;30-67;27-68,36-67,0.43,90,4,392.586177812
GEMS219,2018_Apr_09_1537,Kramer,EG,orientation,8,6,10,27-67;14-69;29-41;20-51,1,SimpleHill,27-67,83,5,selected,36-67,29-64;41-63;33-66;32-62;34-70;38-65,34-70,0.5,86,-4,396.638514602
GEMS219,2018_Apr_09_1537,Kramer,EG,orientation,8,6,10,27-67;14-69;29-41;20-51,1,SimpleHill,27-67,83,6,selected,34-70,34-63;36-69;33-67;28-69;36-66;40-65,28-69,0.6,83,-3,400.805999053
GEMS219,2018_Apr_09_1537,Kramer,EG,orientation,8,6,10,27-67;14-69;29-41;20-51,1,SimpleHill,27-67,83,7,selected,28-69,33-64;28-65;34-64;24-69;31-70;27-62,28-65,0.58,85,2,404.942778912
GEMS219,2018_Apr_09_1537,Kramer,EG,orientation,8,6,10,27-67;14-69;29-41;20-51,1,SimpleHill,27-67,83,8,selected,28-65,34-61;23-60;30-69;33-59;32-70;25-70,25-70,0.44,79,-6,408.94480446
GEMS219,2018_Apr_09_1537,Kramer,EG,orientation,8,6,10,27-67;14-69;29-41;20-51,1,SimpleHill,27-67,83,9,selected,25-70,18-70;23-69;21-70;23-67;22-65;21-67,23-69,0.9,78,-1,413.406496221
GEMS219,2018_Apr_09_1537,Kramer,EG,orientation,8,6,10,27-67;14-69;29-41;20-51,1,SimpleHill,27-67,83,10,selected,23-69,23-66;20-70;27-66;22-69;18-68;28-65,22-69,0.86,77,-1,417.827921576
GEMS219,2018_Apr_09_1537,Kramer,EG,orientation,8,6,10,27-67;14-69;29-41;20-51,1,SimpleHill,27-67,83,11,selected,22-69,28-65;24-62;26-67;17-64;20-65;19-66,17-64,1.7,74,-3,423.094667796
GEMS219,2018_Apr_09_1537,Kramer,EG,orientation,8,6,10,27-67;14-69;29-41;20-51,1,SimpleHill,27-67,83,12,selected,17-64,18-64;14-65;16-69;14-57;19-65;23-65,23-65,0.51,80,6,427.181124249
GEMS219,2018_Apr_09_1537,Kramer,EG,orientation,8,6,10,27-67;14-69;29-41;20-51,1,SimpleHill,27-67,83,13,selected,23-65,25-61;16-63;17-63;23-62;25-64;19-66,16-63,0.53,73,-7,431.279402053
GEMS219,2018_Apr_09_1537,Kramer,EG,orientation,8,6,10,27-67;14-69;29-41;20-51,1,SimpleHill,27-67,83,14,selected,16-63,13-64;22-61;18-65;15-66;9-62;21-67,13-64,0.32,68,-5,435.159595441
GEMS219,2018_Apr_09_1537,Kramer,EG,orientation,8,6,10,27-67;14-69;29-41;20-51,1,SimpleHill,27-67,83,15,selected,13-64,11-65;17-62;18-59;20-61;14-63;7-64,20-61,0.44,79,11,439.19817976
GEMS219,2018_Apr_09_1537,Kramer,EG,orientation,8,6,10,27-67;14-69;29-41;20-51,1,SimpleHill,27-67,83,16,selected,20-61,17-62;23-55;18-58;18-62;26-61;21-64,18-58,0.73,78,-1,443.49424521
GEMS219,2018_Apr_09_1537,Kramer,EG,orientation,8,6,10,27-67;14-69;29-41;20-51,1,SimpleHill,27-67,83,17,selected,18-58,24-55;18-65;19-59;17-56;13-57;23-64,13-57,1.04,71,-7,448.117216421
GEMS219,2018_Apr_09_1537,Kramer,EG,orientation,8,6,10,27-67;14-69;29-41;20-51,1,SimpleHill,27-67,83,18,selected,13-57,18-56;15-55;16-63;19-61;20-56;8-58,18-56,0.44,78,7,452.138662005
GEMS219,2018_Apr_09_1537,Kramer,EG,orientation,8,6,10,27-67;14-69;29-41;20-51,1,SimpleHill,27-67,83,19,selected,18-56,13-58;11-57;19-55;21-50;23-59;19-56,11-57,0.48,68,-10,456.187067094
GEMS219,2018_Apr_09_1537,Kramer,EG,orientation,8,6,10,27-67;14-69;29-41;20-51,1,SimpleHill,27-67,83,20,selected,11-57,17-53;7-56;13-50;10-64;9-52;11-65,9-52,1.02,66,-2,460.761616251
GEMS219,2018_Apr_09_1537,Kramer,EG,orientation,8,6,10,27-67;14-69;29-41;20-51,1,SimpleHill,27-67,83,21,selected,9-52,9-54;5-48;13-47;14-54;12-47;7-48,14-54,0.65,73,7,464.960226216
GEMS219,2018_Apr_09_1537,Kramer,EG,orientation,8,6,10,27-67;14-69;29-41;20-51,1,SimpleHill,27-67,83,22,selected,14-54,19-56;10-50;18-53;14-51;20-56;19-54,10-50,0.99,68,-5,469.536734662
GEMS219,2018_Apr_09_1537,Kramer,EG,orientation,8,6,10,27-67;14-69;29-41;20-51,1,SimpleHill,27-67,83,23,selected,10-50,16-47;7-53;7-50;9-57;6-51;16-51,7-50,0.5,63,-5,473.618323462
GEMS219,2018_Apr_09_1537,Kramer,EG,orientation,8,6,10,27-67;14-69;29-41;20-51,1,SimpleHill,27-67,83,24,selected,7-50,7-42;14-47;7-49;7-50;15-50;13-54,13-54,0.57,72,9,477.777791826
GEMS219,2018_Apr_09_1537,Kramer,EG,orientation,8,6,10,27-67;14-69;29-41;20-51,1,SimpleHill,27-67,83,25,selected,13-54,11-47;14-50;10-48;13-47;10-51;6-52,10-48,3.03,67,-5,484.358731638
GEMS219,2018_Apr_09_1537,Kramer,EG,orientation,8,6,10,27-67;14-69;29-41;20-51,1,SimpleHill,27-67,83,26,selected,10-48,10-43;6-48;6-54;7-42;15-44;12-48,6-48,0.47,61,-6,488.392063232
GEMS219,2018_Apr_09_1537,Kramer,EG,orientation,8,6,10,27-67;14-69;29-41;20-51,1,SimpleHill,27-67,83,27,selected,6-48,12-47;5-47;0-49;11-49;3-46;8-53,5-47,0.36,59,-2,492.325354271
GEMS219,2018_Apr_09_1537,Kramer,EG,orientation,8,6,10,27-67;14-69;29-41;20-51,1,SimpleHill,27-67,83,28,selected,5-47,3-44;4-41;0-44;0-50;1-41;12-44,4-41,0.27,56,-3,496.157510675
GEMS219,2018_Apr_09_1537,Kramer,EG,orientation,8,6,10,27-67;14-69;29-41;20-51,1,SimpleHill,27-67,83,29,selected,4-41,7-36;4-39;3-46;4-42;1-35;4-43,3-46,0.52,55,-1,500.229785093
GEMS219,2018_Apr_09_1537,Kramer,EG,orientation,8,6,10,27-67;14-69;29-41;20-51,1,SimpleHill,27-67,83,30,selected,3-46,8-52;4-48;7-51;0-52;2-51;0-51,4-48,0.24,57,2,504.035973961
GEMS219,2018_Apr_09_1537,Kramer,EG,orientation,8,6,10,27-67;14-69;29-41;20-51,1,SimpleHill,27-67,83,31,selected,4-48,0-53;10-50;4-40;7-55;3-53;1-51,3-53,0.51,55,-2,508.114476105
GEMS219,2018_Apr_09_1537,Kramer,EG,orientation,8,6,10,27-67;14-69;29-41;20-51,1,SimpleHill,27-67,83,32,selected,3-53,6-56;0-46;1-50;1-56;8-51;0-51,1-56,0.26,51,-4,511.952777974
GEMS219,2018_Apr_09_1537,Kramer,EG,orientation,8,6,10,27-67;14-69;29-41;20-51,1,SimpleHill,27-67,83,33,selected,1-56,4-52;1-62;5-53;4-59;5-54;4-55,5-53,0.37,59,8,515.901295512
GEMS219,2018_Apr_09_1537,Kramer,EG,orientation,8,6,10,27-67;14-69;29-41;20-51,1,SimpleHill,27-67,83,34,selected,5-53,0-54;7-47;9-55;10-51;10-53;3-54,3-54,0.47,55,-4,519.951115412
GEMS219,2018_Apr_09_1537,Kramer,EG,orientation,8,6,10,27-67;14-69;29-41;20-51,1,SimpleHill,27-67,83,35,selected,3-54,0-54;10-57;1-54;2-48;10-52;1-49,10-57,0.24,67,12,523.755848177
GEMS219,2018_Apr_09_1537,Kramer,EG,orientation,8,6,10,27-67;14-69;29-41;20-51,1,SimpleHill,27-67,83,36,selected,10-57,15-61;8-64;13-52;5-56;17-57;7-52,13-52,0.54,72,5,527.864754346
GEMS219,2018_Apr_09_1537,Kramer,EG,orientation,8,6,10,27-67;14-69;29-41;20-51,1,SimpleHill,27-67,83,37,selected,13-52,14-51;19-51;16-49;10-45;18-54;10-50,14-51,0.91,74,2,532.361466512
GEMS219,2018_Apr_09_1537,Kramer,EG,orientation,8,6,10,27-67;14-69;29-41;20-51,1,SimpleHill,27-67,83,38,selected,14-51,15-53;14-59;7-54;10-48;7-49;10-51,14-59,0.64,72,-2,536.562448685
GEMS219,2018_Apr_09_1537,Kramer,EG,orientation,8,6,10,27-67;14-69;29-41;20-51,1,SimpleHill,27-67,83,39,selected,14-59,11-57;10-64;11-52;18-57;7-57;14-61,7-57,0.43,62,-10,540.578738853
GEMS219,2018_Apr_09_1537,Kramer,EG,orientation,8,6,10,27-67;14-69;29-41;20-51,2,SimpleHill,14-69,66,0,selected,14-69,12-65;17-65;13-63;7-68;15-66;17-70,13-63,1.79,69,3,552.592398177
GEMS219,2018_Apr_09_1537,Kramer,EG,orientation,8,6,10,27-67;14-69;29-41;20-51,2,SimpleHill,14-69,66,1,selected,13-63,9-65;9-59;12-70;16-57;15-65;16-61,12-70,1.25,63,-6,557.409583517
GEMS219,2018_Apr_09_1537,Kramer,EG,orientation,8,6,10,27-67;14-69;29-41;20-51,2,SimpleHill,14-69,66,2,selected,12-70,11-69;9-64;7-69;10-70;8-69;15-64,9-64,0.72,62,-1,561.701841782
GEMS219,2018_Apr_09_1537,Kramer,EG,orientation,8,6,10,27-67;14-69;29-41;20-51,2,SimpleHill,14-69,66,3,selected,9-64,7-70;8-67;13-64;5-65;14-64;3-60,13-64,1.05,68,6,566.330697902
GEMS219,2018_Apr_09_1537,Kramer,EG,orientation,8,6,10,27-67;14-69;29-41;20-51,2,SimpleHill,14-69,66,4,selected,13-64,13-67;15-69;9-65;18-63;16-67;12-60,12-60,1.01,69,1,570.89129901
GEMS219,2018_Apr_09_1537,Kramer,EG,orientation,8,6,10,27-67;14-69;29-41;20-51,2,SimpleHill,14-69,66,5,selected,12-60,15-61;15-54;7-57;16-61;13-59;9-58,15-54,1.17,75,6,575.63826397
GEMS219,2018_Apr_09_1537,Kramer,EG,orientation,8,6,10,27-67;14-69;29-41;20-51,2,SimpleHill,14-69,66,6,selected,15-54,17-56;10-56;10-59;15-47;14-53;8-56,14-53,1.75,73,-2,580.959870273
GEMS219,2018_Apr_09_1537,Kramer,EG,orientation,8,6,10,27-67;14-69;29-41;20-51,2,SimpleHill,14-69,66,7,selected,14-53,15-55;8-51;17-47;11-51;11-52;9-54,8-51,1.83,64,-9,586.345594385
GEMS219,2018_Apr_09_1537,Kramer,EG,orientation,8,6,10,27-67;14-69;29-41;20-51,2,SimpleHill,14-69,66,8,selected,8-51,2-49;14-53;16-51;8-59;8-47;15-52,8-59,1.52,63,-1,591.446304575
GEMS219,2018_Apr_09_1537,Kramer,EG,orientation,8,6,10,27-67;14-69;29-41;20-51,2,SimpleHill,14-69,66,9,selected,8-59,3-58;11-62;1-57;2-64;6-64;12-59,11-62,0.58,66,3,595.593594044
GEMS219,2018_Apr_09_1537,Kramer,EG,orientation,8,6,10,27-67;14-69;29-41;20-51,2,SimpleHill,14-69,66,10,selected,11-62,7-61;15-64;16-57;4-61;10-56;16-56,15-64,0.83,71,5,600.000417401
GEMS219,2018_Apr_09_1537,Kramer,EG,orientation,8,6,10,27-67;14-69;29-41;20-51,2,SimpleHill,14-69,66,11,selected,15-64,16-68;14-70;18-70;20-68;17-60;14-57,14-70,0.83,66,-5,604.409700351
GEMS219,2018_Apr_09_1537,Kramer,EG,orientation,8,6,10,27-67;14-69;29-41;20-51,2,SimpleHill,14-69,66,12,selected,14-70,22-70;11-69;16-68;20-65;9-65;10-67,9-65,0.77,61,-5,608.745721398
GEMS219,2018_Apr_09_1537,Kramer,EG,orientation,8,6,10,27-67;14-69;29-41;20-51,2,SimpleHill,14-69,66,13,selected,9-65,7-67;3-67;8-69;10-67;3-62;8-63,8-69,0.65,57,-4,612.969545721
GEMS219,2018_Apr_09_1537,Kramer,EG,orientation,8,6,10,27-67;14-69;29-41;20-51,2,SimpleHill,14-69,66,14,selected,8-69,7-69;5-65;14-64;9-62;6-68;13-65,13-65,1.35,68,11,617.897161512
GEMS219,2018_Apr_09_1537,Kramer,EG,orientation,8,6,10,27-67;14-69;29-41;20-51,2,SimpleHill,14-69,66,15,selected,13-65,15-63;10-63;8-70;14-63;13-61;11-60,10-63,0.93,64,-4,622.417924498
GEMS219,2018_Apr_09_1537,Kramer,EG,orientation,8,6,10,27-67;14-69;29-41;20-51,2,SimpleHill,14-69,66,16,selected,10-63,6-65;16-65;7-66;8-67;9-58;15-69,15-69,1.54,68,4,627.508671797
GEMS219,2018_Apr_09_1537,Kramer,EG,orientation,8,6,10,27-67;14-69;29-41;20-51,2,SimpleHill,14-69,66,17,selected,15-69,22-67;18-64;22-69;14-62;9-67;16-68,22-69,1.76,77,9,632.829595021
GEMS219,2018_Apr_09_1537,Kramer,EG,orientation,8,6,10,27-67;14-69;29-41;20-51,2,SimpleHill,14-69,66,18,selected,22-69,19-64;17-65;29-70;18-64;20-65;22-69,22-69,1.9,77,0,638.284133026
GEMS219,2018_Apr_09_1537,Kramer,EG,orientation,8,6,10,27-67;14-69;29-41;20-51,2,SimpleHill,14-69,66,19,selected,22-69,26-67;16-66;26-68;18-63;20-62;19-67,26-68,1.77,82,5,643.610635471
GEMS219,2018_Apr_09_1537,Kramer,EG,orientation,8,6,10,27-67;14-69;29-41;20-51,2,SimpleHill,14-69,66,20,selected,26-68,20-65;30-67;22-62;28-62;25-63;33-65,30-67,1.74,86,4,648.90583667
GEMS219,2018_Apr_09_1537,Kramer,EG,orientation,8,6,10,27-67;14-69;29-41;20-51,2,SimpleHill,14-69,66,21,selected,30-67,31-68;30-63;28-61;29-66;26-69;26-66,31-68,1.72,86,0,654.224319186
GEMS219,2018_Apr_09_1537,Kramer,EG,orientation,8,6,10,27-67;14-69;29-41;20-51,2,SimpleHill,14-69,66,22,selected,31-68,35-68;26-69;30-68;26-66;24-70;33-68,35-68,1.96,89,3,659.762081346
GEMS219,2018_Apr_09_1537,Kramer,EG,orientation,8,6,10,27-67;14-69;29-41;20-51,2,SimpleHill,14-69,66,23,selected,35-68,34-67;32-69;36-67;39-65;35-68;41-65,36-67,2.98,90,1,666.325105559
GEMS219,2018_Apr_09_1537,Kramer,EG,orientation,8,6,10,27-67;14-69;29-41;20-51,2,SimpleHill,14-69,66,24,selected,36-67,31-67;39-62;37-70;34-69;39-67;30-63,31-67,1.29,87,-3,671.188847771
GEMS219,2018_Apr_09_1537,Kramer,EG,orientation,8,6,10,27-67;14-69;29-41;20-51,2,SimpleHill,14-69,66,25,selected,31-67,33-66;32-64;25-66;32-69;36-68;28-67,25-66,1.35,82,-5,676.116492371
GEMS219,2018_Apr_09_1537,Kramer,EG,orientation,8,6,10,27-67;14-69;29-41;20-51,2,SimpleHill,14-69,66,26,selected,25-66,21-66;23-64;22-61;26-67;32-63;25-61,21-66,2.09,78,-4,681.778816123
GEMS219,2018_Apr_09_1537,Kramer,EG,orientation,8,6,10,27-67;14-69;29-41;20-51,2,SimpleHill,14-69,66,27,selected,21-66,26-66;22-62;14-66;28-66;21-68;24-66,26-66,1.35,83,5,686.702848474
GEMS219,2018_Apr_09_1537,Kramer,EG,orientation,8,6,10,27-67;14-69;29-41;20-51,2,SimpleHill,14-69,66,28,selected,26-66,27-59;26-59;27-64;33-65;24-66;19-63,27-64,2.47,85,2,692.751662963
GEMS219,2018_Apr_09_1537,Kramer,EG,orientation,8,6,10,27-67;14-69;29-41;20-51,2,SimpleHill,14-69,66,29,selected,27-64,25-61;28-68;32-63;33-67;33-68;24-65,32-63,1.47,90,5,697.77983946
GEMS219,2018_Apr_09_1537,Kramer,EG,orientation,8,6,10,27-67;14-69;29-41;20-51,2,SimpleHill,14-69,66,30,selected,32-63,34-61;39-64;34-68;30-70;33-58;29-70,39-64,1.37,93,3,702.733623807
GEMS219,2018_Apr_09_1537,Kramer,EG,orientation,8,6,10,27-67;14-69;29-41;20-51,2,SimpleHill,14-69,66,31,selected,39-64,43-60;34-70;39-66;40-61;43-62;34-65,43-62,2.41,96,3,708.718826872
GEMS219,2018_Apr_09_1537,Kramer,EG,orientation,8,6,10,27-67;14-69;29-41;20-51,2,SimpleHill,14-69,66,32,selected,43-62,48-63;45-65;38-56;41-65;37-65;49-66,37-65,2.03,92,-4,714.3193919
GEMS219,2018_Apr_09_1537,Kramer,EG,orientation,8,6,10,27-67;14-69;29-41;20-51,2,SimpleHill,14-69,66,33,selected,37-65,35-70;36-60;33-66;40-66;40-70;32-67,33-66,1.37,89,-3,719.263181026
GEMS219,2018_Apr_09_1537,Kramer,EG,orientation,8,6,10,27-67;14-69;29-41;20-51,2,SimpleHill,14-69,66,34,selected,33-66,35-64;31-61;39-65;27-62;30-70;32-64,39-65,1.51,93,4,724.357158062
GEMS219,2018_Apr_09_1537,Kramer,EG,orientation,8,6,10,27-67;14-69;29-41;20-51,2,SimpleHill,14-69,66,35,selected,39-65,38-61;46-62;43-66;44-60;45-62;45-63,45-63,2.17,96,3,730.084077202
GEMS219,2018_Apr_09_1537,Kramer,EG,orientation,8,6,10,27-67;14-69;29-41;20-51,2,SimpleHill,14-69,66,36,selected,45-63,43-69;48-67;45-62;43-70;45-70;41-57,43-69,2.52,91,-5,736.163583478
GEMS219,2018_Apr_09_1537,Kramer,EG,orientation,8,6,10,27-67;14-69;29-41;20-51,2,SimpleHill,14-69,66,37,selected,43-69,44-62;46-65;41-70;47-66;44-70;43-64,44-70,1.45,91,0,741.168557722
GEMS219,2018_Apr_09_1537,Kramer,EG,orientation,8,6,10,27-67;14-69;29-41;20-51,2,SimpleHill,14-69,66,38,selected,44-70,48-69;44-68;38-69;44-66;40-65;37-68,37-68,1.88,90,-1,746.623153664
GEMS219,2018_Apr_09_1537,Kramer,EG,orientation,8,6,10,27-67;14-69;29-41;20-51,2,SimpleHill,14-69,66,39,selected,37-68,42-63;30-69;29-68;36-66;38-63;38-69,30-69,1.34,84,-6,751.540258565
GEMS219,2018_Apr_09_1537,Kramer,EG,orientation,8,6,10,27-67;14-69;29-41;20-51,3,SimpleHill,29-41,89,0,selected,29-41,33-35;31-42;35-46;29-41;32-38;36-39,35-46,1.61,95,6,765.3679724
GEMS219,2018_Apr_09_1537,Kramer,EG,orientation,8,6,10,27-67;14-69;29-41;20-51,3,SimpleHill,29-41,89,1,selected,35-46,33-41;31-47;38-40;29-47;34-51;41-48,31-47,1.84,92,-3,770.779405735
GEMS219,2018_Apr_09_1537,Kramer,EG,orientation,8,6,10,27-67;14-69;29-41;20-51,3,SimpleHill,29-41,89,2,selected,31-47,30-46;24-45;28-53;28-49;33-48;32-50,30-46,0.92,91,-1,775.262012366
GEMS219,2018_Apr_09_1537,Kramer,EG,orientation,8,6,10,27-67;14-69;29-41;20-51,3,SimpleHill,29-41,89,3,selected,30-46,33-47;26-48;25-51;37-49;36-49;33-44,36-49,0.57,96,5,779.398990683
GEMS219,2018_Apr_09_1537,Kramer,EG,orientation,8,6,10,27-67;14-69;29-41;20-51,3,SimpleHill,29-41,89,4,selected,36-49,40-48;33-48;29-49;34-46;35-48;36-47,34-46,1.5,94,-2,784.459742396
GEMS219,2018_Apr_09_1537,Kramer,EG,orientation,8,6,10,27-67;14-69;29-41;20-51,3,SimpleHill,29-41,89,5,selected,34-46,36-51;29-50;39-41;36-53;31-40;37-48,29-50,0.46,91,-3,788.482440503
GEMS219,2018_Apr_09_1537,Kramer,EG,orientation,8,6,10,27-67;14-69;29-41;20-51,3,SimpleHill,29-41,89,6,selected,29-50,34-54;33-47;26-55;35-49;28-49;36-53,26-55,1.09,87,-4,793.145093312
GEMS219,2018_Apr_09_1537,Kramer,EG,orientation,8,6,10,27-67;14-69;29-41;20-51,3,SimpleHill,29-41,89,7,selected,26-55,30-61;29-59;27-59;23-58;29-58;23-53,30-61,1.44,89,2,798.147288189
GEMS219,2018_Apr_09_1537,Kramer,EG,orientation,8,6,10,27-67;14-69;29-41;20-51,3,SimpleHill,29-41,89,8,selected,30-61,34-61;37-63;25-67;27-61;24-56;36-64,34-61,1.06,92,3,802.758213024
GEMS219,2018_Apr_09_1537,Kramer,EG,orientation,8,6,10,27-67;14-69;29-41;20-51,3,SimpleHill,29-41,89,9,selected,34-61,38-63;32-54;31-67;40-62;37-65;35-66,38-63,0.7,93,1,807.020669679
GEMS219,2018_Apr_09_1537,Kramer,EG,orientation,8,6,10,27-67;14-69;29-41;20-51,3,SimpleHill,29-41,89,10,selected,38-63,41-59;41-63;42-64;33-65;34-62;37-69,41-63,1.51,95,2,812.105277596
GEMS219,2018_Apr_09_1537,Kramer,EG,orientation,8,6,10,27-67;14-69;29-41;20-51,3,SimpleHill,29-41,89,11,selected,41-63,40-69;37-67;43-57;46-68;41-62;47-66,46-68,1.95,93,-2,817.632359856
GEMS219,2018_Apr_09_1537,Kramer,EG,orientation,8,6,10,27-67;14-69;29-41;20-51,3,SimpleHill,29-41,89,12,selected,46-68,40-65;50-65;45-61;48-68;53-70;48-62,48-62,1.7,97,4,822.890684432
GEMS219,2018_Apr_09_1537,Kramer,EG,orientation,8,6,10,27-67;14-69;29-41;20-51,3,SimpleHill,29-41,89,13,selected,48-62,54-61;50-65;48-68;54-66;54-58;42-66,54-61,2.2,97,0,828.677597306
GEMS219,2018_Apr_09_1537,Kramer,EG,orientation,8,6,10,27-67;14-69;29-41;20-51,3,SimpleHill,29-41,89,14,selected,54-61,50-58;52-65;49-65;55-55;55-54;54-60,50-58,1.09,98,1,833.322565941
GEMS219,2018_Apr_09_1537,Kramer,EG,orientation,8,6,10,27-67;14-69;29-41;20-51,3,SimpleHill,29-41,89,15,selected,50-58,43-59;42-58;45-62;54-58;51-53;43-58,43-59,1.51,97,-1,838.403247278
GEMS219,2018_Apr_09_1537,Kramer,EG,orientation,8,6,10,27-67;14-69;29-41;20-51,3,SimpleHill,29-41,89,16,selected,43-59,40-63;45-54;41-52;47-54;45-55;38-59,45-55,1.61,99,2,843.583554331
GEMS219,2018_Apr_09_1537,Kramer,EG,orientation,8,6,10,27-67;14-69;29-41;20-51,3,SimpleHill,29-41,89,17,selected,45-55,44-59;49-52;49-54;41-49;44-57;44-61,49-54,1.32,99,0,848.460224455
GEMS219,2018_Apr_09_1537,Kramer,EG,orientation,8,6,10,27-67;14-69;29-41;20-51,3,SimpleHill,29-41,89,18,selected,49-54,52-58;55-58;52-47;50-59;44-52;52-60,50-59,1.92,98,-1,853.952258143
GEMS219,2018_Apr_09_1537,Kramer,EG,orientation,8,6,10,27-67;14-69;29-41;20-51,3,SimpleHill,29-41,89,19,selected,50-59,57-56;45-62;50-53;51-59;44-62;49-64,50-53,0.63,99,1,858.155448957
GEMS219,2018_Apr_09_1537,Kramer,EG,orientation,8,6,10,27-67;14-69;29-41;20-51,3,SimpleHill,29-41,89,20,selected,50-53,55-52;51-60;55-56;49-55;54-59;44-54,54-59,1.11,98,-1,862.822172387
GEMS219,2018_Apr_09_1537,Kramer,EG,orientation,8,6,10,27-67;14-69;29-41;20-51,3,SimpleHill,29-41,89,21,selected,54-59,57-64;54-63;56-64;57-65;59-58;58-54,57-64,0.28,95,-3,866.677261848
GEMS219,2018_Apr_09_1537,Kramer,EG,orientation,8,6,10,27-67;14-69;29-41;20-51,3,SimpleHill,29-41,89,22,selected,57-64,52-59;55-62;61-68;56-67;62-65;63-68,63-68,0.27,90,-5,870.520317417
GEMS219,2018_Apr_09_1537,Kramer,EG,orientation,8,6,10,27-67;14-69;29-41;20-51,3,SimpleHill,29-41,89,23,selected,63-68,61-64;69-63;65-68;65-69;62-67;61-62,65-69,0.83,88,-2,874.930673959
GEMS219,2018_Apr_09_1537,Kramer,EG,orientation,8,6,10,27-67;14-69;29-41;20-51,3,SimpleHill,29-41,89,24,selected,65-69,65-63;70-68;70-70;59-68;63-67;57-69,65-63,0.62,92,4,879.120715356
GEMS219,2018_Apr_09_1537,Kramer,EG,orientation,8,6,10,27-67;14-69;29-41;20-51,3,SimpleHill,29-41,89,25,selected,65-63,61-63;64-61;59-68;67-60;59-62;62-61,61-63,1.37,94,2,884.064340274
GEMS219,2018_Apr_09_1537,Kramer,EG,orientation,8,6,10,27-67;14-69;29-41;20-51,3,SimpleHill,29-41,89,26,selected,61-63,57-57;53-63;63-56;60-63;61-59;55-67,57-57,0.7,98,4,888.340240511
GEMS219,2018_Apr_09_1537,Kramer,EG,orientation,8,6,10,27-67;14-69;29-41;20-51,3,SimpleHill,29-41,89,27,selected,57-57,59-56;61-52;51-55;57-63;64-57;56-50,59-56,1.25,97,-1,893.152158722
GEMS219,2018_Apr_09_1537,Kramer,EG,orientation,8,6,10,27-67;14-69;29-41;20-51,3,SimpleHill,29-41,89,28,selected,59-56,65-52;61-49;56-54;61-55;58-52;60-60,56-54,1.2,98,1,897.92285601
GEMS219,2018_Apr_09_1537,Kramer,EG,orientation,8,6,10,27-67;14-69;29-41;20-51,3,SimpleHill,29-41,89,29,selected,56-54,56-51;50-52;61-50;62-56;63-56;62-50,63-56,1.43,95,-3,902.916520411
GEMS219,2018_Apr_09_1537,Kramer,EG,orientation,8,6,10,27-67;14-69;29-41;20-51,3,SimpleHill,29-41,89,30,selected,63-56,67-62;59-51;64-58;63-62;69-53;69-57,67-62,1.12,91,-4,907.608385858
GEMS219,2018_Apr_09_1537,Kramer,EG,orientation,8,6,10,27-67;14-69;29-41;20-51,3,SimpleHill,29-41,89,31,selected,67-62,65-65;68-59;64-57;67-69;61-61;62-68,64-57,1.79,95,4,912.98167116
GEMS219,2018_Apr_09_1537,Kramer,EG,orientation,8,6,10,27-67;14-69;29-41;20-51,3,SimpleHill,29-41,89,32,selected,64-57,65-52;69-59;57-59;66-55;70-52;65-63,69-59,3.23,91,-4,919.790780236
GEMS219,2018_Apr_09_1537,Kramer,EG,orientation,8,6,10,27-67;14-69;29-41;20-51,3,SimpleHill,29-41,89,33,selected,69-59,67-55;66-56;70-64;70-59;62-58;66-59,70-64,2.08,88,-3,925.437888052
GEMS219,2018_Apr_09_1537,Kramer,EG,orientation,8,6,10,27-67;14-69;29-41;20-51,3,SimpleHill,29-41,89,34,selected,70-64,69-69;63-61;69-62;67-57;68-64;63-66,69-69,1.9,85,-3,930.92237523
GEMS219,2018_Apr_09_1537,Kramer,EG,orientation,8,6,10,27-67;14-69;29-41;20-51,3,SimpleHill,29-41,89,35,selected,69-69,68-68;63-69;70-68;65-69;65-68;62-68,65-69,0.88,88,3,935.37217458
GEMS219,2018_Apr_09_1537,Kramer,EG,orientation,8,6,10,27-67;14-69;29-41;20-51,3,SimpleHill,29-41,89,36,selected,65-69,62-68;61-65;58-70;60-68;69-66;69-70,60-68,2.13,91,3,941.073756767
GEMS219,2018_Apr_09_1537,Kramer,EG,orientation,8,6,10,27-67;14-69;29-41;20-51,3,SimpleHill,29-41,89,37,selected,60-68,57-68;56-63;54-69;56-66;63-62;65-64,56-63,0.96,95,4,945.604750243
GEMS219,2018_Apr_09_1537,Kramer,EG,orientation,8,6,10,27-67;14-69;29-41;20-51,3,SimpleHill,29-41,89,38,selected,56-63,55-67;58-61;60-57;60-60;55-59;61-58,55-67,1.24,93,-2,950.417493013
GEMS219,2018_Apr_09_1537,Kramer,EG,orientation,8,6,10,27-67;14-69;29-41;20-51,3,SimpleHill,29-41,89,39,selected,55-67,59-63;56-70;51-66;61-64;49-70;49-62,56-70,1.4,91,-2,955.387426367
GEMS219,2018_Apr_09_1537,Kramer,EG,orientation,8,6,10,27-67;14-69;29-41;20-51,4,SimpleHill,20-51,81,0,selected,20-51,19-55;18-55;16-53;19-51;15-52;15-46,16-53,1.9,76,-5,966.913888927
GEMS219,2018_Apr_09_1537,Kramer,EG,orientation,8,6,10,27-67;14-69;29-41;20-51,4,SimpleHill,20-51,81,1,selected,16-53,14-50;15-49;12-47;16-48;14-46;16-59,15-49,0.66,75,-1,971.143941618
GEMS219,2018_Apr_09_1537,Kramer,EG,orientation,8,6,10,27-67;14-69;29-41;20-51,4,SimpleHill,20-51,81,2,selected,15-49,12-50;9-53;14-42;13-53;18-51;17-44,14-42,0.99,72,-3,975.701402615
GEMS219,2018_Apr_09_1537,Kramer,EG,orientation,8,6,10,27-67;14-69;29-41;20-51,4,SimpleHill,20-51,81,3,selected,14-42,12-39;11-36;10-48;14-44;11-47;8-47,11-47,1.01,69,-3,980.285181011
GEMS219,2018_Apr_09_1537,Kramer,EG,orientation,8,6,10,27-67;14-69;29-41;20-51,4,SimpleHill,20-51,81,4,selected,11-47,9-46;18-46;15-44;3-47;14-50;11-55,15-44,0.91,74,5,984.753374179
GEMS219,2018_Apr_09_1537,Kramer,EG,orientation,8,6,10,27-67;14-69;29-41;20-51,4,SimpleHill,20-51,81,5,selected,15-44,15-50;12-43;17-39;20-38;9-39;19-44,17-39,1.55,75,1,989.884895872
GEMS219,2018_Apr_09_1537,Kramer,EG,orientation,8,6,10,27-67;14-69;29-41;20-51,4,SimpleHill,20-51,81,6,selected,17-39,15-42;18-46;24-42;17-40;10-40;19-40,10-40,0.77,66,-9,994.221765805
GEMS219,2018_Apr_09_1537,Kramer,EG,orientation,8,6,10,27-67;14-69;29-41;20-51,4,SimpleHill,20-51,81,7,selected,10-40,13-45;4-37;3-40;7-40;9-38;7-36,13-45,0.51,72,6,998.273389108
GEMS219,2018_Apr_09_1537,Kramer,EG,orientation,8,6,10,27-67;14-69;29-41;20-51,4,SimpleHill,20-51,81,8,selected,13-45,11-42;15-39;12-47;11-43;12-50;14-50,15-39,0.47,73,1,1002.32807858
GEMS219,2018_Apr_09_1537,Kramer,EG,orientation,8,6,10,27-67;14-69;29-41;20-51,4,SimpleHill,20-51,81,9,selected,15-39,18-33;12-46;14-33;15-47;22-40;9-36,12-46,0.57,70,-3,1006.48322889
GEMS219,2018_Apr_09_1537,Kramer,EG,orientation,8,6,10,27-67;14-69;29-41;20-51,4,SimpleHill,20-51,81,10,selected,12-46,14-52;12-53;11-42;8-50;5-45;7-48,8-50,0.36,64,-6,1010.41257351
GEMS219,2018_Apr_09_1537,Kramer,EG,orientation,8,6,10,27-67;14-69;29-41;20-51,4,SimpleHill,20-51,81,11,selected,8-50,10-45;11-50;3-48;14-48;2-45;14-49,3-48,0.28,55,-9,1014.26479814
GEMS219,2018_Apr_09_1537,Kramer,EG,orientation,8,6,10,27-67;14-69;29-41;20-51,4,SimpleHill,20-51,81,12,selected,3-48,6-50;5-41;2-46;1-43;5-53;7-54,5-41,0.57,57,2,1018.41536119
GEMS219,2018_Apr_09_1537,Kramer,EG,orientation,8,6,10,27-67;14-69;29-41;20-51,4,SimpleHill,20-51,81,13,selected,5-41,5-47;8-45;1-44;7-35;3-42;0-40,5-47,0.33,59,2,1022.29932015
GEMS219,2018_Apr_09_1537,Kramer,EG,orientation,8,6,10,27-67;14-69;29-41;20-51,4,SimpleHill,20-51,81,14,selected,5-47,6-41;0-49;10-48;12-49;3-49;9-42,9-42,0.21,65,6,1026.08153823
GEMS219,2018_Apr_09_1537,Kramer,EG,orientation,8,6,10,27-67;14-69;29-41;20-51,4,SimpleHill,20-51,81,15,selected,9-42,14-47;15-43;10-37;3-37;4-36;8-35,4-36,0.31,53,-12,1029.95529614
GEMS219,2018_Apr_09_1537,Kramer,EG,orientation,8,6,10,27-67;14-69;29-41;20-51,4,SimpleHill,20-51,81,16,selected,4-36,10-33;8-37;6-29;6-36;2-35;8-41,6-36,0.48,57,4,1034.00135303
GEMS219,2018_Apr_09_1537,Kramer,EG,orientation,8,6,10,27-67;14-69;29-41;20-51,4,SimpleHill,20-51,81,17,selected,6-36,6-38;5-38;8-43;9-39;7-37;7-41,8-43,0.21,63,6,1037.78345427
GEMS219,2018_Apr_09_1537,Kramer,EG,orientation,8,6,10,27-67;14-69;29-41;20-51,4,SimpleHill,20-51,81,18,selected,8-43,11-50;11-36;3-40;14-40;13-38;13-37,11-36,0.42,65,2,1041.76018736
GEMS219,2018_Apr_09_1537,Kramer,EG,orientation,8,6,10,27-67;14-69;29-41;20-51,4,SimpleHill,20-51,81,19,selected,11-36,8-39;9-42;6-38;4-36;6-35;14-36,8-39,0.33,62,-3,1045.67076332
GEMS219,2018_Apr_09_1537,Kramer,EG,orientation,8,6,10,27-67;14-69;29-41;20-51,4,SimpleHill,20-51,81,20,selected,8-39,12-42;8-41;4-36;4-39;3-45;13-40,13-40,0.39,70,8,1049.64816924
GEMS219,2018_Apr_09_1537,Kramer,EG,orientation,8,6,10,27-67;14-69;29-41;20-51,4,SimpleHill,20-51,81,21,selected,13-40,12-46;16-35;11-36;15-36;7-37;11-38,7-37,0.46,59,-11,1053.67435604
GEMS219,2018_Apr_09_1537,Kramer,EG,orientation,8,6,10,27-67;14-69;29-41;20-51,4,SimpleHill,20-51,81,22,selected,7-37,1-37;1-41;11-33;5-43;6-38;7-40,5-43,0.22,58,-1,1057.47049688
GEMS219,2018_Apr_09_1537,Kramer,EG,orientation,8,6,10,27-67;14-69;29-41;20-51,4,SimpleHill,20-51,81,23,selected,5-43,8-37;2-37;6-46;2-38;12-43;4-42,6-46,0.18,60,2,1061.22784693
GEMS219,2018_Apr_09_1537,Kramer,EG,orientation,8,6,10,27-67;14-69;29-41;20-51,4,SimpleHill,20-51,81,24,selected,6-46,5-53;8-44;8-50;7-50;13-47;6-50,8-44,0.01,64,4,1064.79807355
GEMS219,2018_Apr_09_1537,Kramer,EG,orientation,8,6,10,27-67;14-69;29-41;20-51,4,SimpleHill,20-51,81,25,selected,8-44,5-45;7-45;8-48;7-37;14-44;8-36,5-45,0.27,59,-5,1068.61565709
GEMS219,2018_Apr_09_1537,Kramer,EG,orientation,8,6,10,27-67;14-69;29-41;20-51,4,SimpleHill,20-51,81,26,selected,5-45,5-49;9-41;0-39;9-48;3-38;2-44,2-44,0.22,53,-6,1072.41634292
GEMS219,2018_Apr_09_1537,Kramer,EG,orientation,8,6,10,27-67;14-69;29-41;20-51,4,SimpleHill,20-51,81,27,selected,2-44,6-40;6-41;1-50;7-48;2-52;6-46,2-52,0.27,53,0,1076.27352003
GEMS219,2018_Apr_09_1537,Kramer,EG,orientation,8,6,10,27-67;14-69;29-41;20-51,4,SimpleHill,20-51,81,28,selected,2-52,0-54;5-53;1-58;5-55;3-53;10-52,5-55,0.41,59,6,1080.25273479
GEMS219,2018_Apr_09_1537,Kramer,EG,orientation,8,6,10,27-67;14-69;29-41;20-51,4,SimpleHill,20-51,81,29,selected,5-55,10-58;6-57;2-52;0-60;11-55;3-58,2-52,1.04,53,-6,1084.86302008
GEMS219,2018_Apr_09_1537,Kramer,EG,orientation,8,6,10,27-67;14-69;29-41;20-51,4,SimpleHill,20-51,81,30,selected,2-52,1-47;2-50;2-55;7-48;4-58;1-56,2-50,0.35,53,0,1088.79406215
GEMS219,2018_Apr_09_1537,Kramer,EG,orientation,8,6,10,27-67;14-69;29-41;20-51,4,SimpleHill,20-51,81,31,selected,2-50,8-49;5-43;7-56;3-47;3-55;0-57,8-49,0.25,64,11,1092.62194371
GEMS219,2018_Apr_09_1537,Kramer,EG,orientation,8,6,10,27-67;14-69;29-41;20-51,4,SimpleHill,20-51,81,32,selected,8-49,12-45;11-52;12-50;8-57;11-43;11-42,11-42,0.26,68,4,1096.4372882
GEMS219,2018_Apr_09_1537,Kramer,EG,orientation,8,6,10,27-67;14-69;29-41;20-51,4,SimpleHill,20-51,81,33,selected,11-42,18-42;13-49;10-39;11-42;17-43;11-48,17-43,0.3,77,9,1100.29119236
GEMS219,2018_Apr_09_1537,Kramer,EG,orientation,8,6,10,27-67;14-69;29-41;20-51,4,SimpleHill,20-51,81,34,selected,17-43,16-45;15-38;14-47;12-40;18-47;18-49,12-40,0.36,69,-8,1104.22826401
GEMS219,2018_Apr_09_1537,Kramer,EG,orientation,8,6,10,27-67;14-69;29-41;20-51,4,SimpleHill,20-51,81,35,selected,12-40,5-41;15-36;8-37;13-38;12-35;17-43,8-37,0.24,61,-8,1108.03985637
GEMS219,2018_Apr_09_1537,Kramer,EG,orientation,8,6,10,27-67;14-69;29-41;20-51,4,SimpleHill,20-51,81,36,selected,8-37,6-39;12-42;4-38;15-37;11-39;4-33,12-42,0.19,69,8,1111.79600895
GEMS219,2018_Apr_09_1537,Kramer,EG,orientation,8,6,10,27-67;14-69;29-41;20-51,4,SimpleHill,20-51,81,37,selected,12-42,14-36;16-38;7-36;12-41;9-42;15-48,14-36,0.63,70,1,1116.01245417
GEMS219,2018_Apr_09_1537,Kramer,EG,orientation,8,6,10,27-67;14-69;29-41;20-51,4,SimpleHill,20-51,81,38,selected,14-36,17-39;12-29;11-29;15-31;7-35;16-43,16-43,0.23,75,5,1119.81237786
GEMS219,2018_Apr_09_1537,Kramer,EG,orientation,8,6,10,27-67;14-69;29-41;20-51,4,SimpleHill,20-51,81,39,selected,16-43,19-42;12-47;15-45;22-44;13-49;21-47,13-49,0.32,72,-3,1123.69614573
