subj_id,date,computer,experimenter,version,generation,inherit_from,sight_radius,n_gabors,block_ix,landscape_name,starting_pos,starting_score,trial,pos,stims,selected,rt,score,delta,exp_time,landscape_ix
GEMS240,2018_Oct_31_1144,Elaine,AG,1.4,2,GEMS215,10,6,1,SimpleHill,0-0,1,0,0-0,7-4;1-9;2-9;5-0;6-2;7-3,1-9,6.46,19,18,123.566943984,1
GEMS240,2018_Oct_31_1144,Elaine,AG,1.4,2,GEMS215,10,6,1,SimpleHill,0-0,1,1,1-9,7-8;9-13;1-6;1-4;5-4;3-1,9-13,6.49,40,21,134.162991418,1
GEMS240,2018_Oct_31_1144,Elaine,AG,1.4,2,GEMS215,10,6,1,SimpleHill,0-0,1,2,9-13,11-15;13-5;6-13;1-18;4-12;6-16,11-15,10.78,46,6,149.024359359,1
GEMS240,2018_Oct_31_1144,Elaine,AG,1.4,2,GEMS215,10,6,1,SimpleHill,0-0,1,3,11-15,7-22;16-23;11-13;3-9;18-12;17-11,7-22,6.69,48,2,159.788802973,1
GEMS240,2018_Oct_31_1144,Elaine,AG,1.4,2,GEMS215,10,6,1,SimpleHill,0-0,1,4,7-22,10-16;14-19;13-30;6-22;8-16;4-24,13-30,2.08,65,17,165.935648925,1
GEMS240,2018_Oct_31_1144,Elaine,AG,1.4,2,GEMS215,10,6,1,SimpleHill,0-0,1,5,13-30,11-34;11-36;16-31;15-25;4-33;14-32,14-32,5.92,68,3,175.931448351,1
GEMS240,2018_Oct_31_1144,Elaine,AG,1.4,2,GEMS215,10,6,1,SimpleHill,0-0,1,6,14-32,10-28;23-36;8-29;10-33;18-33;14-23,18-33,2.82,74,6,182.82886735,1
GEMS240,2018_Oct_31_1144,Elaine,AG,1.4,2,GEMS215,10,6,1,SimpleHill,0-0,1,7,18-33,19-32;18-33;13-26;16-33;22-40;11-29,13-26,2.65,62,-12,189.548465044,1
GEMS240,2018_Oct_31_1144,Elaine,AG,1.4,2,GEMS215,10,6,1,SimpleHill,0-0,1,8,13-26,14-24;4-30;14-22;18-23;15-22;14-29,14-29,3.25,66,4,196.877563981,1
GEMS240,2018_Oct_31_1144,Elaine,AG,1.4,2,GEMS215,10,6,1,SimpleHill,0-0,1,9,14-29,18-34;17-37;19-25;17-25;10-29;21-26,17-37,7.35,75,9,208.317083305,1
GEMS240,2018_Oct_31_1144,Elaine,AG,1.4,2,GEMS215,10,6,1,SimpleHill,0-0,1,10,17-37,17-41;16-33;9-38;27-37;20-45;9-34,20-45,4.37,82,7,216.774893994,1
GEMS240,2018_Oct_31_1144,Elaine,AG,1.4,2,GEMS215,10,6,1,SimpleHill,0-0,1,11,20-45,20-42;28-44;14-38;21-53;23-50;24-50,23-50,4.66,86,4,225.508697393,1
GEMS240,2018_Oct_31_1144,Elaine,AG,1.4,2,GEMS215,10,6,1,SimpleHill,0-0,1,12,23-50,27-56;21-48;16-54;28-51;15-56;28-54,16-54,11.61,77,-9,241.200939984,1
GEMS240,2018_Oct_31_1144,Elaine,AG,1.4,2,GEMS215,10,6,1,SimpleHill,0-0,1,13,16-54,16-46;19-60;24-55;21-54;11-61;18-50,11-61,5.37,68,-9,250.6445184,1
GEMS240,2018_Oct_31_1144,Elaine,AG,1.4,2,GEMS215,10,6,1,SimpleHill,0-0,1,14,11-61,17-62;8-67;14-58;5-68;14-59;19-59,5-68,12.27,54,-14,266.969696524,1
GEMS240,2018_Oct_31_1144,Elaine,AG,1.4,2,GEMS215,10,6,1,SimpleHill,0-0,1,15,5-68,12-68;11-66;2-59;5-64;8-65;6-61,8-65,4.86,61,7,275.911019728,1
GEMS240,2018_Oct_31_1144,Elaine,AG,1.4,2,GEMS215,10,6,1,SimpleHill,0-0,1,16,8-65,3-66;1-65;9-64;7-66;5-59;6-60,3-66,6.2,51,-10,286.189235482,1
GEMS240,2018_Oct_31_1144,Elaine,AG,1.4,2,GEMS215,10,6,1,SimpleHill,0-0,1,17,3-66,4-66;9-70;5-63;1-60;4-59;3-58,1-60,2.49,50,-1,292.745599129,1
GEMS240,2018_Oct_31_1144,Elaine,AG,1.4,2,GEMS215,10,6,1,SimpleHill,0-0,1,18,1-60,7-56;4-65;0-69;1-57;7-65;4-69,1-57,2.2,52,2,299.016289827,1
GEMS240,2018_Oct_31_1144,Elaine,AG,1.4,2,GEMS215,10,6,1,SimpleHill,0-0,1,19,1-57,6-54;0-62;5-63;9-62;8-61;2-59,6-54,4.95,61,9,308.057286954,1
GEMS240,2018_Oct_31_1144,Elaine,AG,1.4,2,GEMS215,10,6,1,SimpleHill,0-0,1,20,6-54,12-47;4-60;6-49;11-53;9-55;8-47,12-47,4.25,71,10,316.364275821,1
GEMS240,2018_Oct_31_1144,Elaine,AG,1.4,2,GEMS215,10,6,1,SimpleHill,0-0,1,21,12-47,16-52;14-54;8-42;11-52;9-49;19-48,8-42,2.85,64,-7,323.270102049,1
GEMS240,2018_Oct_31_1144,Elaine,AG,1.4,2,GEMS215,10,6,1,SimpleHill,0-0,1,22,8-42,5-49;12-39;15-35;11-40;4-35;10-47,4-35,4.24,54,-10,331.578570064,1
GEMS240,2018_Oct_31_1144,Elaine,AG,1.4,2,GEMS215,10,6,1,SimpleHill,0-0,1,23,4-35,9-39;0-40;1-31;10-35;0-28;0-29,0-29,3.33,42,-12,338.97619088,1
GEMS240,2018_Oct_31_1144,Elaine,AG,1.4,2,GEMS215,10,6,1,SimpleHill,0-0,1,24,0-29,5-36;9-29;5-33;3-20;2-38;1-29,2-38,6.12,52,10,349.165499663,1
GEMS240,2018_Oct_31_1144,Elaine,AG,1.4,2,GEMS215,10,6,1,SimpleHill,0-0,1,25,2-38,2-47;2-32;1-34;3-29;10-35;2-36,2-47,11.86,54,2,365.101423547,1
GEMS240,2018_Oct_31_1144,Elaine,AG,1.4,2,GEMS215,10,6,1,SimpleHill,0-0,1,26,2-47,10-46;10-42;2-55;1-46;5-46;7-49,2-55,1.95,54,0,371.116435885,1
GEMS240,2018_Oct_31_1144,Elaine,AG,1.4,2,GEMS215,10,6,1,SimpleHill,0-0,1,27,2-55,0-51;5-47;7-60;1-60;1-47;1-48,1-48,10.41,52,-2,385.593043366,1
GEMS240,2018_Oct_31_1144,Elaine,AG,1.4,2,GEMS215,10,6,1,SimpleHill,0-0,1,28,1-48,2-49;7-56;10-47;9-50;0-52;2-48,7-56,24.07,63,11,413.718189928,1
GEMS240,2018_Oct_31_1144,Elaine,AG,1.4,2,GEMS215,10,6,1,SimpleHill,0-0,1,29,7-56,9-64;13-49;12-50;13-56;13-61;5-49,13-61,10.67,71,8,428.455775221,1
GEMS240,2018_Oct_31_1144,Elaine,AG,1.4,2,GEMS215,10,6,1,SimpleHill,0-0,1,30,13-61,13-68;10-54;19-54;11-58;22-59;15-61,13-68,4.88,67,-4,437.3993618,1
GEMS240,2018_Oct_31_1144,Elaine,AG,1.4,2,GEMS215,10,6,1,SimpleHill,0-0,1,31,13-68,19-68;6-70;6-63;10-66;4-66;16-65,6-63,14.0,58,-9,455.461346111,1
GEMS240,2018_Oct_31_1144,Elaine,AG,1.4,2,GEMS215,10,6,1,SimpleHill,0-0,1,32,6-63,14-60;6-58;5-63;11-66;2-70;0-57,2-70,6.16,46,-12,465.701483981,1
GEMS240,2018_Oct_31_1144,Elaine,AG,1.4,2,GEMS215,10,6,1,SimpleHill,0-0,1,33,2-70,6-69;7-64;6-64;4-62;4-67;3-68,3-68,22.63,50,4,492.383048926,1
GEMS240,2018_Oct_31_1144,Elaine,AG,1.4,2,GEMS215,10,6,1,SimpleHill,0-0,1,34,3-68,8-67;0-63;3-58;3-70;1-70;7-62,8-67,4.66,59,9,501.107749535,1
GEMS240,2018_Oct_31_1144,Elaine,AG,1.4,2,GEMS215,10,6,1,SimpleHill,0-0,1,35,8-67,6-67;0-62;16-67;6-69;15-70;1-66,6-67,8.98,56,-3,514.164108541,1
GEMS240,2018_Oct_31_1144,Elaine,AG,1.4,2,GEMS215,10,6,1,SimpleHill,0-0,1,36,6-67,0-70;3-59;11-69;5-69;9-68;2-59,9-68,21.27,60,4,539.508485492,1
GEMS240,2018_Oct_31_1144,Elaine,AG,1.4,2,GEMS215,10,6,1,SimpleHill,0-0,1,37,9-68,7-66;16-68;13-59;1-70;17-66;12-69,16-68,5.76,71,11,549.334171122,1
GEMS240,2018_Oct_31_1144,Elaine,AG,1.4,2,GEMS215,10,6,1,SimpleHill,0-0,1,38,16-68,9-66;14-65;16-61;21-66;15-69;17-62,21-66,10.92,79,8,564.326844525,1
GEMS240,2018_Oct_31_1144,Elaine,AG,1.4,2,GEMS215,10,6,1,SimpleHill,0-0,1,39,21-66,28-63;30-67;16-61;20-69;12-65;29-61,12-65,6.56,67,-12,574.962187794,1
GEMS240,2018_Oct_31_1144,Elaine,AG,1.4,2,GEMS215,10,6,1,SimpleHill,0-0,1,40,12-65,11-56;20-59;6-59;9-64;9-66;18-63,9-64,20.33,63,-4,599.353540559,1
GEMS240,2018_Oct_31_1144,Elaine,AG,1.4,2,GEMS215,10,6,1,SimpleHill,0-0,1,41,9-64,8-57;14-61;6-63;4-69;10-60;7-60,4-69,11.23,51,-12,614.661699685,1
GEMS240,2018_Oct_31_1144,Elaine,AG,1.4,2,GEMS215,10,6,1,SimpleHill,0-0,1,42,4-69,10-70;8-68;8-67;2-63;3-68;7-62,10-70,25.25,61,10,643.97491051,1
GEMS240,2018_Oct_31_1144,Elaine,AG,1.4,2,GEMS215,10,6,1,SimpleHill,0-0,1,43,10-70,11-69;7-68;3-70;13-68;12-62;2-68,3-70,4.12,48,-13,652.173938581,1
GEMS240,2018_Oct_31_1144,Elaine,AG,1.4,2,GEMS215,10,6,1,SimpleHill,0-0,1,44,3-70,12-68;10-68;4-67;0-66;3-67;6-64,0-66,23.36,45,-3,679.606248462,1
GEMS240,2018_Oct_31_1144,Elaine,AG,1.4,2,GEMS215,10,6,1,SimpleHill,0-0,1,45,0-66,1-70;4-61;2-65;2-69;8-66;9-69,8-66,5.35,60,15,689.015753992,1
GEMS240,2018_Oct_31_1144,Elaine,AG,1.4,2,GEMS215,10,6,1,SimpleHill,0-0,1,46,8-66,8-64;14-66;10-63;15-60;4-69;12-58,15-60,4.96,74,14,698.039224454,1
GEMS240,2018_Oct_31_1144,Elaine,AG,1.4,2,GEMS215,10,6,1,SimpleHill,0-0,1,47,15-60,13-69;23-64;19-66;15-62;21-57;9-55,19-66,5.14,76,2,707.253056803,1
GEMS240,2018_Oct_31_1144,Elaine,AG,1.4,2,GEMS215,10,6,1,SimpleHill,0-0,1,48,19-66,17-60;14-63;24-63;18-61;27-66;26-61,27-66,9.75,85,9,721.069859227,1
GEMS240,2018_Oct_31_1144,Elaine,AG,1.4,2,GEMS215,10,6,1,SimpleHill,0-0,1,49,27-66,23-58;19-69;30-61;22-58;32-63;19-64,19-69,12.55,74,-11,737.69895461,1
GEMS240,2018_Oct_31_1144,Elaine,AG,1.4,2,GEMS215,10,6,1,SimpleHill,0-0,1,50,19-69,16-68;16-62;13-66;14-64;19-66;25-61,14-64,9.58,71,-3,751.344640067,1
GEMS240,2018_Oct_31_1144,Elaine,AG,1.4,2,GEMS215,10,6,1,SimpleHill,0-0,1,51,14-64,10-55;20-64;13-67;15-65;7-57;5-68,15-65,4.06,72,1,759.469592654,1
GEMS240,2018_Oct_31_1144,Elaine,AG,1.4,2,GEMS215,10,6,1,SimpleHill,0-0,1,52,15-65,24-62;21-61;17-62;15-58;11-69;19-66,15-58,14.08,75,3,777.609399772,1
GEMS240,2018_Oct_31_1144,Elaine,AG,1.4,2,GEMS215,10,6,1,SimpleHill,0-0,1,53,15-58,21-56;15-62;14-64;9-57;12-63;15-48,15-48,4.21,76,1,785.942539556,1
GEMS240,2018_Oct_31_1144,Elaine,AG,1.4,2,GEMS215,10,6,1,SimpleHill,0-0,1,54,15-48,10-44;7-52;15-42;9-55;21-50;20-42,15-42,8.54,75,-1,798.566334528,1
GEMS240,2018_Oct_31_1144,Elaine,AG,1.4,2,GEMS215,10,6,1,SimpleHill,0-0,1,55,15-42,12-45;17-42;11-36;14-33;13-50;17-36,11-36,27.12,66,-9,829.768052337,1
GEMS240,2018_Oct_31_1144,Elaine,AG,1.4,2,GEMS215,10,6,1,SimpleHill,0-0,1,56,11-36,5-34;3-41;7-35;12-36;9-36;5-41,5-41,1.97,58,-8,835.81350451,1
GEMS240,2018_Oct_31_1144,Elaine,AG,1.4,2,GEMS215,10,6,1,SimpleHill,0-0,1,57,5-41,2-40;0-49;6-33;0-33;12-35;12-44,0-49,1.48,50,-8,841.357962957,1
GEMS240,2018_Oct_31_1144,Elaine,AG,1.4,2,GEMS215,10,6,1,SimpleHill,0-0,1,58,0-49,1-56;4-46;5-49;0-55;3-48;4-41,0-55,3.22,50,0,848.646038199,1
GEMS240,2018_Oct_31_1144,Elaine,AG,1.4,2,GEMS215,10,6,1,SimpleHill,0-0,1,59,0-55,3-52;3-55;0-58;5-47;2-64;8-51,2-64,3.42,51,1,856.132086168,1
GEMS240,2018_Oct_31_1144,Elaine,AG,1.4,2,GEMS215,10,6,1,SimpleHill,0-0,1,60,2-64,3-68;10-64;10-67;2-63;5-60;2-65,3-68,6.39,50,-1,866.595486632,1
GEMS240,2018_Oct_31_1144,Elaine,AG,1.4,2,GEMS215,10,6,1,SimpleHill,0-0,1,61,3-68,1-70;3-60;3-70;8-61;1-60;10-66,3-70,3.29,48,-2,873.973027726,1
GEMS240,2018_Oct_31_1144,Elaine,AG,1.4,2,GEMS215,10,6,1,SimpleHill,0-0,1,62,3-70,0-69;10-69;11-65;5-64;3-64;11-70,11-70,3.96,62,14,881.994435832,1
GEMS240,2018_Oct_31_1144,Elaine,AG,1.4,2,GEMS215,10,6,1,SimpleHill,0-0,1,63,11-70,4-63;6-67;13-69;12-64;10-63;21-70,21-70,3.37,76,14,889.442818517,1
GEMS240,2018_Oct_31_1144,Elaine,AG,1.4,2,GEMS215,10,6,1,SimpleHill,0-0,1,64,21-70,20-68;24-61;25-68;14-63;30-66;20-65,20-65,2.73,78,2,896.238692653,1
GEMS240,2018_Oct_31_1144,Elaine,AG,1.4,2,GEMS215,10,6,1,SimpleHill,0-0,1,65,20-65,26-62;27-64;26-69;21-69;23-64;25-68,21-69,6.04,76,-2,906.36080954,1
GEMS240,2018_Oct_31_1144,Elaine,AG,1.4,2,GEMS215,10,6,1,SimpleHill,0-0,1,66,21-69,17-62;19-66;20-70;14-66;28-64;17-63,20-70,3.73,75,-1,914.17109552,1
GEMS240,2018_Oct_31_1144,Elaine,AG,1.4,2,GEMS215,10,6,1,SimpleHill,0-0,1,67,20-70,24-70;18-67;18-62;30-70;21-61;13-70,21-61,2.98,81,6,921.22664053,1
GEMS240,2018_Oct_31_1144,Elaine,AG,1.4,2,GEMS215,10,6,1,SimpleHill,0-0,1,68,21-61,11-61;26-64;30-57;16-65;22-59;23-58,30-57,7.74,92,11,933.041410686,1
GEMS240,2018_Oct_31_1144,Elaine,AG,1.4,2,GEMS215,10,6,1,SimpleHill,0-0,1,69,30-57,33-56;37-56;24-63;39-53;38-53;27-55,24-63,29.78,84,-8,966.893102551,1
GEMS240,2018_Oct_31_1144,Elaine,AG,1.4,2,GEMS215,10,6,1,SimpleHill,0-0,1,70,24-63,20-66;24-68;25-61;30-56;22-69;24-67,24-67,2.32,81,-3,973.281646505,1
GEMS240,2018_Oct_31_1144,Elaine,AG,1.4,2,GEMS215,10,6,1,SimpleHill,0-0,1,71,24-67,18-66;19-62;30-62;17-70;31-61;24-66,24-66,3.92,82,1,981.268512469,1
GEMS240,2018_Oct_31_1144,Elaine,AG,1.4,2,GEMS215,10,6,1,SimpleHill,0-0,1,72,24-66,21-68;25-69;30-63;17-69;24-61;30-67,24-61,3.57,85,3,988.909422787,1
GEMS240,2018_Oct_31_1144,Elaine,AG,1.4,2,GEMS215,10,6,1,SimpleHill,0-0,1,73,24-61,19-61;30-69;31-64;28-67;27-62;20-70,20-70,5.14,75,-10,998.129458208,1
GEMS240,2018_Oct_31_1144,Elaine,AG,1.4,2,GEMS215,10,6,1,SimpleHill,0-0,1,74,20-70,13-66;18-66;17-65;12-70;21-64;29-67,12-70,6.77,64,-11,1008.97298195,1
GEMS240,2018_Oct_31_1144,Elaine,AG,1.4,2,GEMS215,10,6,1,SimpleHill,0-0,1,75,12-70,10-62;16-65;8-62;4-66;20-69;16-70,20-69,8.06,75,11,1021.1084483,1
GEMS240,2018_Oct_31_1144,Elaine,AG,1.4,2,GEMS215,10,6,1,SimpleHill,0-0,1,76,20-69,21-65;11-69;24-63;18-63;11-66;15-65,11-69,6.72,63,-12,1031.89278342,1
GEMS240,2018_Oct_31_1144,Elaine,AG,1.4,2,GEMS215,10,6,1,SimpleHill,0-0,1,77,11-69,14-69;17-67;17-66;12-63;15-62;8-62,14-69,6.78,67,4,1042.7477303,1
GEMS240,2018_Oct_31_1144,Elaine,AG,1.4,2,GEMS215,10,6,1,SimpleHill,0-0,1,78,14-69,8-66;22-69;17-66;5-66;18-63;8-61,22-69,5.95,78,11,1052.75528385,1
GEMS240,2018_Oct_31_1144,Elaine,AG,1.4,2,GEMS215,10,6,1,SimpleHill,0-0,1,79,22-69,23-63;13-70;20-68;18-69;30-70;29-68,20-68,14.9,76,-2,1071.73227624,1
GEMS240,2018_Oct_31_1144,Elaine,AG,1.4,2,GEMS215,10,6,2,SimpleHill,0-0,1,0,0-0,7-0;1-3;7-7;0-4;4-0;4-1,4-0,4.92,8,7,1142.87889076,1
GEMS240,2018_Oct_31_1144,Elaine,AG,1.4,2,GEMS215,10,6,2,SimpleHill,0-0,1,1,4-0,2-6;7-6;9-4;6-5;5-0;9-5,5-0,10.24,10,2,1157.20294184,1
GEMS240,2018_Oct_31_1144,Elaine,AG,1.4,2,GEMS215,10,6,2,SimpleHill,0-0,1,2,5-0,4-4;13-4;0-0;3-7;3-0;10-7,0-0,8.75,1,-9,1170.01412344,1
GEMS240,2018_Oct_31_1144,Elaine,AG,1.4,2,GEMS215,10,6,2,SimpleHill,0-0,1,3,0-0,1-3;5-1;4-7;7-1;2-8;5-3,2-8,6.06,19,18,1180.21428112,1
GEMS240,2018_Oct_31_1144,Elaine,AG,1.4,2,GEMS215,10,6,2,SimpleHill,0-0,1,4,2-8,4-8;4-0;5-16;5-2;9-9;2-18,2-18,3.9,34,15,1188.20032541,1
GEMS240,2018_Oct_31_1144,Elaine,AG,1.4,2,GEMS215,10,6,2,SimpleHill,0-0,1,5,2-18,5-9;1-18;9-12;0-9;10-24;1-23,1-23,1.61,38,4,1193.88409003,1
GEMS240,2018_Oct_31_1144,Elaine,AG,1.4,2,GEMS215,10,6,2,SimpleHill,0-0,1,6,1-23,3-15;2-26;4-17;11-23;7-27;2-17,7-27,4.62,53,15,1202.55707937,1
GEMS240,2018_Oct_31_1144,Elaine,AG,1.4,2,GEMS215,10,6,2,SimpleHill,0-0,1,7,7-27,12-21;10-19;13-19;10-24;8-30;4-18,8-30,1.32,57,4,1207.94329529,1
GEMS240,2018_Oct_31_1144,Elaine,AG,1.4,2,GEMS215,10,6,2,SimpleHill,0-0,1,8,8-30,2-32;4-36;9-31;7-28;8-33;5-30,8-33,6.08,59,2,1218.11033396,1
GEMS240,2018_Oct_31_1144,Elaine,AG,1.4,2,GEMS215,10,6,2,SimpleHill,0-0,1,9,8-33,12-24;3-40;5-40;8-30;14-29;10-27,12-24,3.79,58,-1,1225.94889115,1
GEMS240,2018_Oct_31_1144,Elaine,AG,1.4,2,GEMS215,10,6,2,SimpleHill,0-0,1,10,12-24,21-23;5-28;4-20;17-30;5-22;17-16,17-30,4.04,71,13,1234.06066745,1
GEMS240,2018_Oct_31_1144,Elaine,AG,1.4,2,GEMS215,10,6,2,SimpleHill,0-0,1,11,17-30,19-28;26-28;16-25;20-31;22-24;14-37,14-37,3.02,71,0,1241.14489723,1
GEMS240,2018_Oct_31_1144,Elaine,AG,1.4,2,GEMS215,10,6,2,SimpleHill,0-0,1,12,14-37,10-33;5-37;12-41;6-40;12-33;20-36,6-40,4.35,60,-11,1249.56995189,1
GEMS240,2018_Oct_31_1144,Elaine,AG,1.4,2,GEMS215,10,6,2,SimpleHill,0-0,1,13,6-40,14-40;3-35;5-49;7-39;4-45;7-37,5-49,3.16,60,0,1256.79883339,1
GEMS240,2018_Oct_31_1144,Elaine,AG,1.4,2,GEMS215,10,6,2,SimpleHill,0-0,1,14,5-49,14-52;9-47;13-51;0-52;0-50;2-43,13-51,5.77,73,13,1266.62552955,1
GEMS240,2018_Oct_31_1144,Elaine,AG,1.4,2,GEMS215,10,6,2,SimpleHill,0-0,1,15,13-51,16-51;6-56;14-45;16-53;14-48;15-47,16-53,2.14,77,4,1272.84045182,1
GEMS240,2018_Oct_31_1144,Elaine,AG,1.4,2,GEMS215,10,6,2,SimpleHill,0-0,1,16,16-53,17-61;19-58;12-57;18-47;15-56;8-49,15-56,1.45,75,-2,1278.37177015,1
GEMS240,2018_Oct_31_1144,Elaine,AG,1.4,2,GEMS215,10,6,2,SimpleHill,0-0,1,17,15-56,18-51;22-58;7-58;17-49;15-49;13-53,7-58,1.48,62,-13,1283.91743278,1
GEMS240,2018_Oct_31_1144,Elaine,AG,1.4,2,GEMS215,10,6,2,SimpleHill,0-0,1,18,7-58,1-54;7-48;7-49;5-61;11-67;3-64,11-67,1.28,64,2,1289.25785019,1
GEMS240,2018_Oct_31_1144,Elaine,AG,1.4,2,GEMS215,10,6,2,SimpleHill,0-0,1,19,11-67,3-65;16-67;16-59;8-67;4-65;10-68,10-68,4.9,62,-2,1298.2395441,1
GEMS240,2018_Oct_31_1144,Elaine,AG,1.4,2,GEMS215,10,6,2,SimpleHill,0-0,1,20,10-68,4-66;2-64;1-65;7-70;16-61;13-62,7-70,2.17,56,-6,1304.49938238,1
GEMS240,2018_Oct_31_1144,Elaine,AG,1.4,2,GEMS215,10,6,2,SimpleHill,0-0,1,21,7-70,14-69;10-67;11-67;8-65;16-69;11-66,16-69,1.01,70,14,1309.57440438,1
GEMS240,2018_Oct_31_1144,Elaine,AG,1.4,2,GEMS215,10,6,2,SimpleHill,0-0,1,22,16-69,12-62;15-64;10-65;12-61;7-70;10-68,7-70,1.77,56,-14,1315.41396218,1
GEMS240,2018_Oct_31_1144,Elaine,AG,1.4,2,GEMS215,10,6,2,SimpleHill,0-0,1,23,7-70,8-63;1-67;0-69;7-70;5-64;10-66,5-64,0.91,56,0,1320.37567367,1
GEMS240,2018_Oct_31_1144,Elaine,AG,1.4,2,GEMS215,10,6,2,SimpleHill,0-0,1,24,5-64,9-55;5-57;9-69;1-58;8-60;7-59,8-60,0.33,63,7,1324.77793295,1
GEMS240,2018_Oct_31_1144,Elaine,AG,1.4,2,GEMS215,10,6,2,SimpleHill,0-0,1,25,8-60,5-53;7-60;9-59;16-58;7-57;13-56,7-57,0.26,63,0,1329.11418692,1
GEMS240,2018_Oct_31_1144,Elaine,AG,1.4,2,GEMS215,10,6,2,SimpleHill,0-0,1,26,7-57,3-50;7-54;6-55;7-57;10-64;6-50,10-64,0.3,65,2,1333.48753736,1
GEMS240,2018_Oct_31_1144,Elaine,AG,1.4,2,GEMS215,10,6,2,SimpleHill,0-0,1,27,10-64,5-70;5-68;14-63;16-61;13-60;19-64,13-60,0.26,71,6,1337.81262618,1
GEMS240,2018_Oct_31_1144,Elaine,AG,1.4,2,GEMS215,10,6,2,SimpleHill,0-0,1,28,13-60,7-53;3-60;10-63;9-53;16-59;16-69,16-59,0.39,76,5,1342.2771252,1
GEMS240,2018_Oct_31_1144,Elaine,AG,1.4,2,GEMS215,10,6,2,SimpleHill,0-0,1,29,16-59,20-59;18-57;21-60;8-59;22-62;16-50,22-62,0.26,82,6,1346.60871798,1
GEMS240,2018_Oct_31_1144,Elaine,AG,1.4,2,GEMS215,10,6,2,SimpleHill,0-0,1,30,22-62,22-53;29-55;17-59;12-62;20-62;30-56,20-62,0.39,80,-2,1351.0743959,1
GEMS240,2018_Oct_31_1144,Elaine,AG,1.4,2,GEMS215,10,6,2,SimpleHill,0-0,1,31,20-62,17-69;17-61;21-63;18-60;26-54;25-60,26-54,0.32,89,9,1355.46436682,1
GEMS240,2018_Oct_31_1144,Elaine,AG,1.4,2,GEMS215,10,6,2,SimpleHill,0-0,1,32,26-54,17-53;27-59;18-51;32-57;23-54;28-58,23-54,0.43,86,-3,1359.96535255,1
GEMS240,2018_Oct_31_1144,Elaine,AG,1.4,2,GEMS215,10,6,2,SimpleHill,0-0,1,33,23-54,28-58;18-51;28-57;24-55;29-58;30-57,30-57,0.37,92,6,1364.39662693,1
GEMS240,2018_Oct_31_1144,Elaine,AG,1.4,2,GEMS215,10,6,2,SimpleHill,0-0,1,34,30-57,22-53;23-58;33-62;34-58;38-51;30-55,30-55,0.33,92,0,1368.78558668,1
GEMS240,2018_Oct_31_1144,Elaine,AG,1.4,2,GEMS215,10,6,2,SimpleHill,0-0,1,35,30-55,33-56;32-48;39-58;31-63;38-50;26-49,26-49,0.41,89,-3,1373.26030018,1
GEMS240,2018_Oct_31_1144,Elaine,AG,1.4,2,GEMS215,10,6,2,SimpleHill,0-0,1,36,26-49,19-52;27-57;33-44;17-51;30-41;34-53,19-52,2.01,81,-8,1379.34484813,1
GEMS240,2018_Oct_31_1144,Elaine,AG,1.4,2,GEMS215,10,6,2,SimpleHill,0-0,1,37,19-52,26-57;26-59;18-57;15-44;23-48;20-50,26-57,0.23,88,7,1383.64460579,1
GEMS240,2018_Oct_31_1144,Elaine,AG,1.4,2,GEMS215,10,6,2,SimpleHill,0-0,1,38,26-57,18-51;29-65;19-50;20-54;24-49;23-50,18-51,0.58,80,-8,1388.28007965,1
GEMS240,2018_Oct_31_1144,Elaine,AG,1.4,2,GEMS215,10,6,2,SimpleHill,0-0,1,39,18-51,12-51;25-44;14-45;16-55;23-58;12-56,12-51,0.25,72,-8,1392.60114107,1
GEMS240,2018_Oct_31_1144,Elaine,AG,1.4,2,GEMS215,10,6,2,SimpleHill,0-0,1,40,12-51,4-49;10-53;21-47;14-54;17-54;5-44,17-54,0.46,78,6,1397.12927031,1
GEMS240,2018_Oct_31_1144,Elaine,AG,1.4,2,GEMS215,10,6,2,SimpleHill,0-0,1,41,17-54,26-53;9-59;14-53;12-58;11-58;18-47,11-58,0.8,69,-9,1402.00517334,1
GEMS240,2018_Oct_31_1144,Elaine,AG,1.4,2,GEMS215,10,6,2,SimpleHill,0-0,1,42,11-58,13-65;17-57;11-67;12-67;13-56;4-53,13-56,0.28,72,3,1406.35206397,1
GEMS240,2018_Oct_31_1144,Elaine,AG,1.4,2,GEMS215,10,6,2,SimpleHill,0-0,1,43,13-56,12-59;9-47;21-61;15-64;6-56;10-64,15-64,0.5,72,0,1410.93312852,1
GEMS240,2018_Oct_31_1144,Elaine,AG,1.4,2,GEMS215,10,6,2,SimpleHill,0-0,1,44,15-64,20-63;17-60;15-58;24-66;9-59;10-68,24-66,1.24,82,10,1416.23950089,1
GEMS240,2018_Oct_31_1144,Elaine,AG,1.4,2,GEMS215,10,6,2,SimpleHill,0-0,1,45,24-66,22-57;17-67;20-59;19-59;25-63;18-60,19-59,0.24,80,-2,1420.5497771,1
GEMS240,2018_Oct_31_1144,Elaine,AG,1.4,2,GEMS215,10,6,2,SimpleHill,0-0,1,46,19-59,17-62;26-59;15-61;27-54;22-60;22-61,27-54,0.27,90,10,1424.8858595,1
GEMS240,2018_Oct_31_1144,Elaine,AG,1.4,2,GEMS215,10,6,2,SimpleHill,0-0,1,47,27-54,18-52;26-51;33-55;20-49;23-53;22-51,20-49,0.27,82,-8,1429.23057479,1
GEMS240,2018_Oct_31_1144,Elaine,AG,1.4,2,GEMS215,10,6,2,SimpleHill,0-0,1,48,20-49,21-51;12-48;16-48;15-57;12-45;25-47,15-57,0.51,75,-7,1433.81222702,1
GEMS240,2018_Oct_31_1144,Elaine,AG,1.4,2,GEMS215,10,6,2,SimpleHill,0-0,1,49,15-57,19-52;14-65;16-62;15-58;15-49;8-59,16-62,0.89,75,0,1438.78923542,1
GEMS240,2018_Oct_31_1144,Elaine,AG,1.4,2,GEMS215,10,6,2,SimpleHill,0-0,1,50,16-62,15-59;10-69;24-68;14-63;9-69;19-69,19-69,1.08,74,-1,1443.94889179,1
GEMS240,2018_Oct_31_1144,Elaine,AG,1.4,2,GEMS215,10,6,2,SimpleHill,0-0,1,51,19-69,18-67;26-67;19-59;28-66;19-60;20-63,26-67,1.09,83,9,1449.11563277,1
GEMS240,2018_Oct_31_1144,Elaine,AG,1.4,2,GEMS215,10,6,2,SimpleHill,0-0,1,52,26-67,29-59;34-65;33-60;29-70;35-68;32-65,29-70,7.28,84,1,1460.46918646,1
GEMS240,2018_Oct_31_1144,Elaine,AG,1.4,2,GEMS215,10,6,2,SimpleHill,0-0,1,53,29-70,26-68;32-63;31-70;32-65;27-70;21-64,27-70,2.29,82,-2,1466.82791764,1
GEMS240,2018_Oct_31_1144,Elaine,AG,1.4,2,GEMS215,10,6,2,SimpleHill,0-0,1,54,27-70,24-61;33-64;27-66;24-63;22-68;20-63,20-63,5.99,79,-3,1476.89095025,1
GEMS240,2018_Oct_31_1144,Elaine,AG,1.4,2,GEMS215,10,6,2,SimpleHill,0-0,1,55,20-63,21-56;22-70;27-69;27-56;21-70;12-61,27-69,3.81,83,4,1484.75617082,1
GEMS240,2018_Oct_31_1144,Elaine,AG,1.4,2,GEMS215,10,6,2,SimpleHill,0-0,1,56,27-69,24-64;34-67;23-68;36-67;20-67;24-65,24-65,9.38,82,-1,1498.20292584,1
GEMS240,2018_Oct_31_1144,Elaine,AG,1.4,2,GEMS215,10,6,2,SimpleHill,0-0,1,57,24-65,20-65;25-66;18-57;28-58;28-62;23-60,23-60,1.32,84,2,1503.59587042,1
GEMS240,2018_Oct_31_1144,Elaine,AG,1.4,2,GEMS215,10,6,2,SimpleHill,0-0,1,58,23-60,20-54;24-61;18-52;29-60;28-66;22-56,28-66,1.35,86,2,1509.03151439,1
GEMS240,2018_Oct_31_1144,Elaine,AG,1.4,2,GEMS215,10,6,2,SimpleHill,0-0,1,59,28-66,25-57;33-61;21-67;33-65;23-66;36-63,23-66,1.57,81,-5,1514.6915115,1
GEMS240,2018_Oct_31_1144,Elaine,AG,1.4,2,GEMS215,10,6,2,SimpleHill,0-0,1,60,23-66,27-62;15-70;23-62;18-67;31-64;26-58,15-70,1.29,68,-13,1520.07059192,1
GEMS240,2018_Oct_31_1144,Elaine,AG,1.4,2,GEMS215,10,6,2,SimpleHill,0-0,1,61,15-70,14-68;9-69;21-62;17-70;22-69;11-70,17-70,0.47,71,3,1524.61721675,1
GEMS240,2018_Oct_31_1144,Elaine,AG,1.4,2,GEMS215,10,6,2,SimpleHill,0-0,1,62,17-70,25-66;19-64;20-61;13-63;18-69;11-65,11-65,1.18,66,-5,1529.88027997,1
GEMS240,2018_Oct_31_1144,Elaine,AG,1.4,2,GEMS215,10,6,2,SimpleHill,0-0,1,63,11-65,2-67;15-63;14-57;18-68;8-70;6-65,8-70,0.24,57,-9,1534.18128118,1
GEMS240,2018_Oct_31_1144,Elaine,AG,1.4,2,GEMS215,10,6,2,SimpleHill,0-0,1,64,8-70,11-66;7-63;4-62;4-65;8-64;14-63,4-65,1.94,54,-3,1540.19177414,1
GEMS240,2018_Oct_31_1144,Elaine,AG,1.4,2,GEMS215,10,6,2,SimpleHill,0-0,1,65,4-65,12-66;5-67;11-67;6-62;4-62;8-59,5-67,0.98,54,0,1545.24348124,1
GEMS240,2018_Oct_31_1144,Elaine,AG,1.4,2,GEMS215,10,6,2,SimpleHill,0-0,1,66,5-67,12-67;10-70;13-64;2-70;8-59;8-65,12-67,2.22,66,12,1551.55546163,1
GEMS240,2018_Oct_31_1144,Elaine,AG,1.4,2,GEMS215,10,6,2,SimpleHill,0-0,1,67,12-67,10-60;5-62;2-67;5-70;8-69;19-66,19-66,1.46,76,10,1557.09287868,1
GEMS240,2018_Oct_31_1144,Elaine,AG,1.4,2,GEMS215,10,6,2,SimpleHill,0-0,1,68,19-66,12-69;25-65;21-69;26-63;15-67;19-58,12-69,1.86,64,-12,1563.03188185,1
GEMS240,2018_Oct_31_1144,Elaine,AG,1.4,2,GEMS215,10,6,2,SimpleHill,0-0,1,69,12-69,15-65;18-63;18-69;4-63;21-66;12-63,21-66,6.22,79,15,1573.31475623,1
GEMS240,2018_Oct_31_1144,Elaine,AG,1.4,2,GEMS215,10,6,2,SimpleHill,0-0,1,70,21-66,26-61;16-65;26-59;23-68;16-62;17-70,17-70,1.71,71,-8,1579.09247984,1
GEMS240,2018_Oct_31_1144,Elaine,AG,1.4,2,GEMS215,10,6,2,SimpleHill,0-0,1,71,17-70,10-69;18-67;22-64;19-68;8-69;17-66,18-67,5.12,74,3,1588.27669627,1
GEMS240,2018_Oct_31_1144,Elaine,AG,1.4,2,GEMS215,10,6,2,SimpleHill,0-0,1,72,18-67,22-69;24-60;15-63;22-61;15-59;13-67,24-60,1.31,85,11,1593.64451456,1
GEMS240,2018_Oct_31_1144,Elaine,AG,1.4,2,GEMS215,10,6,2,SimpleHill,0-0,1,73,24-60,20-53;23-52;17-58;22-65;28-64;21-65,23-52,1.49,86,1,1599.21017881,1
GEMS240,2018_Oct_31_1144,Elaine,AG,1.4,2,GEMS215,10,6,2,SimpleHill,0-0,1,74,23-52,20-54;30-50;24-59;19-59;20-51;29-53,30-50,1.09,93,7,1604.36498195,1
GEMS240,2018_Oct_31_1144,Elaine,AG,1.4,2,GEMS215,10,6,2,SimpleHill,0-0,1,75,30-50,25-43;24-51;31-52;33-54;23-55;34-55,25-43,1.7,87,-6,1610.12114765,1
GEMS240,2018_Oct_31_1144,Elaine,AG,1.4,2,GEMS215,10,6,2,SimpleHill,0-0,1,76,25-43,24-43;32-46;26-48;22-38;33-40;18-39,26-48,0.92,89,2,1615.09818293,1
GEMS240,2018_Oct_31_1144,Elaine,AG,1.4,2,GEMS215,10,6,2,SimpleHill,0-0,1,77,26-48,32-56;25-43;19-43;34-47;26-51;24-48,19-43,2.18,80,-9,1621.33288051,1
GEMS240,2018_Oct_31_1144,Elaine,AG,1.4,2,GEMS215,10,6,2,SimpleHill,0-0,1,78,19-43,17-48;26-47;16-38;28-42;18-50;13-42,28-42,2.45,90,10,1627.85381216,1
GEMS240,2018_Oct_31_1144,Elaine,AG,1.4,2,GEMS215,10,6,2,SimpleHill,0-0,1,79,28-42,34-44;21-49;24-42;30-51;24-43;23-45,34-44,4.92,95,5,1636.84478075,1
