subj_id,date,computer,experimenter,version,generation,inherit_from,sight_radius,n_gabors,block_ix,landscape_name,starting_pos,starting_score,trial,pos,stims,selected,rt,score,delta,exp_time,landscape_ix
GEMS274,2018_Nov_09_2006,George,SR,1.4,2,GEMS218,10,6,1,SimpleHill,0-0,1,0,0-0,7-5;1-9;4-3;1-8;4-2;8-4,2-Apr,3.99,12,11,193.890782,1
GEMS274,2018_Nov_09_2006,George,SR,1.4,2,GEMS218,10,6,1,SimpleHill,0-0,1,1,2-Apr,10-4;1-10;0-4;2-2;10-0;5-5,5-May,7.69,20,8,205.6387374,1
GEMS274,2018_Nov_09_2006,George,SR,1.4,2,GEMS218,10,6,1,SimpleHill,0-0,1,2,5-May,9-7;9-1;9-0;14-7;5-12;6-11,14-7,2.66,38,18,212.3668626,1
GEMS274,2018_Nov_09_2006,George,SR,1.4,2,GEMS218,10,6,1,SimpleHill,0-0,1,3,14-7,14-16;10-1;14-13;19-9;23-4;16-15,16-15,5.33,53,15,221.7689503,1
GEMS274,2018_Nov_09_2006,George,SR,1.4,2,GEMS218,10,6,1,SimpleHill,0-0,1,4,16-15,11-9;18-12;16-6;14-6;23-19;14-18,23-19,3.27,67,14,229.1099418,1
GEMS274,2018_Nov_09_2006,George,SR,1.4,2,GEMS218,10,6,1,SimpleHill,0-0,1,5,23-19,21-14;24-21;24-15;26-18;26-17;16-16,24-21,2.93,70,3,236.091628,1
GEMS274,2018_Nov_09_2006,George,SR,1.4,2,GEMS218,10,6,1,SimpleHill,0-0,1,6,24-21,17-24;31-19;17-27;32-26;25-19;20-18,32-26,3.9,83,13,244.0518162,1
GEMS274,2018_Nov_09_2006,George,SR,1.4,2,GEMS218,10,6,1,SimpleHill,0-0,1,7,32-26,36-32;25-27;24-20;30-30;38-29;28-28,38-29,5.83,89,6,253.9629074,1
GEMS274,2018_Nov_09_2006,George,SR,1.4,2,GEMS218,10,6,1,SimpleHill,0-0,1,8,38-29,47-29;42-25;33-24;43-24;36-28;33-35,47-29,3.27,92,3,261.2779563,1
GEMS274,2018_Nov_09_2006,George,SR,1.4,2,GEMS218,10,6,1,SimpleHill,0-0,1,9,47-29,45-21;39-30;46-29;42-34;53-30;43-34,53-30,3.28,92,0,268.6315882,1
GEMS274,2018_Nov_09_2006,George,SR,1.4,2,GEMS218,10,6,1,SimpleHill,0-0,1,10,53-30,55-37;47-31;56-37;53-38;45-30;56-33,45-30,5.01,92,0,277.6995419,1
GEMS274,2018_Nov_09_2006,George,SR,1.4,2,GEMS218,10,6,1,SimpleHill,0-0,1,11,45-30,36-32;35-30;39-27;51-22;48-23;50-24,51-22,6.84,85,-7,288.6063265,1
GEMS274,2018_Nov_09_2006,George,SR,1.4,2,GEMS218,10,6,1,SimpleHill,0-0,1,12,51-22,57-25;55-30;47-18;49-30;59-27;44-21,59-27,2.97,88,3,295.6360323,1
GEMS274,2018_Nov_09_2006,George,SR,1.4,2,GEMS218,10,6,1,SimpleHill,0-0,1,13,59-27,55-29;56-29;68-30;58-19;63-27;51-29,56-29,4.8,91,3,304.503615,1
GEMS274,2018_Nov_09_2006,George,SR,1.4,2,GEMS218,10,6,1,SimpleHill,0-0,1,14,56-29,63-27;48-24;49-28;62-37;53-22;60-27,53-22,3.41,85,-6,311.9891431,1
GEMS274,2018_Nov_09_2006,George,SR,1.4,2,GEMS218,10,6,1,SimpleHill,0-0,1,15,53-22,48-26;51-15;49-17;46-28;53-28;49-16,53-28,5.65,91,6,321.6956476,1
GEMS274,2018_Nov_09_2006,George,SR,1.4,2,GEMS218,10,6,1,SimpleHill,0-0,1,16,53-28,57-32;45-30;59-30;62-28;60-21;61-33,57-32,2.63,93,2,328.3912847,1
GEMS274,2018_Nov_09_2006,George,SR,1.4,2,GEMS218,10,6,1,SimpleHill,0-0,1,17,57-32,55-41;64-28;56-25;60-41;61-24;50-25,56-25,3.22,87,-6,335.6687307,1
GEMS274,2018_Nov_09_2006,George,SR,1.4,2,GEMS218,10,6,1,SimpleHill,0-0,1,18,56-25,63-20;65-24;59-17;58-29;58-34;52-31,58-34,3.76,94,7,343.4943153,1
GEMS274,2018_Nov_09_2006,George,SR,1.4,2,GEMS218,10,6,1,SimpleHill,0-0,1,19,58-34,61-31;62-29;51-33;62-39;62-41;55-28,55-28,6.08,90,-4,353.652165,1
GEMS274,2018_Nov_09_2006,George,SR,1.4,2,GEMS218,10,6,1,SimpleHill,0-0,1,20,55-28,54-24;53-26;53-22;48-35;64-32;57-29,53-26,6.11,89,-1,363.8196789,1
GEMS274,2018_Nov_09_2006,George,SR,1.4,2,GEMS218,10,6,1,SimpleHill,0-0,1,21,53-26,44-26;55-18;62-25;55-32;58-26;46-23,55-32,5.49,94,5,373.3606025,1
GEMS274,2018_Nov_09_2006,George,SR,1.4,2,GEMS218,10,6,1,SimpleHill,0-0,1,22,55-32,63-38;54-27;59-38;58-31;51-30;46-29,59-38,7.33,96,2,384.7660698,1
GEMS274,2018_Nov_09_2006,George,SR,1.4,2,GEMS218,10,6,1,SimpleHill,0-0,1,23,59-38,65-46;57-34;58-44;51-32;64-33;67-44,58-44,4.03,99,3,392.8561787,1
GEMS274,2018_Nov_09_2006,George,SR,1.4,2,GEMS218,10,6,1,SimpleHill,0-0,1,24,58-44,49-43;54-41;66-38;65-48;55-44;62-36,55-44,4.68,99,0,401.614452,1
GEMS274,2018_Nov_09_2006,George,SR,1.4,2,GEMS218,10,6,1,SimpleHill,0-0,1,25,55-44,61-48;47-40;50-46;59-52;52-38;64-43,59-52,5.73,99,0,411.4095286,1
GEMS274,2018_Nov_09_2006,George,SR,1.4,2,GEMS218,10,6,1,SimpleHill,0-0,1,26,59-52,58-48;50-49;66-48;55-53;64-59;59-53,58-48,3.07,99,0,418.5586964,1
GEMS274,2018_Nov_09_2006,George,SR,1.4,2,GEMS218,10,6,1,SimpleHill,0-0,1,27,58-48,53-47;54-48;56-42;64-44;61-45;58-54,56-42,1.15,99,0,423.7680422,1
GEMS274,2018_Nov_09_2006,George,SR,1.4,2,GEMS218,10,6,1,SimpleHill,0-0,1,28,56-42,61-45;51-40;54-33;55-45;62-49;50-34,55-45,5,100,1,432.8332294,1
GEMS274,2018_Nov_09_2006,George,SR,1.4,2,GEMS218,10,6,1,SimpleHill,0-0,1,29,55-45,57-47;55-36;52-39;49-52;53-50;63-44,57-47,3.29,99,-1,440.1928358,1
GEMS274,2018_Nov_09_2006,George,SR,1.4,2,GEMS218,10,6,1,SimpleHill,0-0,1,30,57-47,57-54;62-51;64-52;55-53;52-54;61-40,57-54,2.37,99,0,446.6343826,1
GEMS274,2018_Nov_09_2006,George,SR,1.4,2,GEMS218,10,6,1,SimpleHill,0-0,1,31,57-54,55-55;57-51;56-45;55-60;51-59;65-55,51-59,1.7,99,0,452.3991897,1
GEMS274,2018_Nov_09_2006,George,SR,1.4,2,GEMS218,10,6,1,SimpleHill,0-0,1,32,51-59,45-67;48-66;57-63;45-63;49-65;42-55,57-63,1.64,96,-3,458.1056253,1
GEMS274,2018_Nov_09_2006,George,SR,1.4,2,GEMS218,10,6,1,SimpleHill,0-0,1,33,57-63,57-60;59-65;51-60;49-66;54-65;58-64,51-60,3.91,98,2,466.0833079,1
GEMS274,2018_Nov_09_2006,George,SR,1.4,2,GEMS218,10,6,1,SimpleHill,0-0,1,34,51-60,56-65;43-61;60-61;43-64;51-61;53-60,43-64,1.32,96,-2,471.4657756,1
GEMS274,2018_Nov_09_2006,George,SR,1.4,2,GEMS218,10,6,1,SimpleHill,0-0,1,35,43-64,39-62;35-60;45-57;47-61;50-64;39-68,50-64,4.85,97,1,480.3800747,1
GEMS274,2018_Nov_09_2006,George,SR,1.4,2,GEMS218,10,6,1,SimpleHill,0-0,1,36,50-64,49-56;58-61;44-57;59-65;49-67;56-58,59-65,5.03,94,-3,489.504074,1
GEMS274,2018_Nov_09_2006,George,SR,1.4,2,GEMS218,10,6,1,SimpleHill,0-0,1,37,59-65,61-60;66-69;61-66;59-64;57-59;62-65,57-59,3.35,98,4,496.9065036,1
GEMS274,2018_Nov_09_2006,George,SR,1.4,2,GEMS218,10,6,1,SimpleHill,0-0,1,38,57-59,56-65;50-63;60-66;57-56;52-66;51-55,52-66,3.88,95,-3,504.8598527,1
GEMS274,2018_Nov_09_2006,George,SR,1.4,2,GEMS218,10,6,1,SimpleHill,0-0,1,39,52-66,59-59;49-58;48-66;54-61;50-57;54-60,59-59,5.68,97,2,514.8394279,1
GEMS274,2018_Nov_09_2006,George,SR,1.4,2,GEMS218,10,6,1,SimpleHill,0-0,1,40,59-59,56-66;54-53;63-61;51-56;60-53;54-65,51-56,4.63,100,3,523.5232328,1
GEMS274,2018_Nov_09_2006,George,SR,1.4,2,GEMS218,10,6,1,SimpleHill,0-0,1,41,51-56,45-55;58-59;57-52;46-53;60-59;59-53,45-55,4.32,100,0,531.9158253,1
GEMS274,2018_Nov_09_2006,George,SR,1.4,2,GEMS218,10,6,1,SimpleHill,0-0,1,42,45-55,52-54;51-53;37-51;36-57;52-53;41-46,36-57,5.2,96,-4,541.1666506,1
GEMS274,2018_Nov_09_2006,George,SR,1.4,2,GEMS218,10,6,1,SimpleHill,0-0,1,43,36-57,33-56;31-54;31-53;44-52;42-53;33-59,44-52,3.42,100,4,548.657291,1
GEMS274,2018_Nov_09_2006,George,SR,1.4,2,GEMS218,10,6,1,SimpleHill,0-0,1,44,44-52,45-43;47-58;45-44;50-45;51-45;49-45,47-58,3.13,99,-1,555.8405646,1
GEMS274,2018_Nov_09_2006,George,SR,1.4,2,GEMS218,10,6,1,SimpleHill,0-0,1,45,47-58,49-66;38-62;47-57;49-59;40-52;55-59,40-52,6.3,98,-1,566.2173427,1
GEMS274,2018_Nov_09_2006,George,SR,1.4,2,GEMS218,10,6,1,SimpleHill,0-0,1,46,40-52,40-48;41-47;39-54;46-59;34-59;39-45,46-59,1.78,99,1,572.0742201,1
GEMS274,2018_Nov_09_2006,George,SR,1.4,2,GEMS218,10,6,1,SimpleHill,0-0,1,47,46-59,39-62;51-66;49-55;40-60;41-64;45-64,51-66,1.56,95,-4,577.677184,1
GEMS274,2018_Nov_09_2006,George,SR,1.4,2,GEMS218,10,6,1,SimpleHill,0-0,1,48,51-66,49-70;55-59;56-59;48-67;43-61;50-58,56-59,2.6,98,3,584.3158712,1
GEMS274,2018_Nov_09_2006,George,SR,1.4,2,GEMS218,10,6,1,SimpleHill,0-0,1,49,56-59,63-54;51-64;63-55;65-55;52-53;60-59,52-53,2.95,100,2,591.3365332,1
GEMS274,2018_Nov_09_2006,George,SR,1.4,2,GEMS218,10,6,1,SimpleHill,0-0,1,50,52-53,47-56;45-52;52-62;58-56;51-44;56-52,56-52,3.02,100,0,598.4148105,1
GEMS274,2018_Nov_09_2006,George,SR,1.4,2,GEMS218,10,6,1,SimpleHill,0-0,1,51,56-52,48-50;62-49;62-50;59-47;60-58;54-59,54-59,3.11,99,-1,605.6001612,1
GEMS274,2018_Nov_09_2006,George,SR,1.4,2,GEMS218,10,6,1,SimpleHill,0-0,1,52,54-59,61-55;45-59;53-57;49-52;56-52;61-63,45-59,5.18,98,-1,614.9060395,1
GEMS274,2018_Nov_09_2006,George,SR,1.4,2,GEMS218,10,6,1,SimpleHill,0-0,1,53,45-59,38-61;36-62;37-60;45-57;53-61;49-58,53-61,2.21,98,0,621.1707155,1
GEMS274,2018_Nov_09_2006,George,SR,1.4,2,GEMS218,10,6,1,SimpleHill,0-0,1,54,53-61,51-60;55-59;53-60;57-52;56-63;46-62,46-62,4.46,97,-1,629.6846784,1
GEMS274,2018_Nov_09_2006,George,SR,1.4,2,GEMS218,10,6,1,SimpleHill,0-0,1,55,46-62,37-58;44-53;55-65;45-65;51-61;42-57,45-65,1.2,96,-1,634.9381553,1
GEMS274,2018_Nov_09_2006,George,SR,1.4,2,GEMS218,10,6,1,SimpleHill,0-0,1,56,45-65,44-70;49-65;42-63;39-62;46-57;53-59,46-57,8.44,99,3,647.4414534,1
GEMS274,2018_Nov_09_2006,George,SR,1.4,2,GEMS218,10,6,1,SimpleHill,0-0,1,57,46-57,52-57;54-58;39-62;49-55;38-51;51-57,51-57,7.84,100,1,659.3458696,1
GEMS274,2018_Nov_09_2006,George,SR,1.4,2,GEMS218,10,6,1,SimpleHill,0-0,1,58,51-57,53-48;52-64;45-53;52-59;44-60;47-58,47-58,2.88,99,-1,666.2922465,1
GEMS274,2018_Nov_09_2006,George,SR,1.4,2,GEMS218,10,6,1,SimpleHill,0-0,1,59,47-58,51-63;45-57;51-53;46-67;49-50;48-66,48-66,6.97,95,-4,677.3446795,1
GEMS274,2018_Nov_09_2006,George,SR,1.4,2,GEMS218,10,6,1,SimpleHill,0-0,1,60,48-66,55-65;56-65;39-67;47-59;44-62;50-60,39-67,0.96,92,-3,682.3581557,1
GEMS274,2018_Nov_09_2006,George,SR,1.4,2,GEMS218,10,6,1,SimpleHill,0-0,1,61,39-67,36-66;34-61;43-66;38-70;48-63;46-65,46-65,2.99,96,4,689.4131076,1
GEMS274,2018_Nov_09_2006,George,SR,1.4,2,GEMS218,10,6,1,SimpleHill,0-0,1,62,46-65,50-58;54-70;53-66;40-70;46-59;41-58,53-66,2.89,95,-1,696.3551354,1
GEMS274,2018_Nov_09_2006,George,SR,1.4,2,GEMS218,10,6,1,SimpleHill,0-0,1,63,53-66,58-69;44-66;45-67;59-66;59-65;56-63,59-66,7.51,94,-1,707.9314388,1
GEMS274,2018_Nov_09_2006,George,SR,1.4,2,GEMS218,10,6,1,SimpleHill,0-0,1,64,59-66,52-66;50-66;67-67;60-57;61-66;52-61,50-66,2.71,95,1,714.7204138,1
GEMS274,2018_Nov_09_2006,George,SR,1.4,2,GEMS218,10,6,1,SimpleHill,0-0,1,65,50-66,48-58;44-62;46-65;43-63;51-57;59-68,46-65,4.43,96,1,723.2312654,1
GEMS274,2018_Nov_09_2006,George,SR,1.4,2,GEMS218,10,6,1,SimpleHill,0-0,1,66,46-65,54-67;52-69;41-62;48-68;48-65;49-67,48-65,3.51,96,0,730.8206033,1
GEMS274,2018_Nov_09_2006,George,SR,1.4,2,GEMS218,10,6,1,SimpleHill,0-0,1,67,48-65,52-57;43-63;53-68;54-58;40-65;43-57,40-65,1.71,94,-2,736.6017248,1
GEMS274,2018_Nov_09_2006,George,SR,1.4,2,GEMS218,10,6,1,SimpleHill,0-0,1,68,40-65,48-61;31-61;41-58;46-70;35-67;31-62,46-70,2.83,92,-2,743.4912588,1
GEMS274,2018_Nov_09_2006,George,SR,1.4,2,GEMS218,10,6,1,SimpleHill,0-0,1,69,46-70,50-65;42-70;41-63;37-66;40-63;42-66,42-66,1.54,94,2,749.0860213,1
GEMS274,2018_Nov_09_2006,George,SR,1.4,2,GEMS218,10,6,1,SimpleHill,0-0,1,70,42-66,48-68;40-63;38-63;34-69;50-63;49-63,34-69,5.06,88,-6,758.2053488,1
GEMS274,2018_Nov_09_2006,George,SR,1.4,2,GEMS218,10,6,1,SimpleHill,0-0,1,71,34-69,28-65;40-69;42-65;33-69;30-61;35-62,42-65,3.77,95,7,766.0310518,1
GEMS274,2018_Nov_09_2006,George,SR,1.4,2,GEMS218,10,6,1,SimpleHill,0-0,1,72,42-65,44-61;48-57;50-61;48-61;35-66;45-63,35-66,5.03,91,-4,775.1127339,1
GEMS274,2018_Nov_09_2006,George,SR,1.4,2,GEMS218,10,6,1,SimpleHill,0-0,1,73,35-66,39-69;44-68;42-70;41-62;37-60;39-64,39-64,5.1,94,3,784.2899492,1
GEMS274,2018_Nov_09_2006,George,SR,1.4,2,GEMS218,10,6,1,SimpleHill,0-0,1,74,39-64,33-61;42-55;37-60;39-54;39-62;44-69,44-69,6.02,93,-1,794.3899825,1
GEMS274,2018_Nov_09_2006,George,SR,1.4,2,GEMS218,10,6,1,SimpleHill,0-0,1,75,44-69,45-63;38-62;39-66;51-62;44-65;48-61,44-65,3.57,95,2,802.0079252,1
GEMS274,2018_Nov_09_2006,George,SR,1.4,2,GEMS218,10,6,1,SimpleHill,0-0,1,76,44-65,45-68;52-59;36-69;48-60;38-64;48-68,36-69,4.06,89,-6,810.1539583,1
GEMS274,2018_Nov_09_2006,George,SR,1.4,2,GEMS218,10,6,1,SimpleHill,0-0,1,77,36-69,29-64;28-68;33-64;43-70;35-66;33-66,28-68,3.56,84,-5,817.7978371,1
GEMS274,2018_Nov_09_2006,George,SR,1.4,2,GEMS218,10,6,1,SimpleHill,0-0,1,78,28-68,26-66;25-63;34-68;23-70;32-66;27-69,34-68,2.46,89,5,824.3357365,1
GEMS274,2018_Nov_09_2006,George,SR,1.4,2,GEMS218,10,6,1,SimpleHill,0-0,1,79,34-68,27-70;33-66;30-62;29-64;37-62;41-69,41-69,2.61,92,3,831.0234685,1
GEMS274,2018_Nov_09_2006,George,SR,1.4,2,GEMS218,10,6,2,SimpleHill,0-0,1,0,0-0,4-2;8-1;5-5;7-0;1-3;4-7,Jul-00,4.78,14,13,944.5599832,1
GEMS274,2018_Nov_09_2006,George,SR,1.4,2,GEMS218,10,6,2,SimpleHill,0-0,1,1,Jul-00,15-4;5-2;8-7;4-4;9-3;0-7,4-Apr,4.82,16,2,953.4450554,1
GEMS274,2018_Nov_09_2006,George,SR,1.4,2,GEMS218,10,6,2,SimpleHill,0-0,1,2,4-Apr,12-10;4-3;9-12;12-4;7-2;4-14,12-Sep,3.32,38,22,960.8284737,1
GEMS274,2018_Nov_09_2006,George,SR,1.4,2,GEMS218,10,6,2,SimpleHill,0-0,1,3,12-Sep,6-9;17-9;11-3;14-15;16-14;7-15,15-Jul,2.18,39,1,967.085939,1
GEMS274,2018_Nov_09_2006,George,SR,1.4,2,GEMS218,10,6,2,SimpleHill,0-0,1,4,15-Jul,5-20;6-20;0-15;5-12;2-23;14-22,14-22,3.53,59,20,974.6782848,1
GEMS274,2018_Nov_09_2006,George,SR,1.4,2,GEMS218,10,6,2,SimpleHill,0-0,1,5,14-22,22-27;6-20;9-29;15-14;22-25;12-30,22-27,4.31,74,15,983.0434176,1
GEMS274,2018_Nov_09_2006,George,SR,1.4,2,GEMS218,10,6,2,SimpleHill,0-0,1,6,22-27,21-24;26-36;30-21;30-23;26-28;16-23,26-28,3,79,5,990.1175177,1
GEMS274,2018_Nov_09_2006,George,SR,1.4,2,GEMS218,10,6,2,SimpleHill,0-0,1,7,26-28,34-25;19-32;21-20;35-31;33-29;32-29,21-20,2.66,66,-13,996.8541256,1
GEMS274,2018_Nov_09_2006,George,SR,1.4,2,GEMS218,10,6,2,SimpleHill,0-0,1,8,21-20,15-27;13-24;25-21;21-25;21-23;26-24,25-21,3.38,71,5,1004.300714,1
GEMS274,2018_Nov_09_2006,George,SR,1.4,2,GEMS218,10,6,2,SimpleHill,0-0,1,9,25-21,20-14;23-27;33-15;16-23;34-18;28-16,34-18,4.48,75,4,1012.849007,1
GEMS274,2018_Nov_09_2006,George,SR,1.4,2,GEMS218,10,6,2,SimpleHill,0-0,1,10,34-18,39-22;34-28;37-13;43-21;42-17;35-11,43-21,2.22,83,8,1019.127077,1
GEMS274,2018_Nov_09_2006,George,SR,1.4,2,GEMS218,10,6,2,SimpleHill,0-0,1,11,43-21,38-22;46-29;38-21;43-29;45-30;44-13,45-30,2.05,92,9,1025.254264,1
GEMS274,2018_Nov_09_2006,George,SR,1.4,2,GEMS218,10,6,2,SimpleHill,0-0,1,12,45-30,51-32;39-28;45-39;45-38;43-30;45-25,45-39,5.9,98,6,1035.21899,1
GEMS274,2018_Nov_09_2006,George,SR,1.4,2,GEMS218,10,6,2,SimpleHill,0-0,1,13,45-39,50-41;52-39;37-42;45-49;48-45;47-48,45-49,1.17,100,2,1040.475945,1
GEMS274,2018_Nov_09_2006,George,SR,1.4,2,GEMS218,10,6,2,SimpleHill,0-0,1,14,45-49,41-42;47-47;38-52;40-56;42-48;48-56,40-56,1.13,98,-2,1045.68846,1
GEMS274,2018_Nov_09_2006,George,SR,1.4,2,GEMS218,10,6,2,SimpleHill,0-0,1,15,40-56,38-61;37-63;40-46;42-65;32-52;48-56,42-65,3.28,95,-3,1053.030831,1
GEMS274,2018_Nov_09_2006,George,SR,1.4,2,GEMS218,10,6,2,SimpleHill,0-0,1,16,42-65,45-65;46-60;51-66;50-59;43-61;52-65,51-66,1.68,95,0,1058.788303,1
GEMS274,2018_Nov_09_2006,George,SR,1.4,2,GEMS218,10,6,2,SimpleHill,0-0,1,17,51-66,51-59;47-65;48-61;52-60;47-64;45-62,52-60,3.62,98,3,1066.476016,1
GEMS274,2018_Nov_09_2006,George,SR,1.4,2,GEMS218,10,6,2,SimpleHill,0-0,1,18,52-60,50-53;60-60;54-55;52-70;45-54;52-53,52-70,1.58,92,-6,1072.125073,1
GEMS274,2018_Nov_09_2006,George,SR,1.4,2,GEMS218,10,6,2,SimpleHill,0-0,1,19,52-70,46-62;55-61;49-70;55-69;47-65;56-61,47-65,1.62,96,4,1077.836983,1
GEMS274,2018_Nov_09_2006,George,SR,1.4,2,GEMS218,10,6,2,SimpleHill,0-0,1,20,47-65,39-63;50-67;52-65;51-64;54-69;50-66,51-64,2.93,97,1,1084.848681,1
GEMS274,2018_Nov_09_2006,George,SR,1.4,2,GEMS218,10,6,2,SimpleHill,0-0,1,21,51-64,45-67;49-60;52-60;60-61;59-66;42-67,42-67,1.91,93,-4,1090.842443,1
GEMS274,2018_Nov_09_2006,George,SR,1.4,2,GEMS218,10,6,2,SimpleHill,0-0,1,22,42-67,45-60;50-62;42-67;47-64;45-63;34-61,34-61,4.84,93,0,1099.744211,1
GEMS274,2018_Nov_09_2006,George,SR,1.4,2,GEMS218,10,6,2,SimpleHill,0-0,1,23,34-61,34-54;33-67;28-58;32-58;36-68;36-62,36-68,2.58,90,-3,1106.394003,1
GEMS274,2018_Nov_09_2006,George,SR,1.4,2,GEMS218,10,6,2,SimpleHill,0-0,1,24,36-68,38-69;28-63;36-68;32-64;27-64;32-60,38-69,3.04,90,0,1113.501295,1
GEMS274,2018_Nov_09_2006,George,SR,1.4,2,GEMS218,10,6,2,SimpleHill,0-0,1,25,38-69,29-70;30-68;31-68;29-66;36-70;43-63,36-70,3.78,89,-1,1121.354187,1
GEMS274,2018_Nov_09_2006,George,SR,1.4,2,GEMS218,10,6,2,SimpleHill,0-0,1,26,36-70,40-64;37-68;39-69;39-67;36-63;41-63,39-67,3.13,92,3,1128.560346,1
GEMS274,2018_Nov_09_2006,George,SR,1.4,2,GEMS218,10,6,2,SimpleHill,0-0,1,27,39-67,45-66;42-63;47-70;43-67;41-64;34-70,43-67,3.08,94,2,1135.689081,1
GEMS274,2018_Nov_09_2006,George,SR,1.4,2,GEMS218,10,6,2,SimpleHill,0-0,1,28,43-67,43-60;42-63;42-67;41-58;47-60;45-64,42-67,3.88,93,-1,1143.644045,1
GEMS274,2018_Nov_09_2006,George,SR,1.4,2,GEMS218,10,6,2,SimpleHill,0-0,1,29,42-67,51-69;44-58;43-67;51-66;43-65;35-65,51-66,4.94,95,2,1152.657618,1
GEMS274,2018_Nov_09_2006,George,SR,1.4,2,GEMS218,10,6,2,SimpleHill,0-0,1,30,51-66,58-69;60-62;43-67;56-68;47-59;53-62,56-68,1.9,93,-2,1158.611942,1
GEMS274,2018_Nov_09_2006,George,SR,1.4,2,GEMS218,10,6,2,SimpleHill,0-0,1,31,56-68,60-63;57-60;57-69;50-68;56-63;47-65,47-65,1.77,96,3,1164.440726,1
GEMS274,2018_Nov_09_2006,George,SR,1.4,2,GEMS218,10,6,2,SimpleHill,0-0,1,32,47-65,47-63;51-69;56-61;49-67;49-66;57-65,49-66,1.31,95,-1,1169.823201,1
GEMS274,2018_Nov_09_2006,George,SR,1.4,2,GEMS218,10,6,2,SimpleHill,0-0,1,33,49-66,42-62;54-70;43-68;43-64;57-69;41-64,54-70,2.57,92,-3,1176.441987,1
GEMS274,2018_Nov_09_2006,George,SR,1.4,2,GEMS218,10,6,2,SimpleHill,0-0,1,34,54-70,54-64;60-67;60-65;56-66;48-69;50-64,48-69,2.29,93,1,1182.807362,1
GEMS274,2018_Nov_09_2006,George,SR,1.4,2,GEMS218,10,6,2,SimpleHill,0-0,1,35,48-69,57-68;48-62;43-66;43-68;47-66;57-65,43-66,2.2,94,1,1189.073346,1
GEMS274,2018_Nov_09_2006,George,SR,1.4,2,GEMS218,10,6,2,SimpleHill,0-0,1,36,43-66,35-61;43-60;44-66;42-59;49-66;38-69,38-69,3.76,90,-4,1196.898777,1
GEMS274,2018_Nov_09_2006,George,SR,1.4,2,GEMS218,10,6,2,SimpleHill,0-0,1,37,38-69,43-66;45-68;32-64;44-65;33-69;32-68,44-65,2.64,95,5,1203.63008,1
GEMS274,2018_Nov_09_2006,George,SR,1.4,2,GEMS218,10,6,2,SimpleHill,0-0,1,38,44-65,49-66;44-55;39-58;48-60;46-57;49-70,48-60,2.21,98,3,1209.919966,1
GEMS274,2018_Nov_09_2006,George,SR,1.4,2,GEMS218,10,6,2,SimpleHill,0-0,1,39,48-60,46-58;54-65;46-52;57-59;48-50;47-51,54-65,2.69,96,-2,1216.675999,1
GEMS274,2018_Nov_09_2006,George,SR,1.4,2,GEMS218,10,6,2,SimpleHill,0-0,1,40,54-65,54-69;59-60;56-61;55-62;62-62;50-69,62-62,5.11,95,-1,1225.845161,1
GEMS274,2018_Nov_09_2006,George,SR,1.4,2,GEMS218,10,6,2,SimpleHill,0-0,1,41,62-62,53-64;59-58;63-55;53-62;56-67;57-63,53-64,2.53,96,1,1232.453479,1
GEMS274,2018_Nov_09_2006,George,SR,1.4,2,GEMS218,10,6,2,SimpleHill,0-0,1,42,53-64,62-60;54-64;47-58;44-61;59-62;46-69,44-61,1.83,97,1,1238.359516,1
GEMS274,2018_Nov_09_2006,George,SR,1.4,2,GEMS218,10,6,2,SimpleHill,0-0,1,43,44-61,35-64;44-61;40-65;51-64;45-61;39-55,45-61,1.18,98,1,1243.601695,1
GEMS274,2018_Nov_09_2006,George,SR,1.4,2,GEMS218,10,6,2,SimpleHill,0-0,1,44,45-61,42-60;40-61;40-56;43-62;51-63;38-54,40-61,3.31,96,-2,1250.978669,1
GEMS274,2018_Nov_09_2006,George,SR,1.4,2,GEMS218,10,6,2,SimpleHill,0-0,1,45,40-61,36-59;37-70;40-67;39-69;47-62;38-63,40-67,2.85,93,-3,1257.905784,1
GEMS274,2018_Nov_09_2006,George,SR,1.4,2,GEMS218,10,6,2,SimpleHill,0-0,1,46,40-67,37-70;42-58;38-62;45-67;36-68;45-61,45-67,3.38,94,1,1265.358929,1
GEMS274,2018_Nov_09_2006,George,SR,1.4,2,GEMS218,10,6,2,SimpleHill,0-0,1,47,45-67,47-62;52-67;43-60;54-67;46-60;53-61,46-60,1.82,98,4,1271.256192,1
GEMS274,2018_Nov_09_2006,George,SR,1.4,2,GEMS218,10,6,2,SimpleHill,0-0,1,48,46-60,46-52;53-67;46-70;39-62;38-62;43-58,46-70,1.84,92,-6,1277.171326,1
GEMS274,2018_Nov_09_2006,George,SR,1.4,2,GEMS218,10,6,2,SimpleHill,0-0,1,49,46-70,45-61;55-67;43-64;47-69;46-69;44-65,46-69,2.79,93,1,1284.035521,1
GEMS274,2018_Nov_09_2006,George,SR,1.4,2,GEMS218,10,6,2,SimpleHill,0-0,1,50,46-69,42-66;54-63;54-68;50-66;42-61;41-63,50-66,1.03,95,2,1289.132421,1
GEMS274,2018_Nov_09_2006,George,SR,1.4,2,GEMS218,10,6,2,SimpleHill,0-0,1,51,50-66,57-66;44-59;59-66;51-68;53-62;48-59,51-68,3.51,94,-1,1296.722747,1
GEMS274,2018_Nov_09_2006,George,SR,1.4,2,GEMS218,10,6,2,SimpleHill,0-0,1,52,51-68,52-68;45-61;46-61;50-66;52-69;45-67,46-61,1.85,98,4,1302.653144,1
GEMS274,2018_Nov_09_2006,George,SR,1.4,2,GEMS218,10,6,2,SimpleHill,0-0,1,53,46-61,39-55;48-62;48-66;53-62;50-62;47-59,48-66,2.15,95,-3,1308.884886,1
GEMS274,2018_Nov_09_2006,George,SR,1.4,2,GEMS218,10,6,2,SimpleHill,0-0,1,54,48-66,45-68;43-60;49-63;51-61;42-68;46-66,51-61,1.32,98,3,1314.282829,1
GEMS274,2018_Nov_09_2006,George,SR,1.4,2,GEMS218,10,6,2,SimpleHill,0-0,1,55,51-61,54-67;59-56;44-64;50-70;44-66;44-65,50-70,2.45,93,-5,1320.803451,1
GEMS274,2018_Nov_09_2006,George,SR,1.4,2,GEMS218,10,6,2,SimpleHill,0-0,1,56,50-70,57-64;47-66;48-70;54-65;54-70;47-70,54-70,2.15,92,-1,1327.02027,1
GEMS274,2018_Nov_09_2006,George,SR,1.4,2,GEMS218,10,6,2,SimpleHill,0-0,1,57,54-70,50-62;45-67;56-65;49-62;58-63;51-70,51-70,3.46,92,0,1334.544437,1
GEMS274,2018_Nov_09_2006,George,SR,1.4,2,GEMS218,10,6,2,SimpleHill,0-0,1,58,51-70,48-62;59-68;55-63;56-66;44-64;48-69,48-62,3.65,98,6,1342.247375,1
GEMS274,2018_Nov_09_2006,George,SR,1.4,2,GEMS218,10,6,2,SimpleHill,0-0,1,59,48-62,53-54;49-54;41-58;39-59;53-58;50-68,50-68,3.18,94,-4,1349.480171,1
GEMS274,2018_Nov_09_2006,George,SR,1.4,2,GEMS218,10,6,2,SimpleHill,0-0,1,60,50-68,41-69;50-69;45-70;42-69;42-62;53-62,45-70,3.67,92,-2,1357.21632,1
GEMS274,2018_Nov_09_2006,George,SR,1.4,2,GEMS218,10,6,2,SimpleHill,0-0,1,61,45-70,54-69;39-62;40-70;54-68;45-61;52-66,54-68,1.56,94,2,1362.841342,1
GEMS274,2018_Nov_09_2006,George,SR,1.4,2,GEMS218,10,6,2,SimpleHill,0-0,1,62,54-68,62-68;64-68;55-64;58-64;51-61;45-68,51-61,1.7,98,4,1368.603923,1
GEMS274,2018_Nov_09_2006,George,SR,1.4,2,GEMS218,10,6,2,SimpleHill,0-0,1,63,51-61,59-67;46-62;56-62;53-52;48-56;51-65,51-65,1.36,96,-2,1374.009203,1
GEMS274,2018_Nov_09_2006,George,SR,1.4,2,GEMS218,10,6,2,SimpleHill,0-0,1,64,51-65,55-67;56-61;53-58;53-60;45-70;53-59,53-58,1.09,99,3,1379.173718,1
GEMS274,2018_Nov_09_2006,George,SR,1.4,2,GEMS218,10,6,2,SimpleHill,0-0,1,65,53-58,56-63;50-66;62-57;50-58;52-66;50-60,50-66,2.07,95,-4,1385.309657,1
GEMS274,2018_Nov_09_2006,George,SR,1.4,2,GEMS218,10,6,2,SimpleHill,0-0,1,66,50-66,50-57;51-58;50-66;46-62;58-67;55-69,58-67,0.94,93,-2,1390.327756,1
GEMS274,2018_Nov_09_2006,George,SR,1.4,2,GEMS218,10,6,2,SimpleHill,0-0,1,67,58-67,57-66;65-65;50-67;60-60;61-70;60-66,60-60,0.64,97,4,1395.014538,1
GEMS274,2018_Nov_09_2006,George,SR,1.4,2,GEMS218,10,6,2,SimpleHill,0-0,1,68,60-60,62-65;54-55;63-54;53-67;53-63;52-58,53-63,0.77,97,0,1399.857082,1
GEMS274,2018_Nov_09_2006,George,SR,1.4,2,GEMS218,10,6,2,SimpleHill,0-0,1,69,53-63,56-64;50-65;56-68;55-57;50-70;56-69,50-65,0.94,96,-1,1404.860133,1
GEMS274,2018_Nov_09_2006,George,SR,1.4,2,GEMS218,10,6,2,SimpleHill,0-0,1,70,50-65,47-61;45-66;57-61;48-65;44-70;48-56,44-70,0.57,92,-4,1409.512857,1
GEMS274,2018_Nov_09_2006,George,SR,1.4,2,GEMS218,10,6,2,SimpleHill,0-0,1,71,44-70,50-69;46-67;49-68;36-70;48-61;41-70,36-70,0.54,89,-3,1414.124032,1