subj_id,date,computer,experimenter,version,generation,inherit_from,sight_radius,n_gabors,block_ix,landscape_name,starting_pos,starting_score,trial,pos,stims,selected,rt,score,delta,exp_time,landscape_ix
GEMS255,2018_Oct_31_1740,Elaine,AG,1.4,2,GEMS230,10,6,1,SimpleHill,0-0,1,0,0-0,4-8;7-6;2-7;1-7;6-8;1-4,2-7,8.49,17,16,414.585591933,1
GEMS255,2018_Oct_31_1740,Elaine,AG,1.4,2,GEMS230,10,6,1,SimpleHill,0-0,1,1,2-7,10-7;5-12;3-15;4-6;4-3;1-0,3-15,8.22,32,15,426.882051998,1
GEMS255,2018_Oct_31_1740,Elaine,AG,1.4,2,GEMS230,10,6,1,SimpleHill,0-0,1,2,3-15,6-18;12-16;7-20;9-9;13-15;8-7,9-9,2.54,33,1,433.506527486,1
GEMS255,2018_Oct_31_1740,Elaine,AG,1.4,2,GEMS230,10,6,1,SimpleHill,0-0,1,3,9-9,7-3;1-14;15-17;14-2;9-3;2-4,1-14,5.32,27,-6,442.903936401,1
GEMS255,2018_Oct_31_1740,Elaine,AG,1.4,2,GEMS230,10,6,1,SimpleHill,0-0,1,4,1-14,3-6;2-16;5-12;1-15;7-21;10-18,10-18,4.45,48,21,451.438821522,1
GEMS255,2018_Oct_31_1740,Elaine,AG,1.4,2,GEMS230,10,6,1,SimpleHill,0-0,1,5,10-18,7-11;3-20;8-15;3-15;4-17;14-22,4-17,14.55,36,-12,470.061228573,1
GEMS255,2018_Oct_31_1740,Elaine,AG,1.4,2,GEMS230,10,6,1,SimpleHill,0-0,1,6,4-17,10-13;7-20;10-15;1-18;5-22;2-25,10-13,2.72,41,5,476.856870961,1
GEMS255,2018_Oct_31_1740,Elaine,AG,1.4,2,GEMS230,10,6,1,SimpleHill,0-0,1,7,10-13,9-11;17-9;2-11;9-6;6-5;6-20,9-11,4.74,36,-5,485.687852842,1
GEMS255,2018_Oct_31_1740,Elaine,AG,1.4,2,GEMS230,10,6,1,SimpleHill,0-0,1,8,9-11,5-14;2-18;3-3;18-9;9-14;14-17,9-14,7.7,41,5,497.463711914,1
GEMS255,2018_Oct_31_1740,Elaine,AG,1.4,2,GEMS230,10,6,1,SimpleHill,0-0,1,9,9-14,8-5;9-15;7-12;6-14;12-22;8-6,6-14,3.65,36,-5,505.186378336,1
GEMS255,2018_Oct_31_1740,Elaine,AG,1.4,2,GEMS230,10,6,1,SimpleHill,0-0,1,10,6-14,9-13;13-15;1-9;3-8;2-17;12-8,1-9,1.08,19,-17,510.328987544,1
GEMS255,2018_Oct_31_1740,Elaine,AG,1.4,2,GEMS230,10,6,1,SimpleHill,0-0,1,11,1-9,1-19;10-11;1-6;7-4;5-13;4-12,4-12,2.85,29,10,517.242050423,1
GEMS255,2018_Oct_31_1740,Elaine,AG,1.4,2,GEMS230,10,6,1,SimpleHill,0-0,1,12,4-12,10-17;1-7;3-18;4-20;2-7;6-6,2-7,5.22,17,-12,526.542169145,1
GEMS255,2018_Oct_31_1740,Elaine,AG,1.4,2,GEMS230,10,6,1,SimpleHill,0-0,1,13,2-7,9-8;9-0;0-5;6-12;2-0;5-9,5-9,2.64,26,9,533.249248663,1
GEMS255,2018_Oct_31_1740,Elaine,AG,1.4,2,GEMS230,10,6,1,SimpleHill,0-0,1,14,5-9,6-2;5-0;2-4;4-7;5-18;1-18,1-18,13.03,32,6,550.359180269,1
GEMS255,2018_Oct_31_1740,Elaine,AG,1.4,2,GEMS230,10,6,1,SimpleHill,0-0,1,15,1-18,9-24;8-11;3-14;9-23;3-13;0-25,9-23,12.23,52,20,566.658271174,1
GEMS255,2018_Oct_31_1740,Elaine,AG,1.4,2,GEMS230,10,6,1,SimpleHill,0-0,1,16,9-23,2-23;1-29;2-27;18-27;4-27;18-19,2-23,4.16,40,-12,574.906373266,1
GEMS255,2018_Oct_31_1740,Elaine,AG,1.4,2,GEMS230,10,6,1,SimpleHill,0-0,1,17,2-23,6-26;0-32;5-15;10-27;10-18;10-23,6-26,2.69,50,10,581.681987467,1
GEMS255,2018_Oct_31_1740,Elaine,AG,1.4,2,GEMS230,10,6,1,SimpleHill,0-0,1,18,6-26,12-18;2-33;12-25;6-26;2-27;14-24,2-33,1.22,49,-1,586.970350472,1
GEMS255,2018_Oct_31_1740,Elaine,AG,1.4,2,GEMS230,10,6,1,SimpleHill,0-0,1,19,2-33,6-39;9-31;2-24;2-33;6-30;6-26,6-26,2.79,50,1,593.832042667,1
GEMS255,2018_Oct_31_1740,Elaine,AG,1.4,2,GEMS230,10,6,1,SimpleHill,0-0,1,20,6-26,5-19;7-35;0-28;11-29;9-21;3-23,7-35,6.65,59,9,604.545987529,1
GEMS255,2018_Oct_31_1740,Elaine,AG,1.4,2,GEMS230,10,6,1,SimpleHill,0-0,1,21,7-35,4-32;7-25;11-41;11-37;4-43;8-27,7-25,8.52,51,-8,617.131316985,1
GEMS255,2018_Oct_31_1740,Elaine,AG,1.4,2,GEMS230,10,6,1,SimpleHill,0-0,1,22,7-25,8-19;1-22;15-28;4-32;10-34;5-25,5-25,3.95,48,-3,625.144735903,1
GEMS255,2018_Oct_31_1740,Elaine,AG,1.4,2,GEMS230,10,6,1,SimpleHill,0-0,1,23,5-25,0-29;8-24;5-20;1-27;4-21;5-29,4-21,2.28,41,-7,631.512052283,1
GEMS255,2018_Oct_31_1740,Elaine,AG,1.4,2,GEMS230,10,6,1,SimpleHill,0-0,1,24,4-21,7-17;5-21;3-18;6-28;6-13;12-15,6-13,3.03,34,-7,638.60544599,1
GEMS255,2018_Oct_31_1740,Elaine,AG,1.4,2,GEMS230,10,6,1,SimpleHill,0-0,1,25,6-13,10-6;1-16;3-10;12-15;7-17;11-7,3-10,1.05,24,-10,643.713220492,1
GEMS255,2018_Oct_31_1740,Elaine,AG,1.4,2,GEMS230,10,6,1,SimpleHill,0-0,1,26,3-10,4-16;1-8;5-9;5-12;4-10;6-2,5-9,3.34,26,2,651.116040891,1
GEMS255,2018_Oct_31_1740,Elaine,AG,1.4,2,GEMS230,10,6,1,SimpleHill,0-0,1,27,5-9,13-4;1-15;0-9;10-3;3-1;3-8,3-8,5.57,21,-5,660.775219528,1
GEMS255,2018_Oct_31_1740,Elaine,AG,1.4,2,GEMS230,10,6,1,SimpleHill,0-0,1,28,3-8,5-5;2-10;4-10;5-1;0-5;8-11,5-1,2.06,12,-9,666.899492557,1
GEMS255,2018_Oct_31_1740,Elaine,AG,1.4,2,GEMS230,10,6,1,SimpleHill,0-0,1,29,5-1,1-2;0-7;3-2;6-8;5-10;11-5,3-2,2.26,10,-2,673.23716197,1
GEMS255,2018_Oct_31_1740,Elaine,AG,1.4,2,GEMS230,10,6,1,SimpleHill,0-0,1,30,3-2,11-4;10-2;5-0;6-8;3-6;3-3,5-0,0.43,10,0,677.746844608,1
GEMS255,2018_Oct_31_1740,Elaine,AG,1.4,2,GEMS230,10,6,1,SimpleHill,0-0,1,31,5-0,1-8;14-2;6-9;7-5;8-8;12-0,6-9,0.51,28,18,682.337744955,1
GEMS255,2018_Oct_31_1740,Elaine,AG,1.4,2,GEMS230,10,6,1,SimpleHill,0-0,1,32,6-9,9-17;6-16;3-11;8-12;7-2;11-9,3-11,0.62,26,-2,687.042369683,1
GEMS255,2018_Oct_31_1740,Elaine,AG,1.4,2,GEMS230,10,6,1,SimpleHill,0-0,1,33,3-11,4-4;0-15;10-11;8-3;4-20;3-5,10-11,0.43,38,12,691.546509279,1
GEMS255,2018_Oct_31_1740,Elaine,AG,1.4,2,GEMS230,10,6,1,SimpleHill,0-0,1,34,10-11,19-15;4-17;11-17;7-4;11-8;8-5,11-17,0.39,48,10,695.994234174,1
GEMS255,2018_Oct_31_1740,Elaine,AG,1.4,2,GEMS230,10,6,1,SimpleHill,0-0,1,35,11-17,5-24;17-18;9-16;12-21;6-14;9-20,9-16,0.44,44,-4,700.505765986,1
GEMS255,2018_Oct_31_1740,Elaine,AG,1.4,2,GEMS230,10,6,1,SimpleHill,0-0,1,36,9-16,9-18;5-20;3-22;8-10;8-15;17-13,3-22,0.41,41,-3,705.001736502,1
GEMS255,2018_Oct_31_1740,Elaine,AG,1.4,2,GEMS230,10,6,1,SimpleHill,0-0,1,37,3-22,0-23;3-12;9-14;3-18;4-24;12-23,9-14,0.37,41,0,709.45192963,1
GEMS255,2018_Oct_31_1740,Elaine,AG,1.4,2,GEMS230,10,6,1,SimpleHill,0-0,1,38,9-14,4-18;6-16;14-9;8-10;7-9;16-15,14-9,0.34,41,0,713.862867894,1
GEMS255,2018_Oct_31_1740,Elaine,AG,1.4,2,GEMS230,10,6,1,SimpleHill,0-0,1,39,14-9,6-12;16-13;22-3;16-7;20-17;9-14,22-3,0.34,41,0,718.275372372,1
GEMS255,2018_Oct_31_1740,Elaine,AG,1.4,2,GEMS230,10,6,1,SimpleHill,0-0,1,40,22-3,27-8;16-7;28-1;28-6;27-5;22-8,28-1,0.31,43,2,722.65846579,1
GEMS255,2018_Oct_31_1740,Elaine,AG,1.4,2,GEMS230,10,6,1,SimpleHill,0-0,1,41,28-1,32-7;27-8;22-2;33-1;31-0;22-3,22-2,0.63,39,-4,727.361039686,1
GEMS255,2018_Oct_31_1740,Elaine,AG,1.4,2,GEMS230,10,6,1,SimpleHill,0-0,1,42,22-2,31-1;15-4;14-4;26-7;15-5;30-7,14-4,0.36,32,-7,731.794128991,1
GEMS255,2018_Oct_31_1740,Elaine,AG,1.4,2,GEMS230,10,6,1,SimpleHill,0-0,1,43,14-4,20-4;16-12;20-0;10-8;10-0;18-0,16-12,6.48,49,17,742.354450582,1
GEMS255,2018_Oct_31_1740,Elaine,AG,1.4,2,GEMS230,10,6,1,SimpleHill,0-0,1,44,16-12,25-11;25-16;9-17;18-18;17-16;11-19,25-11,2.54,58,9,748.976846109,1
GEMS255,2018_Oct_31_1740,Elaine,AG,1.4,2,GEMS230,10,6,1,SimpleHill,0-0,1,45,25-11,20-15;24-4;23-20;34-7;30-15;28-9,30-15,8.43,68,10,761.481476407,1
GEMS255,2018_Oct_31_1740,Elaine,AG,1.4,2,GEMS230,10,6,1,SimpleHill,0-0,1,46,30-15,33-8;27-6;33-12;26-11;37-21;38-15,38-15,4.03,73,5,769.587018585,1
GEMS255,2018_Oct_31_1740,Elaine,AG,1.4,2,GEMS230,10,6,1,SimpleHill,0-0,1,47,38-15,38-9;30-14;39-24;39-6;35-9;38-22,30-14,5.26,67,-6,778.907258001,1
GEMS255,2018_Oct_31_1740,Elaine,AG,1.4,2,GEMS230,10,6,1,SimpleHill,0-0,1,48,30-14,37-19;40-14;32-6;26-8;25-11;28-8,40-14,1.53,73,6,784.513809911,1
GEMS255,2018_Oct_31_1740,Elaine,AG,1.4,2,GEMS230,10,6,1,SimpleHill,0-0,1,49,40-14,36-7;35-12;48-11;39-12;42-15;41-17,42-15,2.44,75,2,791.046694773,1
GEMS255,2018_Oct_31_1740,Elaine,AG,1.4,2,GEMS230,10,6,1,SimpleHill,0-0,1,50,42-15,47-14;46-6;41-20;33-17;45-13;49-18,45-13,2.78,73,-2,797.894120445,1
GEMS255,2018_Oct_31_1740,Elaine,AG,1.4,2,GEMS230,10,6,1,SimpleHill,0-0,1,51,45-13,42-19;51-17;38-14;54-15;44-13;36-15,54-15,5.21,76,3,807.168967865,1
GEMS255,2018_Oct_31_1740,Elaine,AG,1.4,2,GEMS230,10,6,1,SimpleHill,0-0,1,52,54-15,51-7;56-13;53-6;55-11;56-15;48-13,56-15,2.68,75,-1,813.909231692,1
GEMS255,2018_Oct_31_1740,Elaine,AG,1.4,2,GEMS230,10,6,1,SimpleHill,0-0,1,53,56-15,53-7;58-14;48-15;54-21;58-22;58-6,58-14,2.62,73,-2,820.645541736,1
GEMS255,2018_Oct_31_1740,Elaine,AG,1.4,2,GEMS230,10,6,1,SimpleHill,0-0,1,54,58-14,66-15;55-23;67-12;60-15;65-8;54-11,60-15,1.8,74,1,826.505581933,1
GEMS255,2018_Oct_31_1740,Elaine,AG,1.4,2,GEMS230,10,6,1,SimpleHill,0-0,1,55,60-15,58-20;52-12;54-20;66-18;67-13;58-10,52-12,5.76,72,-2,836.337960057,1
GEMS255,2018_Oct_31_1740,Elaine,AG,1.4,2,GEMS230,10,6,1,SimpleHill,0-0,1,56,52-12,49-3;58-20;46-7;50-17;52-13;47-20,52-13,3.52,73,1,843.933795589,1
GEMS255,2018_Oct_31_1740,Elaine,AG,1.4,2,GEMS230,10,6,1,SimpleHill,0-0,1,57,52-13,48-10;59-19;49-17;50-17;52-14;59-16,52-14,1.62,75,2,849.617458421,1
GEMS255,2018_Oct_31_1740,Elaine,AG,1.4,2,GEMS230,10,6,1,SimpleHill,0-0,1,58,52-14,51-18;61-15;48-18;51-5;53-6;61-11,61-15,2.72,74,-1,856.416139448,1
GEMS255,2018_Oct_31_1740,Elaine,AG,1.4,2,GEMS230,10,6,1,SimpleHill,0-0,1,59,61-15,56-13;67-12;57-15;58-16;56-17;62-19,58-16,2.65,76,2,863.152088107,1
GEMS255,2018_Oct_31_1740,Elaine,AG,1.4,2,GEMS230,10,6,1,SimpleHill,0-0,1,60,58-16,58-8;66-21;57-15;55-10;61-24;63-19,61-24,2.11,85,9,869.345780237,1
GEMS255,2018_Oct_31_1740,Elaine,AG,1.4,2,GEMS230,10,6,1,SimpleHill,0-0,1,61,61-24,59-30;54-27;63-23;54-24;63-17;54-28,63-23,5.01,83,-2,878.433769502,1
GEMS255,2018_Oct_31_1740,Elaine,AG,1.4,2,GEMS230,10,6,1,SimpleHill,0-0,1,62,63-23,57-20;61-18;64-15;56-27;56-25;61-14,61-18,3.67,78,-5,886.167310426,1
GEMS255,2018_Oct_31_1740,Elaine,AG,1.4,2,GEMS230,10,6,1,SimpleHill,0-0,1,63,61-18,68-25;62-23;63-17;63-20;67-23;66-14,63-17,3.56,75,-3,893.801215839,1
GEMS255,2018_Oct_31_1740,Elaine,AG,1.4,2,GEMS230,10,6,1,SimpleHill,0-0,1,64,63-17,65-13;57-14;61-8;58-20;57-23;67-12,58-20,1.69,81,6,899.553683833,1
GEMS255,2018_Oct_31_1740,Elaine,AG,1.4,2,GEMS230,10,6,1,SimpleHill,0-0,1,65,58-20,57-13;60-17;61-22;54-27;65-22;59-15,61-22,1.06,82,1,904.69300377,1
GEMS255,2018_Oct_31_1740,Elaine,AG,1.4,2,GEMS230,10,6,1,SimpleHill,0-0,1,66,61-22,57-20;70-18;70-20;67-27;66-18;54-23,54-23,2.2,86,4,910.977474451,1
GEMS255,2018_Oct_31_1740,Elaine,AG,1.4,2,GEMS230,10,6,1,SimpleHill,0-0,1,67,54-23,59-30;54-26;55-28;45-19;58-31;53-30,45-19,5.11,81,-5,920.164825548,1
GEMS255,2018_Oct_31_1740,Elaine,AG,1.4,2,GEMS230,10,6,1,SimpleHill,0-0,1,68,45-19,54-16;42-12;45-12;50-13;46-20;37-13,46-20,2.09,82,1,926.33603214,1
GEMS255,2018_Oct_31_1740,Elaine,AG,1.4,2,GEMS230,10,6,1,SimpleHill,0-0,1,69,46-20,46-10;52-14;44-16;38-15;39-24;43-28,46-10,7.52,68,-14,937.918962823,1
GEMS255,2018_Oct_31_1740,Elaine,AG,1.4,2,GEMS230,10,6,1,SimpleHill,0-0,1,70,46-10,41-9;44-3;51-3;39-9;43-16;51-15,39-9,2.56,64,-4,944.538038031,1
GEMS255,2018_Oct_31_1740,Elaine,AG,1.4,2,GEMS230,10,6,1,SimpleHill,0-0,1,71,39-9,35-13;41-0;47-13;41-4;39-11;37-14,41-4,2.5,57,-7,951.107762659,1
GEMS255,2018_Oct_31_1740,Elaine,AG,1.4,2,GEMS230,10,6,1,SimpleHill,0-0,1,72,41-4,31-4;35-5;50-4;46-10;41-0;36-10,50-4,3.0,58,1,958.188581212,1
GEMS255,2018_Oct_31_1740,Elaine,AG,1.4,2,GEMS230,10,6,1,SimpleHill,0-0,1,73,50-4,45-0;52-0;44-4;57-9;44-9;45-7,44-9,5.02,66,8,967.264803558,1
GEMS255,2018_Oct_31_1740,Elaine,AG,1.4,2,GEMS230,10,6,1,SimpleHill,0-0,1,74,44-9,46-4;52-15;43-7;48-15;35-11;47-16,43-7,2.65,63,-3,973.992414128,1
GEMS255,2018_Oct_31_1740,Elaine,AG,1.4,2,GEMS230,10,6,1,SimpleHill,0-0,1,75,43-7,48-9;46-2;42-11;35-9;35-5;39-14,48-9,12.2,67,4,990.260757268,1
GEMS255,2018_Oct_31_1740,Elaine,AG,1.4,2,GEMS230,10,6,1,SimpleHill,0-0,1,76,48-9,47-1;49-10;49-6;47-12;43-3;39-6,49-6,13.61,62,-5,1007.94797633,1
GEMS255,2018_Oct_31_1740,Elaine,AG,1.4,2,GEMS230,10,6,1,SimpleHill,0-0,1,77,49-6,47-8;55-6;42-11;42-1;49-1;44-0,47-8,2.68,65,3,1014.70621911,1
GEMS255,2018_Oct_31_1740,Elaine,AG,1.4,2,GEMS230,10,6,1,SimpleHill,0-0,1,78,47-8,49-9;49-0;45-7;46-3;54-1;54-2,49-9,2.27,67,2,1021.03845079,1
GEMS255,2018_Oct_31_1740,Elaine,AG,1.4,2,GEMS230,10,6,1,SimpleHill,0-0,1,79,49-9,55-3;49-16;57-14;48-8;46-1;46-14,55-3,24.71,56,-11,1049.84058337,1
GEMS255,2018_Oct_31_1740,Elaine,AG,1.4,2,GEMS230,10,6,2,SimpleHill,0-0,1,0,0-0,9-0;5-6;6-7;3-6;0-3;0-7,6-7,2.87,25,24,1223.45965378,1
GEMS255,2018_Oct_31_1740,Elaine,AG,1.4,2,GEMS230,10,6,2,SimpleHill,0-0,1,1,6-7,8-16;3-11;11-10;11-5;5-1;9-15,11-5,3.59,30,5,1231.12088709,1
GEMS255,2018_Oct_31_1740,Elaine,AG,1.4,2,GEMS230,10,6,2,SimpleHill,0-0,1,2,11-5,9-1;3-6;19-5;20-9;16-13;13-11,3-6,2.32,18,-12,1237.50878478,1
GEMS255,2018_Oct_31_1740,Elaine,AG,1.4,2,GEMS230,10,6,2,SimpleHill,0-0,1,3,3-6,11-7;5-1;6-6;8-14;9-10;0-12,6-6,8.08,23,5,1249.6525524,1
GEMS255,2018_Oct_31_1740,Elaine,AG,1.4,2,GEMS230,10,6,2,SimpleHill,0-0,1,4,6-6,6-1;8-15;13-1;12-4;11-14;8-1,12-4,9.34,29,6,1263.06821011,1
GEMS255,2018_Oct_31_1740,Elaine,AG,1.4,2,GEMS230,10,6,2,SimpleHill,0-0,1,5,12-4,7-1;20-6;15-11;10-7;17-8;15-4,15-11,5.63,46,17,1272.78594839,1
GEMS255,2018_Oct_31_1740,Elaine,AG,1.4,2,GEMS230,10,6,2,SimpleHill,0-0,1,6,15-11,9-5;19-17;18-13;7-10;13-13;18-14,9-5,12.36,26,-20,1289.23000854,1
GEMS255,2018_Oct_31_1740,Elaine,AG,1.4,2,GEMS230,10,6,2,SimpleHill,0-0,1,7,9-5,8-12;7-10;1-8;10-13;10-2;17-0,1-8,5.15,17,-9,1298.45212745,1
GEMS255,2018_Oct_31_1740,Elaine,AG,1.4,2,GEMS230,10,6,2,SimpleHill,0-0,1,8,1-8,3-7;3-0;5-15;0-6;9-5;4-13,4-13,3.67,31,14,1306.17722657,1
GEMS255,2018_Oct_31_1740,Elaine,AG,1.4,2,GEMS230,10,6,2,SimpleHill,0-0,1,9,4-13,6-6;6-15;10-17;2-8;6-8;12-17,6-15,4.8,37,6,1315.04448229,1
GEMS255,2018_Oct_31_1740,Elaine,AG,1.4,2,GEMS230,10,6,2,SimpleHill,0-0,1,10,6-15,15-18;15-15;12-9;1-8;10-11;8-18,1-8,9.06,17,-20,1328.1853566,1
GEMS255,2018_Oct_31_1740,Elaine,AG,1.4,2,GEMS230,10,6,2,SimpleHill,0-0,1,11,1-8,3-7;9-6;5-6;1-6;7-6;1-9,1-6,2.52,14,-3,1334.77359762,1
GEMS255,2018_Oct_31_1740,Elaine,AG,1.4,2,GEMS230,10,6,2,SimpleHill,0-0,1,12,1-6,4-2;3-5;7-0;2-2;5-8;4-15,2-2,0.29,8,-6,1339.1451389,1
GEMS255,2018_Oct_31_1740,Elaine,AG,1.4,2,GEMS230,10,6,2,SimpleHill,0-0,1,13,2-2,2-2;4-11;5-2;5-0;10-0;7-6,5-0,0.28,10,2,1343.49754729,1
GEMS255,2018_Oct_31_1740,Elaine,AG,1.4,2,GEMS230,10,6,2,SimpleHill,0-0,1,14,5-0,5-3;11-5;9-0;10-3;7-6;6-2,10-3,0.39,24,14,1347.95317943,1
GEMS255,2018_Oct_31_1740,Elaine,AG,1.4,2,GEMS230,10,6,2,SimpleHill,0-0,1,15,10-3,10-11;3-0;3-10;8-8;14-9;8-12,8-8,0.27,30,6,1352.29132482,1
GEMS255,2018_Oct_31_1740,Elaine,AG,1.4,2,GEMS230,10,6,2,SimpleHill,0-0,1,16,8-8,8-3;3-8;4-6;13-4;6-10;8-10,13-4,0.6,31,1,1356.96553308,1
GEMS255,2018_Oct_31_1740,Elaine,AG,1.4,2,GEMS230,10,6,2,SimpleHill,0-0,1,17,13-4,15-7;5-5;12-13;18-12;15-13;10-5,18-12,0.3,51,20,1361.33682469,1
GEMS255,2018_Oct_31_1740,Elaine,AG,1.4,2,GEMS230,10,6,2,SimpleHill,0-0,1,18,18-12,11-6;27-15;15-12;15-16;22-15;22-16,15-16,0.32,53,2,1365.73197919,1
GEMS255,2018_Oct_31_1740,Elaine,AG,1.4,2,GEMS230,10,6,2,SimpleHill,0-0,1,19,15-16,19-15;24-12;23-11;17-9;12-16;20-14,17-9,0.31,45,-8,1370.10159352,1
GEMS255,2018_Oct_31_1740,Elaine,AG,1.4,2,GEMS230,10,6,2,SimpleHill,0-0,1,20,17-9,12-2;24-9;26-7;19-5;22-13;15-15,22-13,0.35,57,12,1374.53277731,1
GEMS255,2018_Oct_31_1740,Elaine,AG,1.4,2,GEMS230,10,6,2,SimpleHill,0-0,1,21,22-13,28-6;22-16;17-10;14-18;16-8;20-7,16-8,0.33,42,-15,1378.93397708,1
GEMS255,2018_Oct_31_1740,Elaine,AG,1.4,2,GEMS230,10,6,2,SimpleHill,0-0,1,22,16-8,17-0;15-5;10-5;11-13;21-3;25-8,21-3,0.26,40,-2,1383.27064493,1
GEMS255,2018_Oct_31_1740,Elaine,AG,1.4,2,GEMS230,10,6,2,SimpleHill,0-0,1,23,21-3,15-0;14-7;29-2;20-11;20-5;20-12,20-5,0.32,42,2,1387.65219166,1
GEMS255,2018_Oct_31_1740,Elaine,AG,1.4,2,GEMS230,10,6,2,SimpleHill,0-0,1,24,20-5,27-3;22-5;27-10;20-1;15-9;16-14,15-9,0.55,42,0,1392.27183567,1
GEMS255,2018_Oct_31_1740,Elaine,AG,1.4,2,GEMS230,10,6,2,SimpleHill,0-0,1,25,15-9,24-7;16-6;7-8;6-7;9-12;14-15,9-12,0.36,38,-4,1396.72195742,1
GEMS255,2018_Oct_31_1740,Elaine,AG,1.4,2,GEMS230,10,6,2,SimpleHill,0-0,1,26,9-12,1-10;0-10;9-5;15-12;6-15;10-10,0-10,0.51,19,-19,1401.29522003,1
GEMS255,2018_Oct_31_1740,Elaine,AG,1.4,2,GEMS230,10,6,2,SimpleHill,0-0,1,27,0-10,6-6;3-16;7-16;4-12;0-3;8-14,3-16,0.31,33,14,1405.68819438,1
GEMS255,2018_Oct_31_1740,Elaine,AG,1.4,2,GEMS230,10,6,2,SimpleHill,0-0,1,28,3-16,0-14;3-12;1-21;11-16;10-11;2-10,3-12,0.43,27,-6,1410.20014295,1
GEMS255,2018_Oct_31_1740,Elaine,AG,1.4,2,GEMS230,10,6,2,SimpleHill,0-0,1,29,3-12,11-11;10-12;1-15;8-8;1-20;12-13,10-12,0.51,40,13,1414.77731069,1
GEMS255,2018_Oct_31_1740,Elaine,AG,1.4,2,GEMS230,10,6,2,SimpleHill,0-0,1,30,10-12,6-18;15-16;9-15;17-14;13-12;16-14,15-16,1.33,53,13,1420.17678644,1
GEMS255,2018_Oct_31_1740,Elaine,AG,1.4,2,GEMS230,10,6,2,SimpleHill,0-0,1,31,15-16,22-16;12-25;22-9;18-10;17-7;15-17,22-16,0.85,62,9,1425.12165659,1
GEMS255,2018_Oct_31_1740,Elaine,AG,1.4,2,GEMS230,10,6,2,SimpleHill,0-0,1,32,22-16,16-8;15-13;26-14;17-11;22-17;30-16,16-8,0.33,42,-20,1429.51835394,1
GEMS255,2018_Oct_31_1740,Elaine,AG,1.4,2,GEMS230,10,6,2,SimpleHill,0-0,1,33,16-8,9-2;26-8;23-10;16-8;22-11;24-14,9-2,0.27,21,-21,1433.84513957,1
GEMS255,2018_Oct_31_1740,Elaine,AG,1.4,2,GEMS230,10,6,2,SimpleHill,0-0,1,34,9-2,10-5;3-1;7-5;5-11;13-2;3-10,10-5,0.26,28,7,1438.16925723,1
GEMS255,2018_Oct_31_1740,Elaine,AG,1.4,2,GEMS230,10,6,2,SimpleHill,0-0,1,35,10-5,8-5;11-2;6-3;15-9;12-11;10-5,8-5,0.33,25,-3,1442.57798621,1
GEMS255,2018_Oct_31_1740,Elaine,AG,1.4,2,GEMS230,10,6,2,SimpleHill,0-0,1,36,8-5,10-10;2-11;13-4;10-1;14-3;11-10,10-10,0.25,37,12,1446.90037089,1
GEMS255,2018_Oct_31_1740,Elaine,AG,1.4,2,GEMS230,10,6,2,SimpleHill,0-0,1,37,10-10,9-2;18-5;6-15;6-16;8-1;18-6,9-2,2.0,21,-16,1452.96229342,1
GEMS255,2018_Oct_31_1740,Elaine,AG,1.4,2,GEMS230,10,6,2,SimpleHill,0-0,1,38,9-2,12-1;6-8;11-5;16-3;7-3;8-2,12-1,0.6,24,3,1457.64647288,1
GEMS255,2018_Oct_31_1740,Elaine,AG,1.4,2,GEMS230,10,6,2,SimpleHill,0-0,1,39,12-1,20-3;9-10;8-9;6-5;5-0;10-2,8-9,2.52,32,8,1464.2338791,1
GEMS255,2018_Oct_31_1740,Elaine,AG,1.4,2,GEMS230,10,6,2,SimpleHill,0-0,1,40,8-9,15-11;10-14;15-14;10-2;3-17;14-9,10-2,0.7,22,-10,1469.02589548,1
GEMS255,2018_Oct_31_1740,Elaine,AG,1.4,2,GEMS230,10,6,2,SimpleHill,0-0,1,41,10-2,18-7;7-9;16-3;7-4;18-1;5-8,18-1,0.46,32,10,1473.54683289,1
GEMS255,2018_Oct_31_1740,Elaine,AG,1.4,2,GEMS230,10,6,2,SimpleHill,0-0,1,42,18-1,19-1;16-10;11-3;15-3;16-4;24-4,16-10,5.14,45,13,1482.74849725,1
GEMS255,2018_Oct_31_1740,Elaine,AG,1.4,2,GEMS230,10,6,2,SimpleHill,0-0,1,43,16-10,16-7;23-9;19-19;10-8;22-7;7-10,7-10,10.96,32,-13,1497.78893517,1
GEMS255,2018_Oct_31_1740,Elaine,AG,1.4,2,GEMS230,10,6,2,SimpleHill,0-0,1,44,7-10,3-7;10-4;10-19;8-18;8-14;12-6,8-14,4.48,39,7,1506.32936461,1
GEMS255,2018_Oct_31_1740,Elaine,AG,1.4,2,GEMS230,10,6,2,SimpleHill,0-0,1,45,8-14,6-18;14-8;15-16;15-18;13-7;7-14,7-14,17.95,38,-1,1528.34988158,1
GEMS255,2018_Oct_31_1740,Elaine,AG,1.4,2,GEMS230,10,6,2,SimpleHill,0-0,1,46,7-14,12-8;11-6;7-17;16-17;11-17;11-20,11-6,16.91,31,-7,1549.31123682,1
GEMS255,2018_Oct_31_1740,Elaine,AG,1.4,2,GEMS230,10,6,2,SimpleHill,0-0,1,47,11-6,5-9;14-8;8-13;12-9;5-11;10-13,8-13,3.05,38,7,1556.42262996,1
GEMS255,2018_Oct_31_1740,Elaine,AG,1.4,2,GEMS230,10,6,2,SimpleHill,0-0,1,48,8-13,10-15;5-15;12-22;15-18;3-15;13-15,12-22,2.58,56,18,1563.08612665,1
GEMS255,2018_Oct_31_1740,Elaine,AG,1.4,2,GEMS230,10,6,2,SimpleHill,0-0,1,49,12-22,3-18;20-26;19-20;19-26;5-28;19-28,20-26,2.26,71,15,1569.4280168,1
GEMS255,2018_Oct_31_1740,Elaine,AG,1.4,2,GEMS230,10,6,2,SimpleHill,0-0,1,50,20-26,26-18;15-25;14-24;19-31;18-19;23-21,18-19,9.48,61,-10,1582.98178706,1
GEMS255,2018_Oct_31_1740,Elaine,AG,1.4,2,GEMS230,10,6,2,SimpleHill,0-0,1,51,18-19,25-15;15-28;17-27;14-12;26-19;24-15,14-12,2.08,46,-15,1589.14924505,1
GEMS255,2018_Oct_31_1740,Elaine,AG,1.4,2,GEMS230,10,6,2,SimpleHill,0-0,1,52,14-12,8-9;15-9;14-7;13-6;20-18;19-8,20-18,7.42,62,16,1600.64554686,1
GEMS255,2018_Oct_31_1740,Elaine,AG,1.4,2,GEMS230,10,6,2,SimpleHill,0-0,1,53,20-18,28-22;27-11;18-23;20-9;21-11;17-23,27-11,1.86,60,-2,1606.57696192,1
GEMS255,2018_Oct_31_1740,Elaine,AG,1.4,2,GEMS230,10,6,2,SimpleHill,0-0,1,54,27-11,33-7;29-7;36-14;28-15;25-18;35-7,25-18,2.26,68,8,1612.9255833,1
GEMS255,2018_Oct_31_1740,Elaine,AG,1.4,2,GEMS230,10,6,2,SimpleHill,0-0,1,55,25-18,21-22;25-21;31-20;21-21;28-18;23-20,23-20,5.69,68,0,1622.70310589,1
GEMS255,2018_Oct_31_1740,Elaine,AG,1.4,2,GEMS230,10,6,2,SimpleHill,0-0,1,56,23-20,23-24;21-21;30-18;17-16;20-11;20-16,20-11,2.62,52,-16,1629.40985795,1
GEMS255,2018_Oct_31_1740,Elaine,AG,1.4,2,GEMS230,10,6,2,SimpleHill,0-0,1,57,20-11,25-19;22-7;10-11;27-6;18-15;24-18,24-18,3.21,67,15,1636.69493041,1
GEMS255,2018_Oct_31_1740,Elaine,AG,1.4,2,GEMS230,10,6,2,SimpleHill,0-0,1,58,24-18,24-18;17-25;21-25;30-18;32-18;29-16,17-25,3.45,66,-1,1644.2098392,1
GEMS255,2018_Oct_31_1740,Elaine,AG,1.4,2,GEMS230,10,6,2,SimpleHill,0-0,1,59,17-25,25-23;13-27;16-20;26-28;23-23;18-25,16-20,2.2,59,-7,1650.4966808,1
GEMS255,2018_Oct_31_1740,Elaine,AG,1.4,2,GEMS230,10,6,2,SimpleHill,0-0,1,60,16-20,21-12;18-11;17-19;9-23;13-18;9-15,18-11,3.44,50,-9,1658.00664256,1
GEMS255,2018_Oct_31_1740,Elaine,AG,1.4,2,GEMS230,10,6,2,SimpleHill,0-0,1,61,18-11,24-4;11-11;19-9;16-13;16-6;21-5,21-5,4.39,43,-7,1666.44936217,1
GEMS255,2018_Oct_31_1740,Elaine,AG,1.4,2,GEMS230,10,6,2,SimpleHill,0-0,1,62,21-5,20-9;22-13;26-2;20-10;28-12;15-1,28-12,3.95,62,19,1674.48760298,1
GEMS255,2018_Oct_31_1740,Elaine,AG,1.4,2,GEMS230,10,6,2,SimpleHill,0-0,1,63,28-12,28-21;33-16;23-11;24-8;19-8;36-10,23-11,11.75,56,-6,1690.30968917,1
GEMS255,2018_Oct_31_1740,Elaine,AG,1.4,2,GEMS230,10,6,2,SimpleHill,0-0,1,64,23-11,24-18;21-17;24-16;29-14;15-10;17-4,24-18,6.23,67,11,1700.61793696,1
GEMS255,2018_Oct_31_1740,Elaine,AG,1.4,2,GEMS230,10,6,2,SimpleHill,0-0,1,65,24-18,29-10;33-17;18-26;26-22;21-20;30-22,18-26,7.81,69,2,1712.50805849,1
GEMS255,2018_Oct_31_1740,Elaine,AG,1.4,2,GEMS230,10,6,2,SimpleHill,0-0,1,66,18-26,20-24;18-35;24-18;25-23;10-20;12-34,24-18,14.69,67,-2,1731.2751976,1
GEMS255,2018_Oct_31_1740,Elaine,AG,1.4,2,GEMS230,10,6,2,SimpleHill,0-0,1,67,24-18,33-15;22-18;25-23;27-11;21-25;24-21,21-25,4.43,71,4,1739.7745723,1
GEMS255,2018_Oct_31_1740,Elaine,AG,1.4,2,GEMS230,10,6,2,SimpleHill,0-0,1,68,21-25,21-32;29-31;12-24;21-33;16-21;30-21,29-31,3.75,84,13,1747.60081297,1
GEMS255,2018_Oct_31_1740,Elaine,AG,1.4,2,GEMS230,10,6,2,SimpleHill,0-0,1,69,29-31,28-31;23-33;37-35;22-29;28-25;24-37,24-37,4.73,84,0,1756.40128556,1
GEMS255,2018_Oct_31_1740,Elaine,AG,1.4,2,GEMS230,10,6,2,SimpleHill,0-0,1,70,24-37,22-32;21-35;32-42;32-34;18-42;31-35,18-42,5.79,79,-5,1766.25200498,1
GEMS255,2018_Oct_31_1740,Elaine,AG,1.4,2,GEMS230,10,6,2,SimpleHill,0-0,1,71,18-42,9-38;11-36;21-35;17-38;18-52;12-41,18-52,3.14,80,1,1773.45179711,1
GEMS255,2018_Oct_31_1740,Elaine,AG,1.4,2,GEMS230,10,6,2,SimpleHill,0-0,1,72,18-52,12-46;23-47;9-48;21-48;26-46;22-58,9-48,7.35,67,-13,1784.87635659,1
GEMS255,2018_Oct_31_1740,Elaine,AG,1.4,2,GEMS230,10,6,2,SimpleHill,0-0,1,73,9-48,10-43;14-50;0-48;11-53;10-46;8-46,11-53,5.98,70,3,1794.93836459,1
GEMS255,2018_Oct_31_1740,Elaine,AG,1.4,2,GEMS230,10,6,2,SimpleHill,0-0,1,74,11-53,3-56;18-54;12-56;19-47;5-58;20-53,19-47,5.56,81,11,1804.57946376,1
GEMS255,2018_Oct_31_1740,Elaine,AG,1.4,2,GEMS230,10,6,2,SimpleHill,0-0,1,75,19-47,27-51;24-51;24-42;18-40;24-53;17-49,27-51,4.73,90,9,1813.38644319,1
GEMS255,2018_Oct_31_1740,Elaine,AG,1.4,2,GEMS230,10,6,2,SimpleHill,0-0,1,76,27-51,22-55;34-57;30-47;20-50;27-47;21-46,30-47,5.22,92,2,1822.66574021,1
GEMS255,2018_Oct_31_1740,Elaine,AG,1.4,2,GEMS230,10,6,2,SimpleHill,0-0,1,77,30-47,36-51;25-53;24-45;28-55;34-48;39-47,36-51,6.26,97,5,1833.00195641,1
GEMS255,2018_Oct_31_1740,Elaine,AG,1.4,2,GEMS230,10,6,2,SimpleHill,0-0,1,78,36-51,45-51;42-55;29-46;33-59;40-46;28-57,40-46,4.41,98,1,1841.49586008,1
GEMS255,2018_Oct_31_1740,Elaine,AG,1.4,2,GEMS230,10,6,2,SimpleHill,0-0,1,79,40-46,36-50;49-48;35-53;35-52;40-52;36-46,36-50,16.02,97,-1,1861.5703741,1
