subj_id,date,computer,experimenter,version,generation,inherit_from,sight_radius,n_gabors,block_ix,landscape_name,starting_pos,starting_score,trial,pos,stims,selected,rt,score,delta,exp_time,landscape_ix
GEMS203,2018_Oct_24_1142,George,AG,1.3,2,GEMS187,10,6,1,SimpleHill,0-0,0,0,0-0,4-0;8-2;1-1;8-3;1-9;4-1,8-2,2.97,18,18,127.073866737,1
GEMS203,2018_Oct_24_1142,George,AG,1.3,2,GEMS187,10,6,1,SimpleHill,0-0,0,1,8-2,7-11;17-4;10-0;0-4;11-11;1-6,0-4,4.82,7,-11,135.970124506,1
GEMS203,2018_Oct_24_1142,George,AG,1.3,2,GEMS187,10,6,1,SimpleHill,0-0,0,2,0-4,9-8;2-7;2-5;9-1;1-1;0-0,9-8,2.58,31,24,142.603606672,1
GEMS203,2018_Oct_24_1142,George,AG,1.3,2,GEMS187,10,6,1,SimpleHill,0-0,0,3,9-8,5-9;14-8;8-2;13-10;17-2;6-8,5-9,1.3,25,-6,147.95494701,1
GEMS203,2018_Oct_24_1142,George,AG,1.3,2,GEMS187,10,6,1,SimpleHill,0-0,0,4,5-9,10-11;5-9;14-6;3-16;4-16;10-9,5-9,3.21,25,0,155.231844445,1
GEMS203,2018_Oct_24_1142,George,AG,1.3,2,GEMS187,10,6,1,SimpleHill,0-0,0,5,5-9,11-14;8-4;11-11;0-5;0-7;11-12,0-5,2.84,9,-16,162.121838328,1
GEMS203,2018_Oct_24_1142,George,AG,1.3,2,GEMS187,10,6,1,SimpleHill,0-0,0,6,0-5,8-2;2-13;0-0;6-8;8-5;9-1,8-5,0.69,24,15,166.868217684,1
GEMS203,2018_Oct_24_1142,George,AG,1.3,2,GEMS187,10,6,1,SimpleHill,0-0,0,7,8-5,6-4;7-9;15-1;8-14;7-11;3-4,3-4,1.23,13,-11,172.1763334,1
GEMS203,2018_Oct_24_1142,George,AG,1.3,2,GEMS187,10,6,1,SimpleHill,0-0,0,8,3-4,4-12;6-0;12-4;12-6;2-13;1-0,6-0,1.41,11,-2,177.659374431,1
GEMS203,2018_Oct_24_1142,George,AG,1.3,2,GEMS187,10,6,1,SimpleHill,0-0,0,9,6-0,0-8;10-3;6-8;8-4;9-2;7-2,6-8,0.66,26,15,182.379129791,1
GEMS203,2018_Oct_24_1142,George,AG,1.3,2,GEMS187,10,6,1,SimpleHill,0-0,0,10,6-8,12-2;4-8;12-14;4-5;2-10;12-16,4-5,2.81,17,-9,189.256904471,1
GEMS203,2018_Oct_24_1142,George,AG,1.3,2,GEMS187,10,6,1,SimpleHill,0-0,0,11,4-5,5-8;8-0;5-0;12-9;7-14;3-10,8-0,0.76,14,-3,194.079993944,1
GEMS203,2018_Oct_24_1142,George,AG,1.3,2,GEMS187,10,6,1,SimpleHill,0-0,0,12,8-0,5-3;5-0;12-0;6-3;6-5;2-5,2-5,0.59,13,-1,198.754609249,1
GEMS203,2018_Oct_24_1142,George,AG,1.3,2,GEMS187,10,6,1,SimpleHill,0-0,0,13,2-5,3-2;0-12;5-14;3-14;1-7;4-6,3-2,0.65,9,-4,203.484338684,1
GEMS203,2018_Oct_24_1142,George,AG,1.3,2,GEMS187,10,6,1,SimpleHill,0-0,0,14,3-2,12-2;4-11;9-3;1-1;5-4;12-4,9-3,1.03,22,13,208.572819875,1
GEMS203,2018_Oct_24_1142,George,AG,1.3,2,GEMS187,10,6,1,SimpleHill,0-0,0,15,9-3,1-3;5-0;13-1;2-0;6-11;9-13,5-0,2.12,9,-13,214.750194856,1
GEMS203,2018_Oct_24_1142,George,AG,1.3,2,GEMS187,10,6,1,SimpleHill,0-0,0,16,5-0,13-0;4-1;10-1;8-2;5-5;13-3,8-2,0.59,18,9,219.397431387,1
GEMS203,2018_Oct_24_1142,George,AG,1.3,2,GEMS187,10,6,1,SimpleHill,0-0,0,17,8-2,3-4;9-7;7-8;12-8;2-0;8-5,2-0,1.41,3,-15,224.870532272,1
GEMS203,2018_Oct_24_1142,George,AG,1.3,2,GEMS187,10,6,1,SimpleHill,0-0,0,18,2-0,10-6;6-5;5-1;10-0;2-6;0-2,10-0,0.7,18,15,229.643030518,1
GEMS203,2018_Oct_24_1142,George,AG,1.3,2,GEMS187,10,6,1,SimpleHill,0-0,0,19,10-0,14-7;9-6;15-3;13-4;14-3;2-4,14-7,1.54,37,19,235.243248053,1
GEMS203,2018_Oct_24_1142,George,AG,1.3,2,GEMS187,10,6,1,SimpleHill,0-0,0,20,14-7,21-13;8-2;20-6;12-0;6-2;7-4,12-0,1.42,21,-16,240.737821689,1
GEMS203,2018_Oct_24_1142,George,AG,1.3,2,GEMS187,10,6,1,SimpleHill,0-0,0,21,12-0,4-3;14-8;17-7;12-3;19-2;17-8,14-8,1.49,38,17,246.285702214,1
GEMS203,2018_Oct_24_1142,George,AG,1.3,2,GEMS187,10,6,1,SimpleHill,0-0,0,22,14-8,21-11;9-1;6-14;16-13;15-6;10-7,9-1,2.93,18,-20,253.270697567,1
GEMS203,2018_Oct_24_1142,George,AG,1.3,2,GEMS187,10,6,1,SimpleHill,0-0,0,23,9-1,5-4;3-9;5-8;14-3;1-2;5-9,5-9,2.16,25,7,259.515474702,1
GEMS203,2018_Oct_24_1142,George,AG,1.3,2,GEMS187,10,6,1,SimpleHill,0-0,0,24,5-9,4-1;7-12;11-10;13-3;8-11;9-6,13-3,6.01,28,3,269.599217566,1
GEMS203,2018_Oct_24_1142,George,AG,1.3,2,GEMS187,10,6,1,SimpleHill,0-0,0,25,13-3,10-6;16-1;9-2;22-4;9-5;11-7,10-6,2.17,29,1,275.823869538,1
GEMS203,2018_Oct_24_1142,George,AG,1.3,2,GEMS187,10,6,1,SimpleHill,0-0,0,26,10-6,5-3;5-14;2-9;10-7;6-14;13-9,5-14,5.99,33,4,285.873870514,1
GEMS203,2018_Oct_24_1142,George,AG,1.3,2,GEMS187,10,6,1,SimpleHill,0-0,0,27,5-14,7-12;10-13;13-10;2-18;2-19;7-10,13-10,3.04,40,7,292.977356031,1
GEMS203,2018_Oct_24_1142,George,AG,1.3,2,GEMS187,10,6,1,SimpleHill,0-0,0,28,13-10,14-18;8-17;18-13;11-16;19-15;7-14,14-18,2.68,53,13,299.730013037,1
GEMS203,2018_Oct_24_1142,George,AG,1.3,2,GEMS187,10,6,1,SimpleHill,0-0,0,29,14-18,13-9;5-20;10-11;11-14;9-21;12-22,13-9,1.92,39,-14,305.728734589,1
GEMS203,2018_Oct_24_1142,George,AG,1.3,2,GEMS187,10,6,1,SimpleHill,0-0,0,30,13-9,13-5;15-14;14-2;17-6;19-1;22-9,15-14,1.95,49,10,311.731959198,1
GEMS203,2018_Oct_24_1142,George,AG,1.3,2,GEMS187,10,6,1,SimpleHill,0-0,0,31,15-14,17-18;7-17;21-17;11-22;11-7;9-20,11-7,2.02,32,-17,317.820661893,1
GEMS203,2018_Oct_24_1142,George,AG,1.3,2,GEMS187,10,6,1,SimpleHill,0-0,0,32,11-7,8-13;6-1;3-5;13-11;6-7;13-6,8-13,3.0,37,5,324.873485443,1
GEMS203,2018_Oct_24_1142,George,AG,1.3,2,GEMS187,10,6,1,SimpleHill,0-0,0,33,8-13,7-14;3-12;16-17;5-6;1-20;1-10,16-17,2.26,55,18,331.208838132,1
GEMS203,2018_Oct_24_1142,George,AG,1.3,2,GEMS187,10,6,1,SimpleHill,0-0,0,34,16-17,14-9;13-18;16-12;21-23;16-19;12-25,21-23,5.68,68,13,340.948329102,1
GEMS203,2018_Oct_24_1142,George,AG,1.3,2,GEMS187,10,6,1,SimpleHill,0-0,0,35,21-23,21-29;23-26;12-21;18-24;23-30;21-27,18-24,1.11,66,-2,346.133280347,1
GEMS203,2018_Oct_24_1142,George,AG,1.3,2,GEMS187,10,6,1,SimpleHill,0-0,0,36,18-24,11-25;12-19;19-28;21-33;17-32;15-28,17-32,1.43,71,5,351.626413247,1
GEMS203,2018_Oct_24_1142,George,AG,1.3,2,GEMS187,10,6,1,SimpleHill,0-0,0,37,17-32,17-31;20-40;18-31;13-24;9-34;18-37,18-37,0.81,76,5,356.503789413,1
GEMS203,2018_Oct_24_1142,George,AG,1.3,2,GEMS187,10,6,1,SimpleHill,0-0,0,38,18-37,23-35;18-27;10-32;21-30;15-32;17-30,23-35,2.24,80,4,362.799748343,1
GEMS203,2018_Oct_24_1142,George,AG,1.3,2,GEMS187,10,6,1,SimpleHill,0-0,0,39,23-35,26-29;18-35;24-34;31-39;16-29;28-29,16-29,1.86,68,-12,368.746523718,1
GEMS203,2018_Oct_24_1142,George,AG,1.3,2,GEMS187,10,6,1,SimpleHill,0-0,0,40,16-29,14-35;9-27;16-31;11-26;22-30;10-28,16-31,1.03,69,1,373.819098883,1
GEMS203,2018_Oct_24_1142,George,AG,1.3,2,GEMS187,10,6,1,SimpleHill,0-0,0,41,16-31,15-31;19-27;7-35;20-30;16-34;20-27,19-27,31.33,70,1,409.212399159,1
GEMS203,2018_Oct_24_1142,George,AG,1.3,2,GEMS187,10,6,1,SimpleHill,0-0,0,42,19-27,17-28;25-35;27-30;16-24;22-29;28-29,22-29,1.11,75,5,414.386526803,1
GEMS203,2018_Oct_24_1142,George,AG,1.3,2,GEMS187,10,6,1,SimpleHill,0-0,0,43,22-29,24-23;25-30;23-31;14-31;26-27;20-22,25-30,2.25,79,4,420.696057007,1
GEMS203,2018_Oct_24_1142,George,AG,1.3,2,GEMS187,10,6,1,SimpleHill,0-0,0,44,25-30,18-32;18-30;26-25;22-37;19-26;23-38,22-37,0.72,80,1,425.466478175,1
GEMS203,2018_Oct_24_1142,George,AG,1.3,2,GEMS187,10,6,1,SimpleHill,0-0,0,45,22-37,15-40;27-30;20-29;30-41;18-30;14-39,14-39,1.57,71,-9,431.119351852,1
GEMS203,2018_Oct_24_1142,George,AG,1.3,2,GEMS187,10,6,1,SimpleHill,0-0,0,46,14-39,15-40;13-31;23-35;14-32;18-43;19-44,14-32,1.89,67,-4,437.08681255,1
GEMS203,2018_Oct_24_1142,George,AG,1.3,2,GEMS187,10,6,1,SimpleHill,0-0,0,47,14-32,14-35;21-32;20-35;9-32;10-33;22-27,22-27,2.05,73,6,443.203205148,1
GEMS203,2018_Oct_24_1142,George,AG,1.3,2,GEMS187,10,6,1,SimpleHill,0-0,0,48,22-27,24-29;13-24;17-32;25-34;30-27;29-21,29-21,2.06,74,1,449.323857534,1
GEMS203,2018_Oct_24_1142,George,AG,1.3,2,GEMS187,10,6,1,SimpleHill,0-0,0,49,29-21,32-20;34-15;33-21;32-28;30-29;33-30,32-28,1.86,83,9,455.25308545,1
GEMS203,2018_Oct_24_1142,George,AG,1.3,2,GEMS187,10,6,1,SimpleHill,0-0,0,50,32-28,31-21;29-27;29-19;35-23;30-24;35-33,35-33,3.31,89,6,462.646465749,1
GEMS203,2018_Oct_24_1142,George,AG,1.3,2,GEMS187,10,6,1,SimpleHill,0-0,0,51,35-33,29-26;33-35;35-29;28-27;36-41;34-38,28-27,1.86,79,-10,468.581051049,1
GEMS203,2018_Oct_24_1142,George,AG,1.3,2,GEMS187,10,6,1,SimpleHill,0-0,0,52,28-27,29-21;25-32;20-22;22-21;32-29;36-23,32-29,8.84,84,5,481.543669071,1
GEMS203,2018_Oct_24_1142,George,AG,1.3,2,GEMS187,10,6,1,SimpleHill,0-0,0,53,32-29,25-36;26-33;38-32;33-38;37-37;23-25,26-33,6.45,82,-2,492.050654285,1
GEMS203,2018_Oct_24_1142,George,AG,1.3,2,GEMS187,10,6,1,SimpleHill,0-0,0,54,26-33,21-31;31-33;30-36;31-38;25-29;26-35,25-29,1.77,78,-4,497.895059984,1
GEMS203,2018_Oct_24_1142,George,AG,1.3,2,GEMS187,10,6,1,SimpleHill,0-0,0,55,25-29,27-27;25-30;26-25;34-32;19-24;26-26,26-26,0.76,76,-2,502.721276118,1
GEMS203,2018_Oct_24_1142,George,AG,1.3,2,GEMS187,10,6,1,SimpleHill,0-0,0,56,26-26,33-29;17-28;22-26;27-22;24-30;32-23,22-26,0.95,72,-4,507.735613052,1
GEMS203,2018_Oct_24_1142,George,AG,1.3,2,GEMS187,10,6,1,SimpleHill,0-0,0,57,22-26,15-23;16-19;28-27;14-28;17-23;26-31,26-31,2.81,81,9,514.595983674,1
GEMS203,2018_Oct_24_1142,George,AG,1.3,2,GEMS187,10,6,1,SimpleHill,0-0,0,58,26-31,26-27;21-39;31-28;17-27;18-27;22-30,21-39,1.13,80,-1,519.797432796,1
GEMS203,2018_Oct_24_1142,George,AG,1.3,2,GEMS187,10,6,1,SimpleHill,0-0,0,59,21-39,15-40;24-33;14-45;28-33;27-38;23-32,28-33,2.8,84,4,526.662447637,1
GEMS203,2018_Oct_24_1142,George,AG,1.3,2,GEMS187,10,6,1,SimpleHill,0-0,0,60,28-33,31-28;31-26;23-31;21-29;33-35;27-29,33-35,1.64,89,5,532.375544437,1
GEMS203,2018_Oct_24_1142,George,AG,1.3,2,GEMS187,10,6,1,SimpleHill,0-0,0,61,33-35,24-31;33-33;42-35;31-28;25-29;27-38,27-38,1.48,86,-3,537.919055062,1
GEMS203,2018_Oct_24_1142,George,AG,1.3,2,GEMS187,10,6,1,SimpleHill,0-0,0,62,27-38,21-42;30-35;34-44;21-43;25-41;18-35,30-35,0.99,87,1,542.960380577,1
GEMS203,2018_Oct_24_1142,George,AG,1.3,2,GEMS187,10,6,1,SimpleHill,0-0,0,63,30-35,35-27;31-28;30-27;30-29;36-40;32-34,30-27,1.46,81,-6,548.470639695,1
GEMS203,2018_Oct_24_1142,George,AG,1.3,2,GEMS187,10,6,1,SimpleHill,0-0,0,64,30-27,29-24;27-21;25-19;22-23;22-29;32-23,22-29,2.78,75,-6,555.331614971,1
GEMS203,2018_Oct_24_1142,George,AG,1.3,2,GEMS187,10,6,1,SimpleHill,0-0,0,65,22-29,30-29;25-26;28-27;18-20;21-34;19-34,19-34,1.73,75,0,561.146985739,1
GEMS203,2018_Oct_24_1142,George,AG,1.3,2,GEMS187,10,6,1,SimpleHill,0-0,0,66,19-34,16-30;20-32;13-34;14-35;12-34;24-41,20-32,2.28,75,0,567.492649881,1
GEMS203,2018_Oct_24_1142,George,AG,1.3,2,GEMS187,10,6,1,SimpleHill,0-0,0,67,20-32,26-38;27-29;20-40;19-25;11-29;16-29,20-40,1.02,80,5,572.58397029,1
GEMS203,2018_Oct_24_1142,George,AG,1.3,2,GEMS187,10,6,1,SimpleHill,0-0,0,68,20-40,19-49;29-39;18-48;22-45;12-43;15-42,29-39,4.62,88,8,581.274650387,1
GEMS203,2018_Oct_24_1142,George,AG,1.3,2,GEMS187,10,6,1,SimpleHill,0-0,0,69,29-39,34-43;26-32;25-33;30-41;32-36;31-40,34-43,5.1,93,5,590.445707706,1
GEMS203,2018_Oct_24_1142,George,AG,1.3,2,GEMS187,10,6,1,SimpleHill,0-0,0,70,34-43,28-36;42-45;33-34;29-37;32-52;40-49,29-37,1.87,87,-6,596.395894944,1
GEMS203,2018_Oct_24_1142,George,AG,1.3,2,GEMS187,10,6,1,SimpleHill,0-0,0,71,29-37,24-35;25-30;25-44;25-37;22-36;27-41,25-30,3.74,79,-8,604.204493199,1
GEMS203,2018_Oct_24_1142,George,AG,1.3,2,GEMS187,10,6,1,SimpleHill,0-0,0,72,25-30,33-36;24-27;27-30;24-38;31-34;30-35,33-36,1.88,90,11,610.143906451,1
GEMS203,2018_Oct_24_1142,George,AG,1.3,2,GEMS187,10,6,1,SimpleHill,0-0,0,73,33-36,43-36;27-41;39-30;30-29;31-39;31-41,39-30,3.48,89,-1,617.698463461,1
GEMS203,2018_Oct_24_1142,George,AG,1.3,2,GEMS187,10,6,1,SimpleHill,0-0,0,74,39-30,34-38;38-34;44-28;34-31;46-23;44-23,34-38,1.58,92,3,623.341274396,1
GEMS203,2018_Oct_24_1142,George,AG,1.3,2,GEMS187,10,6,1,SimpleHill,0-0,0,75,34-38,31-47;38-33;27-40;31-35;42-41;42-36,31-47,1.55,92,0,628.940652969,1
GEMS203,2018_Oct_24_1142,George,AG,1.3,2,GEMS187,10,6,1,SimpleHill,0-0,0,76,31-47,30-49;30-55;22-43;25-49;33-43;25-44,22-43,1.64,83,-9,634.640073186,1
GEMS203,2018_Oct_24_1142,George,AG,1.3,2,GEMS187,10,6,1,SimpleHill,0-0,0,77,22-43,23-44;23-45;13-40;27-39;23-47;22-43,13-40,4.73,70,-13,643.430849342,1
GEMS203,2018_Oct_24_1142,George,AG,1.3,2,GEMS187,10,6,1,SimpleHill,0-0,0,78,13-40,12-36;12-35;12-48;10-44;9-48;4-44,12-35,1.26,66,-4,648.759957031,1
GEMS203,2018_Oct_24_1142,George,AG,1.3,2,GEMS187,10,6,1,SimpleHill,0-0,0,79,12-35,21-31;5-32;18-40;19-32;8-27;11-36,18-40,1.56,77,11,654.396911877,1
GEMS203,2018_Oct_24_1142,George,AG,1.3,2,GEMS187,10,6,2,SimpleHill,0-0,0,0,0-0,3-0;2-5;4-2;5-8;4-4;3-8,2-5,1.64,13,13,714.372925122,1
GEMS203,2018_Oct_24_1142,George,AG,1.3,2,GEMS187,10,6,2,SimpleHill,0-0,0,1,2-5,6-12;5-7;9-5;10-3;5-9;5-13,6-12,1.06,32,19,719.491823082,1
GEMS203,2018_Oct_24_1142,George,AG,1.3,2,GEMS187,10,6,2,SimpleHill,0-0,0,2,6-12,8-4;12-4;4-20;7-18;2-12;3-8,4-20,0.82,39,7,724.376826727,1
GEMS203,2018_Oct_24_1142,George,AG,1.3,2,GEMS187,10,6,2,SimpleHill,0-0,0,3,4-20,8-29;0-21;11-14;2-12;8-15;0-16,8-29,0.95,55,16,729.389122111,1
GEMS203,2018_Oct_24_1142,George,AG,1.3,2,GEMS187,10,6,2,SimpleHill,0-0,0,4,8-29,1-31;6-32;5-37;1-36;2-37;6-33,5-37,2.03,56,1,735.482884185,1
GEMS203,2018_Oct_24_1142,George,AG,1.3,2,GEMS187,10,6,2,SimpleHill,0-0,0,5,5-37,8-45;2-41;1-40;7-42;0-34;5-34,8-45,1.37,64,8,740.927954588,1
GEMS203,2018_Oct_24_1142,George,AG,1.3,2,GEMS187,10,6,2,SimpleHill,0-0,0,6,8-45,10-44;15-47;6-43;13-51;3-39;4-39,13-51,1.19,72,8,746.192666109,1
GEMS203,2018_Oct_24_1142,George,AG,1.3,2,GEMS187,10,6,2,SimpleHill,0-0,0,7,13-51,5-49;14-46;7-43;20-58;12-58;9-56,12-58,1.23,69,-3,751.490092663,1
GEMS203,2018_Oct_24_1142,George,AG,1.3,2,GEMS187,10,6,2,SimpleHill,0-0,0,8,12-58,15-54;16-54;18-50;20-64;13-50;17-53,13-50,2.3,72,3,757.866111477,1
GEMS203,2018_Oct_24_1142,George,AG,1.3,2,GEMS187,10,6,2,SimpleHill,0-0,0,9,13-50,6-50;18-44;12-47;12-45;5-53;7-49,7-49,2.64,63,-9,764.56107761,1
GEMS203,2018_Oct_24_1142,George,AG,1.3,2,GEMS187,10,6,2,SimpleHill,0-0,0,10,7-49,9-48;14-43;12-41;4-40;0-43;11-49,11-49,0.76,69,6,769.37808789,1
GEMS203,2018_Oct_24_1142,George,AG,1.3,2,GEMS187,10,6,2,SimpleHill,0-0,0,11,11-49,13-56;20-46;7-41;13-51;20-51;7-54,7-54,1.1,62,-7,774.539785071,1
GEMS203,2018_Oct_24_1142,George,AG,1.3,2,GEMS187,10,6,2,SimpleHill,0-0,0,12,7-54,0-60;2-51;5-63;8-48;7-62;0-59,0-60,1.06,48,-14,779.651442544,1
GEMS203,2018_Oct_24_1142,George,AG,1.3,2,GEMS187,10,6,2,SimpleHill,0-0,0,13,0-60,1-66;7-62;5-56;2-60;2-56;5-65,5-65,0.84,55,7,784.55563316,1
GEMS203,2018_Oct_24_1142,George,AG,1.3,2,GEMS187,10,6,2,SimpleHill,0-0,0,14,5-65,0-59;0-57;13-62;8-64;14-65;8-67,8-67,0.99,58,3,789.615493939,1
GEMS203,2018_Oct_24_1142,George,AG,1.3,2,GEMS187,10,6,2,SimpleHill,0-0,0,15,8-67,13-63;9-61;15-60;5-67;7-62;18-67,18-67,0.88,73,15,794.552778577,1
GEMS203,2018_Oct_24_1142,George,AG,1.3,2,GEMS187,10,6,2,SimpleHill,0-0,0,16,18-67,25-67;11-61;24-63;14-64;13-59;20-59,20-59,1.13,80,7,799.738324234,1
GEMS203,2018_Oct_24_1142,George,AG,1.3,2,GEMS187,10,6,2,SimpleHill,0-0,0,17,20-59,14-65;23-61;15-57;19-59;12-62;21-50,21-50,1.87,83,3,805.669905467,1
GEMS203,2018_Oct_24_1142,George,AG,1.3,2,GEMS187,10,6,2,SimpleHill,0-0,0,18,21-50,25-56;12-46;21-45;29-49;14-44;24-58,24-58,0.61,85,2,810.357674965,1
GEMS203,2018_Oct_24_1142,George,AG,1.3,2,GEMS187,10,6,2,SimpleHill,0-0,0,19,24-58,22-59;19-52;25-62;29-52;15-59;23-57,23-57,0.41,84,-1,814.845184163,1
GEMS203,2018_Oct_24_1142,George,AG,1.3,2,GEMS187,10,6,2,SimpleHill,0-0,0,20,23-57,20-62;31-53;28-59;26-62;15-51;23-63,20-62,0.54,79,-5,819.434805043,1
GEMS203,2018_Oct_24_1142,George,AG,1.3,2,GEMS187,10,6,2,SimpleHill,0-0,0,21,20-62,16-60;19-62;24-57;18-61;25-70;24-55,25-70,1.13,79,0,824.63394726,1
GEMS203,2018_Oct_24_1142,George,AG,1.3,2,GEMS187,10,6,2,SimpleHill,0-0,0,22,25-70,22-63;30-65;34-67;23-69;22-68;17-69,30-65,0.4,87,8,829.090404305,1
GEMS203,2018_Oct_24_1142,George,AG,1.3,2,GEMS187,10,6,2,SimpleHill,0-0,0,23,30-65,22-62;27-70;35-58;27-59;29-57;21-66,27-70,0.34,81,-6,833.5045077,1
GEMS203,2018_Oct_24_1142,George,AG,1.3,2,GEMS187,10,6,2,SimpleHill,0-0,0,24,27-70,29-67;20-67;29-70;22-69;28-61;32-70,28-61,0.27,87,6,837.854449235,1
GEMS203,2018_Oct_24_1142,George,AG,1.3,2,GEMS187,10,6,2,SimpleHill,0-0,0,25,28-61,25-68;31-52;21-60;27-64;22-65;20-60,22-65,0.34,79,-8,842.264936546,1
GEMS203,2018_Oct_24_1142,George,AG,1.3,2,GEMS187,10,6,2,SimpleHill,0-0,0,26,22-65,30-69;29-58;16-70;28-66;25-69;16-61,29-58,0.2,89,10,846.534217386,1
GEMS203,2018_Oct_24_1142,George,AG,1.3,2,GEMS187,10,6,2,SimpleHill,0-0,0,27,29-58,23-58;33-58;24-66;27-63;26-66;24-60,23-58,0.88,84,-5,851.497334431,1
GEMS203,2018_Oct_24_1142,George,AG,1.3,2,GEMS187,10,6,2,SimpleHill,0-0,0,28,23-58,28-55;25-64;16-56;27-61;19-66;20-58,25-64,0.23,83,-1,855.798160686,1
GEMS203,2018_Oct_24_1142,George,AG,1.3,2,GEMS187,10,6,2,SimpleHill,0-0,0,29,25-64,18-69;16-61;21-58;18-57;18-64;27-64,18-64,0.26,75,-8,860.112935922,1
GEMS203,2018_Oct_24_1142,George,AG,1.3,2,GEMS187,10,6,2,SimpleHill,0-0,0,30,18-64,18-59;23-60;18-68;22-56;26-65;20-65,22-56,0.37,83,8,864.549772911,1
GEMS203,2018_Oct_24_1142,George,AG,1.3,2,GEMS187,10,6,2,SimpleHill,0-0,0,31,22-56,29-58;23-60;18-49;21-50;14-50;25-49,21-50,0.8,83,0,869.405305338,1
GEMS203,2018_Oct_24_1142,George,AG,1.3,2,GEMS187,10,6,2,SimpleHill,0-0,0,32,21-50,26-48;15-55;28-46;29-44;23-43;22-51,28-46,0.43,90,7,873.916702383,1
GEMS203,2018_Oct_24_1142,George,AG,1.3,2,GEMS187,10,6,2,SimpleHill,0-0,0,33,28-46,24-55;23-47;22-45;31-52;29-53;28-47,22-45,1.04,83,-7,879.019791306,1
GEMS203,2018_Oct_24_1142,George,AG,1.3,2,GEMS187,10,6,2,SimpleHill,0-0,0,34,22-45,19-50;30-51;30-43;21-47;21-45;27-47,21-45,0.45,82,-1,883.517371889,1
GEMS203,2018_Oct_24_1142,George,AG,1.3,2,GEMS187,10,6,2,SimpleHill,0-0,0,35,21-45,20-46;27-42;17-53;19-45;18-47;25-49,25-49,0.75,87,5,888.34159993,1
GEMS203,2018_Oct_24_1142,George,AG,1.3,2,GEMS187,10,6,2,SimpleHill,0-0,0,36,25-49,22-51;19-50;23-46;17-44;27-40;32-46,22-51,3.97,84,-3,896.371918111,1
GEMS203,2018_Oct_24_1142,George,AG,1.3,2,GEMS187,10,6,2,SimpleHill,0-0,0,37,22-51,26-43;16-57;27-44;24-60;13-48;25-51,27-44,1.93,88,4,902.361643789,1
GEMS203,2018_Oct_24_1142,George,AG,1.3,2,GEMS187,10,6,2,SimpleHill,0-0,0,38,27-44,27-35;21-46;28-49;19-50;20-43;34-38,21-46,2.91,82,-6,909.341479575,1
GEMS203,2018_Oct_24_1142,George,AG,1.3,2,GEMS187,10,6,2,SimpleHill,0-0,0,39,21-46,21-39;26-47;27-54;27-48;23-41;16-38,23-41,1.68,83,1,915.090251621,1
GEMS203,2018_Oct_24_1142,George,AG,1.3,2,GEMS187,10,6,2,SimpleHill,0-0,0,40,23-41,22-34;20-42;26-36;28-39;26-50;19-38,19-38,1.68,77,-6,920.835488248,1
GEMS203,2018_Oct_24_1142,George,AG,1.3,2,GEMS187,10,6,2,SimpleHill,0-0,0,41,19-38,15-43;20-30;18-33;23-44;28-41;14-40,18-33,0.69,73,-4,925.597122882,1
GEMS203,2018_Oct_24_1142,George,AG,1.3,2,GEMS187,10,6,2,SimpleHill,0-0,0,42,18-33,12-28;13-34;13-31;23-28;12-36;16-26,12-36,3.49,67,-6,933.154013045,1
GEMS203,2018_Oct_24_1142,George,AG,1.3,2,GEMS187,10,6,2,SimpleHill,0-0,0,43,12-36,9-32;17-30;11-40;16-29;12-43;4-38,16-29,1.1,68,1,938.328189023,1
GEMS203,2018_Oct_24_1142,George,AG,1.3,2,GEMS187,10,6,2,SimpleHill,0-0,0,44,16-29,16-35;12-23;24-25;18-26;19-31;22-37,12-23,0.65,56,-12,943.039606939,1
GEMS203,2018_Oct_24_1142,George,AG,1.3,2,GEMS187,10,6,2,SimpleHill,0-0,0,45,12-23,11-31;14-30;8-15;8-32;10-26;17-22,8-15,0.45,40,-16,947.555496801,1
GEMS203,2018_Oct_24_1142,George,AG,1.3,2,GEMS187,10,6,2,SimpleHill,0-0,0,46,8-15,14-16;0-10;11-8;14-14;6-20;16-12,14-16,2.43,50,10,954.061172197,1
GEMS203,2018_Oct_24_1142,George,AG,1.3,2,GEMS187,10,6,2,SimpleHill,0-0,0,47,14-16,18-10;15-12;15-11;14-17;8-15;17-15,17-15,2.13,53,3,960.253979787,1
GEMS203,2018_Oct_24_1142,George,AG,1.3,2,GEMS187,10,6,2,SimpleHill,0-0,0,48,17-15,17-13;15-11;16-14;15-23;17-21;21-11,17-21,1.87,61,8,966.208595502,1
GEMS203,2018_Oct_24_1142,George,AG,1.3,2,GEMS187,10,6,2,SimpleHill,0-0,0,49,17-21,19-24;8-17;11-18;8-20;11-17;25-26,25-26,1.14,75,14,971.430233165,1
GEMS203,2018_Oct_24_1142,George,AG,1.3,2,GEMS187,10,6,2,SimpleHill,0-0,0,50,25-26,34-29;34-22;20-22;32-29;19-28;23-26,23-26,0.98,73,-2,976.470709795,1
GEMS203,2018_Oct_24_1142,George,AG,1.3,2,GEMS187,10,6,2,SimpleHill,0-0,0,51,23-26,31-20;28-24;18-23;19-20;28-20;20-28,20-28,4.13,72,-1,984.661552018,1
GEMS203,2018_Oct_24_1142,George,AG,1.3,2,GEMS187,10,6,2,SimpleHill,0-0,0,52,20-28,19-34;25-30;27-32;21-34;11-27;24-35,21-34,1.21,78,6,989.939668365,1
GEMS203,2018_Oct_24_1142,George,AG,1.3,2,GEMS187,10,6,2,SimpleHill,0-0,0,53,21-34,25-37;26-34;26-30;30-34;30-36;20-27,25-37,1.16,84,6,995.181929574,1
GEMS203,2018_Oct_24_1142,George,AG,1.3,2,GEMS187,10,6,2,SimpleHill,0-0,0,54,25-37,28-28;31-33;20-40;18-36;16-38;33-33,20-40,4.48,80,-4,1003.73089809,1
GEMS203,2018_Oct_24_1142,George,AG,1.3,2,GEMS187,10,6,2,SimpleHill,0-0,0,55,20-40,18-42;25-41;15-39;12-46;24-44;17-38,12-46,0.85,70,-10,1008.62238681,1
GEMS203,2018_Oct_24_1142,George,AG,1.3,2,GEMS187,10,6,2,SimpleHill,0-0,0,56,12-46,16-37;6-48;21-42;16-50;8-51;16-40,16-50,17.02,76,6,1029.71764115,1
GEMS203,2018_Oct_24_1142,George,AG,1.3,2,GEMS187,10,6,2,SimpleHill,0-0,0,57,16-50,19-51;17-58;9-53;14-57;19-48;20-48,20-48,1.07,81,5,1034.86056812,1
GEMS203,2018_Oct_24_1142,George,AG,1.3,2,GEMS187,10,6,2,SimpleHill,0-0,0,58,20-48,22-39;18-44;13-49;16-40;14-49;15-45,14-49,0.73,74,-7,1039.67405034,1
GEMS203,2018_Oct_24_1142,George,AG,1.3,2,GEMS187,10,6,2,SimpleHill,0-0,0,59,14-49,18-42;8-56;21-42;10-42;7-43;17-46,17-46,0.46,77,3,1044.20988323,1
GEMS203,2018_Oct_24_1142,George,AG,1.3,2,GEMS187,10,6,2,SimpleHill,0-0,0,60,17-46,22-46;23-52;13-52;13-54;25-45;23-42,23-52,0.99,85,8,1049.26341163,1
GEMS203,2018_Oct_24_1142,George,AG,1.3,2,GEMS187,10,6,2,SimpleHill,0-0,0,61,23-52,23-47;17-60;30-54;19-54;25-58;29-45,19-54,1.14,80,-5,1054.46458067,1
GEMS203,2018_Oct_24_1142,George,AG,1.3,2,GEMS187,10,6,2,SimpleHill,0-0,0,62,19-54,18-46;25-61;26-48;14-52;16-48;22-51,25-61,0.88,85,5,1059.40299779,1
GEMS203,2018_Oct_24_1142,George,AG,1.3,2,GEMS187,10,6,2,SimpleHill,0-0,0,63,25-61,20-68;23-66;32-56;25-62;20-55;29-66,29-66,1.34,86,1,1064.81118492,1
GEMS203,2018_Oct_24_1142,George,AG,1.3,2,GEMS187,10,6,2,SimpleHill,0-0,0,64,29-66,22-60;25-58;31-60;20-69;29-61;26-59,20-69,1.93,74,-12,1070.7869757,1
GEMS203,2018_Oct_24_1142,George,AG,1.3,2,GEMS187,10,6,2,SimpleHill,0-0,0,65,20-69,22-67;30-69;27-63;27-66;23-62;14-67,27-63,0.91,86,12,1075.77751153,1
GEMS203,2018_Oct_24_1142,George,AG,1.3,2,GEMS187,10,6,2,SimpleHill,0-0,0,66,27-63,36-61;31-54;29-65;23-67;22-58;32-57,22-58,1.08,83,-3,1080.92366855,1
GEMS203,2018_Oct_24_1142,George,AG,1.3,2,GEMS187,10,6,2,SimpleHill,0-0,0,67,22-58,26-60;29-52;22-64;19-65;20-58;18-54,29-52,0.45,91,8,1085.42417254,1
GEMS203,2018_Oct_24_1142,George,AG,1.3,2,GEMS187,10,6,2,SimpleHill,0-0,0,68,29-52,32-53;36-51;26-51;38-49;38-52;36-54,32-53,0.55,93,2,1090.04622997,1
GEMS203,2018_Oct_24_1142,George,AG,1.3,2,GEMS187,10,6,2,SimpleHill,0-0,0,69,32-53,24-57;23-50;30-47;31-46;28-59;34-53,34-53,0.33,94,1,1094.45120945,1
GEMS203,2018_Oct_24_1142,George,AG,1.3,2,GEMS187,10,6,2,SimpleHill,0-0,0,70,34-53,41-50;40-60;39-53;41-54;36-47;41-48,36-47,0.46,95,1,1099.0000861,1
GEMS203,2018_Oct_24_1142,George,AG,1.3,2,GEMS187,10,6,2,SimpleHill,0-0,0,71,36-47,45-47;28-48;28-49;31-44;38-53;37-51,31-44,0.41,92,-3,1103.46997166,1
GEMS203,2018_Oct_24_1142,George,AG,1.3,2,GEMS187,10,6,2,SimpleHill,0-0,0,72,31-44,33-50;29-52;30-43;26-49;39-41;40-46,30-43,0.27,91,-1,1107.80751026,1
GEMS203,2018_Oct_24_1142,George,AG,1.3,2,GEMS187,10,6,2,SimpleHill,0-0,0,73,30-43,33-52;39-43;21-43;34-41;26-46;25-41,39-43,0.31,96,5,1112.17506872,1
GEMS203,2018_Oct_24_1142,George,AG,1.3,2,GEMS187,10,6,2,SimpleHill,0-0,0,74,39-43,46-37;31-39;45-43;38-41;30-41;46-50,46-37,0.33,96,0,1116.57457078,1
GEMS203,2018_Oct_24_1142,George,AG,1.3,2,GEMS187,10,6,2,SimpleHill,0-0,0,75,46-37,42-31;50-36;53-31;50-28;38-38;54-40,54-40,0.24,97,1,1120.87855218,1
GEMS203,2018_Oct_24_1142,George,AG,1.3,2,GEMS187,10,6,2,SimpleHill,0-0,0,76,54-40,59-34;57-34;50-42;62-44;55-45;62-35,55-45,0.28,99,2,1125.23833048,1
GEMS203,2018_Oct_24_1142,George,AG,1.3,2,GEMS187,10,6,2,SimpleHill,0-0,0,77,55-45,61-39;61-47;53-37;58-40;54-51;62-46,61-47,0.24,97,-2,1129.56714304,1
GEMS203,2018_Oct_24_1142,George,AG,1.3,2,GEMS187,10,6,2,SimpleHill,0-0,0,78,61-47,63-45;68-44;58-52;62-42;68-52;54-46,63-45,0.28,96,-1,1133.92214107,1
GEMS203,2018_Oct_24_1142,George,AG,1.3,2,GEMS187,10,6,2,SimpleHill,0-0,0,79,63-45,64-49;66-38;67-49;61-49;62-48;54-46,54-46,0.37,99,3,1138.36381273,1
