subj_id,date,computer,experimenter,instructions,sight_radius,n_gabors,start_pos_list_ix,start_pos_list,landscape_ix,landscape_name,starting_pos,starting_score,trial,feedback,pos,stims,selected,rt,score,delta,exp_time
GEMS222,2018_Apr_13_0954,George,EG,spatial_frequency,8,6,11,39-13;19-8;25-11;17-8,0,SpatialFrequencyBias,0-0,0,0,training,0-0,0-4;2-3;4-0;1-4;2-1;6-5,1-4,6.35,15,15,183.586850933
GEMS222,2018_Apr_13_0954,George,EG,spatial_frequency,8,6,11,39-13;19-8;25-11;17-8,0,SpatialFrequencyBias,0-0,0,1,training,1-4,9-4;3-0;2-11;0-0;6-1;7-7,7-7,4.15,26,11,198.076523799
GEMS222,2018_Apr_13_0954,George,EG,spatial_frequency,8,6,11,39-13;19-8;25-11;17-8,0,SpatialFrequencyBias,0-0,0,2,training,7-7,6-9;12-12;11-13;8-13;4-1;2-6,4-1,4.56,3,-23,214.939309561
GEMS222,2018_Apr_13_0954,George,EG,spatial_frequency,8,6,11,39-13;19-8;25-11;17-8,0,SpatialFrequencyBias,0-0,0,3,training,4-1,9-7;10-2;2-4;1-0;6-8;11-0,2-4,0.56,15,12,222.509876444
GEMS222,2018_Apr_13_0954,George,EG,spatial_frequency,8,6,11,39-13;19-8;25-11;17-8,0,SpatialFrequencyBias,0-0,0,4,training,2-4,4-4;3-5;4-10;4-0;2-10;1-9,2-10,0.47,36,21,231.17277616
GEMS222,2018_Apr_13_0954,George,EG,spatial_frequency,8,6,11,39-13;19-8;25-11;17-8,0,SpatialFrequencyBias,0-0,0,5,training,2-10,1-9;9-10;5-6;3-3;8-15;2-4,9-10,0.73,36,0,239.061674722
GEMS222,2018_Apr_13_0954,George,EG,spatial_frequency,8,6,11,39-13;19-8;25-11;17-8,0,SpatialFrequencyBias,0-0,0,6,training,9-10,15-12;4-6;16-9;15-13;4-10;11-16,15-12,2.06,42,6,255.499616209
GEMS222,2018_Apr_13_0954,George,EG,spatial_frequency,8,6,11,39-13;19-8;25-11;17-8,0,SpatialFrequencyBias,0-0,0,7,training,15-12,18-13;17-14;20-7;18-18;17-10;18-19,20-7,0.79,26,-16,263.67517493
GEMS222,2018_Apr_13_0954,George,EG,spatial_frequency,8,6,11,39-13;19-8;25-11;17-8,0,SpatialFrequencyBias,0-0,0,8,training,20-7,20-5;16-11;24-6;15-7;16-4;19-13,24-6,0.71,22,-4,268.753199642
GEMS222,2018_Apr_13_0954,George,EG,spatial_frequency,8,6,11,39-13;19-8;25-11;17-8,0,SpatialFrequencyBias,0-0,0,9,training,24-6,19-2;23-11;20-3;20-9;20-4;20-7,20-7,1.2,26,4,274.547331712
GEMS222,2018_Apr_13_0954,George,EG,spatial_frequency,8,6,11,39-13;19-8;25-11;17-8,0,SpatialFrequencyBias,0-0,0,10,training,20-7,19-8;15-10;15-12;28-7;14-7;22-6,15-10,0.41,36,10,280.214434557
GEMS222,2018_Apr_13_0954,George,EG,spatial_frequency,8,6,11,39-13;19-8;25-11;17-8,0,SpatialFrequencyBias,0-0,0,11,training,15-10,18-4;14-13;21-10;11-4;8-9;16-16,21-10,0.41,36,0,287.503891361
GEMS222,2018_Apr_13_0954,George,EG,spatial_frequency,8,6,11,39-13;19-8;25-11;17-8,0,SpatialFrequencyBias,0-0,0,12,training,21-10,21-17;20-3;20-13;19-15;20-7;20-17,20-17,0.46,56,20,292.226521878
GEMS222,2018_Apr_13_0954,George,EG,spatial_frequency,8,6,11,39-13;19-8;25-11;17-8,0,SpatialFrequencyBias,0-0,0,13,training,20-17,21-21;17-16;21-20;16-16;17-10;25-12,21-21,0.23,66,10,302.845655709
GEMS222,2018_Apr_13_0954,George,EG,spatial_frequency,8,6,11,39-13;19-8;25-11;17-8,0,SpatialFrequencyBias,0-0,0,14,training,21-21,17-20;21-14;16-21;20-19;25-21;20-17,16-21,0.65,66,0,308.883385935
GEMS222,2018_Apr_13_0954,George,EG,spatial_frequency,8,6,11,39-13;19-8;25-11;17-8,0,SpatialFrequencyBias,0-0,0,15,training,16-21,21-22;15-17;18-25;9-22;18-28;22-19,18-28,0.6,80,14,314.843078967
GEMS222,2018_Apr_13_0954,George,EG,spatial_frequency,8,6,11,39-13;19-8;25-11;17-8,0,SpatialFrequencyBias,0-0,0,16,training,18-28,19-26;21-26;22-31;20-28;16-28;15-34,22-31,0.33,85,5,319.613366089
GEMS222,2018_Apr_13_0954,George,EG,spatial_frequency,8,6,11,39-13;19-8;25-11;17-8,0,SpatialFrequencyBias,0-0,0,17,training,22-31,22-27;26-32;18-36;26-33;29-31;25-27,25-27,0.28,78,-7,324.708083608
GEMS222,2018_Apr_13_0954,George,EG,spatial_frequency,8,6,11,39-13;19-8;25-11;17-8,0,SpatialFrequencyBias,0-0,0,18,training,25-27,26-27;20-29;22-21;32-24;29-21;26-34,22-21,0.24,66,-12,331.134464326
GEMS222,2018_Apr_13_0954,George,EG,spatial_frequency,8,6,11,39-13;19-8;25-11;17-8,0,SpatialFrequencyBias,0-0,0,19,training,22-21,15-22;21-26;19-23;18-20;17-23;21-27,19-23,0.49,70,4,336.254473288
GEMS222,2018_Apr_13_0954,George,EG,spatial_frequency,8,6,11,39-13;19-8;25-11;17-8,0,SpatialFrequencyBias,0-0,0,20,training,19-23,25-22;17-23;22-18;12-26;16-17;17-26,17-26,0.23,76,6,340.255857687
GEMS222,2018_Apr_13_0954,George,EG,spatial_frequency,8,6,11,39-13;19-8;25-11;17-8,0,SpatialFrequencyBias,0-0,0,21,training,17-26,18-30;22-32;12-30;18-31;20-31;17-19,18-31,0.28,85,9,344.940491342
GEMS222,2018_Apr_13_0954,George,EG,spatial_frequency,8,6,11,39-13;19-8;25-11;17-8,0,SpatialFrequencyBias,0-0,0,22,training,18-31,15-38;18-32;19-35;21-28;13-37;15-32,18-32,0.25,87,2,350.222550174
GEMS222,2018_Apr_13_0954,George,EG,spatial_frequency,8,6,11,39-13;19-8;25-11;17-8,0,SpatialFrequencyBias,0-0,0,23,training,18-32,14-32;14-28;24-28;13-30;12-31;26-32,14-32,0.25,87,0,355.690570084
GEMS222,2018_Apr_13_0954,George,EG,spatial_frequency,8,6,11,39-13;19-8;25-11;17-8,0,SpatialFrequencyBias,0-0,0,24,training,14-32,16-34;10-37;18-33;16-36;11-34;8-35,8-35,0.73,91,4,361.668478282
GEMS222,2018_Apr_13_0954,George,EG,spatial_frequency,8,6,11,39-13;19-8;25-11;17-8,0,SpatialFrequencyBias,0-0,0,25,training,8-35,10-40;3-33;9-32;1-38;14-38;16-35,3-33,0.33,88,-3,366.232525527
GEMS222,2018_Apr_13_0954,George,EG,spatial_frequency,8,6,11,39-13;19-8;25-11;17-8,0,SpatialFrequencyBias,0-0,0,26,training,3-33,5-39;4-39;8-27;6-35;3-31;10-33,6-35,0.35,91,3,370.856917512
GEMS222,2018_Apr_13_0954,George,EG,spatial_frequency,8,6,11,39-13;19-8;25-11;17-8,0,SpatialFrequencyBias,0-0,0,27,training,6-35,7-36;9-29;12-40;3-39;9-30;2-36,7-36,0.23,92,1,374.208597996
GEMS222,2018_Apr_13_0954,George,EG,spatial_frequency,8,6,11,39-13;19-8;25-11;17-8,0,SpatialFrequencyBias,0-0,0,28,training,7-36,10-42;1-39;3-39;7-31;7-32;7-28,3-39,0.28,95,3,378.820950034
GEMS222,2018_Apr_13_0954,George,EG,spatial_frequency,8,6,11,39-13;19-8;25-11;17-8,0,SpatialFrequencyBias,0-0,0,29,training,3-39,6-32;2-36;3-42;1-35;2-37;1-42,6-32,2.24,87,-8,385.107770238
GEMS222,2018_Apr_13_0954,George,EG,spatial_frequency,8,6,11,39-13;19-8;25-11;17-8,1,SimpleHill,39-13,70,0,selected,39-13,38-8;41-16;46-14;42-13;33-16;41-6,41-6,2.68,59,-11,418.949576198
GEMS222,2018_Apr_13_0954,George,EG,spatial_frequency,8,6,11,39-13;19-8;25-11;17-8,1,SimpleHill,39-13,70,1,selected,41-6,48-3;37-10;41-14;39-0;47-7;38-8,41-14,1.03,72,13,423.547029224
GEMS222,2018_Apr_13_0954,George,EG,spatial_frequency,8,6,11,39-13;19-8;25-11;17-8,1,SimpleHill,39-13,70,2,selected,41-14,46-12;40-13;34-13;46-16;43-10;35-10,34-13,0.78,67,-5,427.884234179
GEMS222,2018_Apr_13_0954,George,EG,spatial_frequency,8,6,11,39-13;19-8;25-11;17-8,1,SimpleHill,39-13,70,3,selected,34-13,36-10;41-16;36-13;35-20;32-11;33-9,41-16,0.31,75,8,431.750460613
GEMS222,2018_Apr_13_0954,George,EG,spatial_frequency,8,6,11,39-13;19-8;25-11;17-8,1,SimpleHill,39-13,70,4,selected,41-16,38-11;43-10;41-22;36-16;43-22;41-8,43-22,0.46,83,8,435.803862873
GEMS222,2018_Apr_13_0954,George,EG,spatial_frequency,8,6,11,39-13;19-8;25-11;17-8,1,SimpleHill,39-13,70,5,selected,43-22,37-27;40-23;43-14;41-25;43-28;50-24,37-27,0.45,86,3,439.819051247
GEMS222,2018_Apr_13_0954,George,EG,spatial_frequency,8,6,11,39-13;19-8;25-11;17-8,1,SimpleHill,39-13,70,6,selected,37-27,32-22;36-22;31-27;36-23;33-27;37-24,36-23,0.86,81,-5,444.237135175
GEMS222,2018_Apr_13_0954,George,EG,spatial_frequency,8,6,11,39-13;19-8;25-11;17-8,1,SimpleHill,39-13,70,7,selected,36-23,39-27;38-30;31-18;31-27;38-22;37-21,37-21,0.32,79,-2,448.113079927
GEMS222,2018_Apr_13_0954,George,EG,spatial_frequency,8,6,11,39-13;19-8;25-11;17-8,1,SimpleHill,39-13,70,8,selected,37-21,37-14;41-22;42-17;39-19;37-24;30-24,30-24,0.28,78,-1,451.952731347
GEMS222,2018_Apr_13_0954,George,EG,spatial_frequency,8,6,11,39-13;19-8;25-11;17-8,1,SimpleHill,39-13,70,9,selected,30-24,27-27;34-26;32-24;31-26;25-24;30-29,34-26,0.24,83,5,455.770122915
GEMS222,2018_Apr_13_0954,George,EG,spatial_frequency,8,6,11,39-13;19-8;25-11;17-8,1,SimpleHill,39-13,70,10,selected,34-26,40-31;34-25;32-23;35-31;34-26;32-30,34-26,0.45,83,0,459.796764188
GEMS222,2018_Apr_13_0954,George,EG,spatial_frequency,8,6,11,39-13;19-8;25-11;17-8,1,SimpleHill,39-13,70,11,selected,34-26,34-32;32-25;38-21;34-21;41-25;39-30,34-32,0.22,88,5,463.593477802
GEMS222,2018_Apr_13_0954,George,EG,spatial_frequency,8,6,11,39-13;19-8;25-11;17-8,1,SimpleHill,39-13,70,12,selected,34-32,34-30;32-32;34-29;32-28;36-34;34-40,34-29,0.23,86,-2,467.410804712
GEMS222,2018_Apr_13_0954,George,EG,spatial_frequency,8,6,11,39-13;19-8;25-11;17-8,1,SimpleHill,39-13,70,13,selected,34-29,31-32;29-29;31-34;37-34;36-34;30-31,30-31,0.23,84,-2,471.218743958
GEMS222,2018_Apr_13_0954,George,EG,spatial_frequency,8,6,11,39-13;19-8;25-11;17-8,1,SimpleHill,39-13,70,14,selected,30-31,36-29;27-36;29-38;23-31;30-39;27-30,30-39,0.25,89,5,475.060911623
GEMS222,2018_Apr_13_0954,George,EG,spatial_frequency,8,6,11,39-13;19-8;25-11;17-8,1,SimpleHill,39-13,70,15,selected,30-39,37-37;29-45;33-32;32-34;32-46;28-35,29-45,0.4,90,1,479.046262284
GEMS222,2018_Apr_13_0954,George,EG,spatial_frequency,8,6,11,39-13;19-8;25-11;17-8,1,SimpleHill,39-13,70,16,selected,29-45,29-43;24-40;24-51;32-45;22-44;27-38,29-43,0.23,90,0,482.859308601
GEMS222,2018_Apr_13_0954,George,EG,spatial_frequency,8,6,11,39-13;19-8;25-11;17-8,1,SimpleHill,39-13,70,17,selected,29-43,27-36;22-40;28-48;25-45;30-44;24-43,25-45,0.82,87,-3,487.266151212
GEMS222,2018_Apr_13_0954,George,EG,spatial_frequency,8,6,11,39-13;19-8;25-11;17-8,1,SimpleHill,39-13,70,18,selected,25-45,21-51;22-44;31-47;31-44;25-53;25-40,25-53,0.43,87,0,491.272314907
GEMS222,2018_Apr_13_0954,George,EG,spatial_frequency,8,6,11,39-13;19-8;25-11;17-8,1,SimpleHill,39-13,70,19,selected,25-53,25-51;28-56;20-51;22-47;23-53;20-50,28-56,0.59,89,2,495.443894242
GEMS222,2018_Apr_13_0954,George,EG,spatial_frequency,8,6,11,39-13;19-8;25-11;17-8,1,SimpleHill,39-13,70,20,selected,28-56,25-62;33-62;29-53;22-58;30-60;27-50,27-50,0.5,89,0,499.524743446
GEMS222,2018_Apr_13_0954,George,EG,spatial_frequency,8,6,11,39-13;19-8;25-11;17-8,1,SimpleHill,39-13,70,21,selected,27-50,32-47;31-45;33-51;31-52;20-51;30-49,33-51,0.23,94,5,503.338626164
GEMS222,2018_Apr_13_0954,George,EG,spatial_frequency,8,6,11,39-13;19-8;25-11;17-8,1,SimpleHill,39-13,70,22,selected,33-51,31-54;37-48;35-56;35-44;30-45;36-57,31-54,1.29,92,-2,508.198915208
GEMS222,2018_Apr_13_0954,George,EG,spatial_frequency,8,6,11,39-13;19-8;25-11;17-8,1,SimpleHill,39-13,70,23,selected,31-54,34-53;31-46;29-59;34-61;26-52;35-52,35-52,0.23,95,3,512.007052911
GEMS222,2018_Apr_13_0954,George,EG,spatial_frequency,8,6,11,39-13;19-8;25-11;17-8,1,SimpleHill,39-13,70,24,selected,35-52,34-49;32-57;33-52;42-53;30-51;34-53,34-53,0.36,94,-1,515.944238021
GEMS222,2018_Apr_13_0954,George,EG,spatial_frequency,8,6,11,39-13;19-8;25-11;17-8,1,SimpleHill,39-13,70,25,selected,34-53,28-54;28-58;32-53;36-54;41-53;33-49,41-53,0.36,98,4,519.890059217
GEMS222,2018_Apr_13_0954,George,EG,spatial_frequency,8,6,11,39-13;19-8;25-11;17-8,1,SimpleHill,39-13,70,26,selected,41-53,35-52;40-49;36-51;42-58;39-59;38-49,40-49,0.35,97,-1,523.831102718
GEMS222,2018_Apr_13_0954,George,EG,spatial_frequency,8,6,11,39-13;19-8;25-11;17-8,1,SimpleHill,39-13,70,27,selected,40-49,42-46;40-48;34-52;41-48;46-48;38-54,38-54,0.38,96,-1,527.784884287
GEMS222,2018_Apr_13_0954,George,EG,spatial_frequency,8,6,11,39-13;19-8;25-11;17-8,1,SimpleHill,39-13,70,28,selected,38-54,44-49;35-52;44-56;36-55;38-47;33-51,33-51,0.31,94,-2,531.683729394
GEMS222,2018_Apr_13_0954,George,EG,spatial_frequency,8,6,11,39-13;19-8;25-11;17-8,1,SimpleHill,39-13,70,29,selected,33-51,33-56;31-49;26-50;37-49;35-54;35-55,35-54,0.4,95,1,535.664689671
GEMS222,2018_Apr_13_0954,George,EG,spatial_frequency,8,6,11,39-13;19-8;25-11;17-8,1,SimpleHill,39-13,70,30,selected,35-54,33-56;32-60;40-49;40-56;33-60;32-52,32-60,0.23,91,-4,539.451099517
GEMS222,2018_Apr_13_0954,George,EG,spatial_frequency,8,6,11,39-13;19-8;25-11;17-8,1,SimpleHill,39-13,70,31,selected,32-60,36-65;28-64;31-60;26-59;37-66;27-62,31-60,0.23,90,-1,543.253141705
GEMS222,2018_Apr_13_0954,George,EG,spatial_frequency,8,6,11,39-13;19-8;25-11;17-8,1,SimpleHill,39-13,70,32,selected,31-60,29-61;39-60;37-58;24-59;31-52;27-62,31-52,0.22,92,2,547.028008707
GEMS222,2018_Apr_13_0954,George,EG,spatial_frequency,8,6,11,39-13;19-8;25-11;17-8,1,SimpleHill,39-13,70,33,selected,31-52,31-51;23-52;27-57;26-50;33-58;31-46,33-58,0.28,92,0,550.894059409
GEMS222,2018_Apr_13_0954,George,EG,spatial_frequency,8,6,11,39-13;19-8;25-11;17-8,1,SimpleHill,39-13,70,34,selected,33-58,37-54;27-53;32-64;33-60;35-53;28-60,37-54,0.24,96,4,554.724493774
GEMS222,2018_Apr_13_0954,George,EG,spatial_frequency,8,6,11,39-13;19-8;25-11;17-8,1,SimpleHill,39-13,70,35,selected,37-54,39-59;35-54;41-50;42-48;37-57;44-51,39-59,0.26,95,-1,558.562305624
GEMS222,2018_Apr_13_0954,George,EG,spatial_frequency,8,6,11,39-13;19-8;25-11;17-8,1,SimpleHill,39-13,70,36,selected,39-59,42-55;35-54;33-59;35-60;40-56;33-54,35-60,0.3,93,-2,562.446450178
GEMS222,2018_Apr_13_0954,George,EG,spatial_frequency,8,6,11,39-13;19-8;25-11;17-8,1,SimpleHill,39-13,70,37,selected,35-60,36-53;33-55;32-63;33-61;28-63;32-65,28-63,0.18,86,-7,566.201448737
GEMS222,2018_Apr_13_0954,George,EG,spatial_frequency,8,6,11,39-13;19-8;25-11;17-8,1,SimpleHill,39-13,70,38,selected,28-63,32-60;22-62;25-62;33-69;29-58;28-65,28-65,0.23,85,-1,570.002453827
GEMS222,2018_Apr_13_0954,George,EG,spatial_frequency,8,6,11,39-13;19-8;25-11;17-8,1,SimpleHill,39-13,70,39,selected,28-65,33-65;24-68;29-58;26-69;28-67;25-60,29-58,0.33,89,4,573.915946993
GEMS222,2018_Apr_13_0954,George,EG,spatial_frequency,8,6,11,39-13;19-8;25-11;17-8,2,SimpleHill,19-8,45,0,selected,19-8,18-6;20-5;14-10;14-5;23-6;16-1,14-10,1.24,42,-3,591.688852149
GEMS222,2018_Apr_13_0954,George,EG,spatial_frequency,8,6,11,39-13;19-8;25-11;17-8,2,SimpleHill,19-8,45,1,selected,14-10,17-6;19-4;10-16;11-13;10-10;20-13,20-13,0.59,54,12,595.851450658
GEMS222,2018_Apr_13_0954,George,EG,spatial_frequency,8,6,11,39-13;19-8;25-11;17-8,2,SimpleHill,19-8,45,2,selected,20-13,22-16;22-12;20-13;25-9;19-12;14-15,22-16,2.88,61,7,602.310310169
GEMS222,2018_Apr_13_0954,George,EG,spatial_frequency,8,6,11,39-13;19-8;25-11;17-8,2,SimpleHill,19-8,45,3,selected,22-16,25-11;24-19;23-16;25-13;18-16;21-19,25-13,0.75,60,-1,606.633911847
GEMS222,2018_Apr_13_0954,George,EG,spatial_frequency,8,6,11,39-13;19-8;25-11;17-8,2,SimpleHill,19-8,45,4,selected,25-13,19-9;26-20;21-15;27-19;19-8;24-9,19-9,0.26,47,-13,610.469911014
GEMS222,2018_Apr_13_0954,George,EG,spatial_frequency,8,6,11,39-13;19-8;25-11;17-8,2,SimpleHill,19-8,45,5,selected,19-9,12-10;21-6;17-16;13-8;21-14;15-6,15-6,0.31,36,-11,614.364602285
GEMS222,2018_Apr_13_0954,George,EG,spatial_frequency,8,6,11,39-13;19-8;25-11;17-8,2,SimpleHill,19-8,45,6,selected,15-6,13-13;10-2;22-3;11-10;9-3;19-4,11-10,11.01,37,1,628.954109664
GEMS222,2018_Apr_13_0954,George,EG,spatial_frequency,8,6,11,39-13;19-8;25-11;17-8,2,SimpleHill,19-8,45,7,selected,11-10,9-5;14-4;14-8;14-10;14-3;18-13,14-10,4.04,42,5,636.581913191
GEMS222,2018_Apr_13_0954,George,EG,spatial_frequency,8,6,11,39-13;19-8;25-11;17-8,2,SimpleHill,19-8,45,8,selected,14-10,12-5;14-15;19-4;10-5;19-6;18-5,19-6,4.39,42,0,644.561748023
GEMS222,2018_Apr_13_0954,George,EG,spatial_frequency,8,6,11,39-13;19-8;25-11;17-8,2,SimpleHill,19-8,45,9,selected,19-6,15-7;26-3;17-1;16-9;23-5;15-11,15-7,1.46,38,-4,649.599858519
GEMS222,2018_Apr_13_0954,George,EG,spatial_frequency,8,6,11,39-13;19-8;25-11;17-8,2,SimpleHill,19-8,45,10,selected,15-7,21-4;17-10;10-8;8-9;13-10;8-10,10-8,2.56,32,-6,655.742727185
GEMS222,2018_Apr_13_0954,George,EG,spatial_frequency,8,6,11,39-13;19-8;25-11;17-8,2,SimpleHill,19-8,45,11,selected,10-8,9-2;5-4;6-6;13-3;5-10;10-8,13-3,2.63,28,-4,661.948300951
GEMS222,2018_Apr_13_0954,George,EG,spatial_frequency,8,6,11,39-13;19-8;25-11;17-8,2,SimpleHill,19-8,45,12,selected,13-3,17-9;6-5;8-3;12-3;20-2;9-9,6-5,1.75,20,-8,667.281105919
GEMS222,2018_Apr_13_0954,George,EG,spatial_frequency,8,6,11,39-13;19-8;25-11;17-8,2,SimpleHill,19-8,45,13,selected,6-5,8-0;5-10;0-4;11-7;9-3;1-10,8-0,0.47,14,-6,671.332723024
GEMS222,2018_Apr_13_0954,George,EG,spatial_frequency,8,6,11,39-13;19-8;25-11;17-8,2,SimpleHill,19-8,45,14,selected,8-0,16-0;8-1;3-6;4-5;9-5;6-4,9-5,0.38,25,11,675.305879773
GEMS222,2018_Apr_13_0954,George,EG,spatial_frequency,8,6,11,39-13;19-8;25-11;17-8,2,SimpleHill,19-8,45,15,selected,9-5,6-3;8-10;6-7;12-8;6-4;2-7,8-10,0.99,32,7,679.871949361
GEMS222,2018_Apr_13_0954,George,EG,spatial_frequency,8,6,11,39-13;19-8;25-11;17-8,2,SimpleHill,19-8,45,16,selected,8-10,9-11;8-11;2-11;10-17;13-15;11-3,11-3,0.29,25,-7,683.758066003
GEMS222,2018_Apr_13_0954,George,EG,spatial_frequency,8,6,11,39-13;19-8;25-11;17-8,2,SimpleHill,19-8,45,17,selected,11-3,16-9;6-3;10-5;16-1;7-2;15-6,10-5,0.84,27,2,688.185434525
GEMS222,2018_Apr_13_0954,George,EG,spatial_frequency,8,6,11,39-13;19-8;25-11;17-8,2,SimpleHill,19-8,45,18,selected,10-5,16-10;13-5;7-11;9-9;11-10;7-10,13-5,0.24,32,5,692.000559521
GEMS222,2018_Apr_13_0954,George,EG,spatial_frequency,8,6,11,39-13;19-8;25-11;17-8,2,SimpleHill,19-8,45,19,selected,13-5,11-12;13-6;20-6;7-5;8-4;13-9,7-5,0.42,22,-10,696.013510771
GEMS222,2018_Apr_13_0954,George,EG,spatial_frequency,8,6,11,39-13;19-8;25-11;17-8,2,SimpleHill,19-8,45,20,selected,7-5,1-6;10-1;12-9;8-10;5-2;5-11,5-2,0.39,13,-9,699.994971992
GEMS222,2018_Apr_13_0954,George,EG,spatial_frequency,8,6,11,39-13;19-8;25-11;17-8,2,SimpleHill,19-8,45,21,selected,5-2,1-2;2-0;5-0;3-9;2-7;5-5,5-5,1.59,19,6,705.148077526
GEMS222,2018_Apr_13_0954,George,EG,spatial_frequency,8,6,11,39-13;19-8;25-11;17-8,2,SimpleHill,19-8,45,22,selected,5-5,4-7;11-0;8-10;7-4;5-10;11-1,8-10,1.23,32,13,709.940843443
GEMS222,2018_Apr_13_0954,George,EG,spatial_frequency,8,6,11,39-13;19-8;25-11;17-8,2,SimpleHill,19-8,45,23,selected,8-10,7-17;11-13;9-9;3-8;13-5;3-10,11-13,1.33,42,10,714.856976089
GEMS222,2018_Apr_13_0954,George,EG,spatial_frequency,8,6,11,39-13;19-8;25-11;17-8,2,SimpleHill,19-8,45,24,selected,11-13,10-8;10-13;17-13;15-13;6-13;4-11,4-11,0.62,27,-15,719.059381262
GEMS222,2018_Apr_13_0954,George,EG,spatial_frequency,8,6,11,39-13;19-8;25-11;17-8,2,SimpleHill,19-8,45,25,selected,4-11,1-16;3-7;5-18;3-5;9-13;9-11,5-18,0.29,39,12,722.894797222
GEMS222,2018_Apr_13_0954,George,EG,spatial_frequency,8,6,11,39-13;19-8;25-11;17-8,2,SimpleHill,19-8,45,26,selected,5-18,8-17;7-14;2-24;12-17;9-24;11-19,7-14,0.5,37,-2,726.958883198
GEMS222,2018_Apr_13_0954,George,EG,spatial_frequency,8,6,11,39-13;19-8;25-11;17-8,2,SimpleHill,19-8,45,27,selected,7-14,10-17;12-20;5-18;3-9;13-14;13-9,10-17,0.35,46,9,730.883270382
GEMS222,2018_Apr_13_0954,George,EG,spatial_frequency,8,6,11,39-13;19-8;25-11;17-8,2,SimpleHill,19-8,45,28,selected,10-17,16-22;11-21;5-16;11-15;16-17;10-10,11-15,0.85,45,-1,735.279683749
GEMS222,2018_Apr_13_0954,George,EG,spatial_frequency,8,6,11,39-13;19-8;25-11;17-8,2,SimpleHill,19-8,45,29,selected,11-15,6-18;9-19;14-13;6-16;7-12;12-22,7-12,0.21,34,-11,739.066640633
GEMS222,2018_Apr_13_0954,George,EG,spatial_frequency,8,6,11,39-13;19-8;25-11;17-8,2,SimpleHill,19-8,45,30,selected,7-12,12-7;5-5;6-19;5-13;12-17;8-11,8-11,0.26,34,0,742.885749816
GEMS222,2018_Apr_13_0954,George,EG,spatial_frequency,8,6,11,39-13;19-8;25-11;17-8,2,SimpleHill,19-8,45,31,selected,8-11,5-9;3-15;7-18;8-18;7-10;5-14,7-18,0.33,42,8,746.788404981
GEMS222,2018_Apr_13_0954,George,EG,spatial_frequency,8,6,11,39-13;19-8;25-11;17-8,2,SimpleHill,19-8,45,32,selected,7-18,10-13;14-15;13-14;4-20;4-13;8-21,14-15,0.17,49,7,750.521687846
GEMS222,2018_Apr_13_0954,George,EG,spatial_frequency,8,6,11,39-13;19-8;25-11;17-8,2,SimpleHill,19-8,45,33,selected,14-15,13-16;19-17;19-14;16-14;14-7;16-22,13-16,0.29,49,0,754.371849173
GEMS222,2018_Apr_13_0954,George,EG,spatial_frequency,8,6,11,39-13;19-8;25-11;17-8,2,SimpleHill,19-8,45,34,selected,13-16,11-23;16-12;9-17;13-10;10-14;7-17,7-17,0.25,41,-8,758.192016901
GEMS222,2018_Apr_13_0954,George,EG,spatial_frequency,8,6,11,39-13;19-8;25-11;17-8,2,SimpleHill,19-8,45,35,selected,7-17,2-19;4-12;4-21;5-20;4-20;12-16,4-20,0.22,39,-2,761.995527032
GEMS222,2018_Apr_13_0954,George,EG,spatial_frequency,8,6,11,39-13;19-8;25-11;17-8,2,SimpleHill,19-8,45,36,selected,4-20,9-18;6-26;4-21;4-25;7-22;3-24,4-25,0.26,45,6,765.836479946
GEMS222,2018_Apr_13_0954,George,EG,spatial_frequency,8,6,11,39-13;19-8;25-11;17-8,2,SimpleHill,19-8,45,37,selected,4-25,0-25;8-20;0-29;6-26;10-23;1-18,0-29,0.25,41,-4,769.643594315
GEMS222,2018_Apr_13_0954,George,EG,spatial_frequency,8,6,11,39-13;19-8;25-11;17-8,2,SimpleHill,19-8,45,38,selected,0-29,1-36;6-26;4-28;0-32;2-25;3-31,6-26,0.23,49,8,773.464856439
GEMS222,2018_Apr_13_0954,George,EG,spatial_frequency,8,6,11,39-13;19-8;25-11;17-8,2,SimpleHill,19-8,45,39,selected,6-26,4-32;11-21;11-24;10-22;13-23;10-30,10-30,0.45,60,11,777.470155565
GEMS222,2018_Apr_13_0954,George,EG,spatial_frequency,8,6,11,39-13;19-8;25-11;17-8,3,SimpleHill,25-11,57,0,selected,25-11,27-11;25-9;24-14;24-6;33-11;21-13,24-14,1.43,60,3,790.212720463
GEMS222,2018_Apr_13_0954,George,EG,spatial_frequency,8,6,11,39-13;19-8;25-11;17-8,3,SimpleHill,25-11,57,1,selected,24-14,27-14;18-16;27-12;21-19;22-9;20-20,27-14,0.44,63,3,794.200373228
GEMS222,2018_Apr_13_0954,George,EG,spatial_frequency,8,6,11,39-13;19-8;25-11;17-8,3,SimpleHill,25-11,57,2,selected,27-14,23-13;31-9;25-18;29-7;32-12;26-13,32-12,0.23,64,1,798.016693448
GEMS222,2018_Apr_13_0954,George,EG,spatial_frequency,8,6,11,39-13;19-8;25-11;17-8,3,SimpleHill,25-11,57,3,selected,32-12,35-11;31-17;31-5;29-10;33-7;25-9,29-10,0.28,59,-5,801.873802695
GEMS222,2018_Apr_13_0954,George,EG,spatial_frequency,8,6,11,39-13;19-8;25-11;17-8,3,SimpleHill,25-11,57,4,selected,29-10,22-13;23-14;28-17;29-9;30-16;30-3,30-3,0.27,47,-12,805.72656189
GEMS222,2018_Apr_13_0954,George,EG,spatial_frequency,8,6,11,39-13;19-8;25-11;17-8,3,SimpleHill,25-11,57,5,selected,30-3,36-0;32-4;30-5;37-3;32-1;24-7,36-0,0.21,46,-1,809.500366506
GEMS222,2018_Apr_13_0954,George,EG,spatial_frequency,8,6,11,39-13;19-8;25-11;17-8,3,SimpleHill,25-11,57,6,selected,36-0,41-6;34-0;41-5;39-5;42-3;37-5,34-0,0.67,44,-2,813.725953715
GEMS222,2018_Apr_13_0954,George,EG,spatial_frequency,8,6,11,39-13;19-8;25-11;17-8,3,SimpleHill,25-11,57,7,selected,34-0,27-3;37-1;36-4;30-0;33-7;34-3,34-3,0.5,50,6,817.785457572
GEMS222,2018_Apr_13_0954,George,EG,spatial_frequency,8,6,11,39-13;19-8;25-11;17-8,3,SimpleHill,25-11,57,8,selected,34-3,38-8;33-4;32-9;34-2;29-8;31-8,32-9,0.26,59,9,821.624732243
GEMS222,2018_Apr_13_0954,George,EG,spatial_frequency,8,6,11,39-13;19-8;25-11;17-8,3,SimpleHill,25-11,57,9,selected,32-9,36-5;38-10;29-15;33-2;37-9;38-9,38-9,0.25,63,4,825.450773663
GEMS222,2018_Apr_13_0954,George,EG,spatial_frequency,8,6,11,39-13;19-8;25-11;17-8,3,SimpleHill,25-11,57,10,selected,38-9,36-9;32-10;34-10;37-14;37-7;34-13,34-10,0.33,62,-1,829.333412503
GEMS222,2018_Apr_13_0954,George,EG,spatial_frequency,8,6,11,39-13;19-8;25-11;17-8,3,SimpleHill,25-11,57,11,selected,34-10,33-11;36-5;41-9;31-12;35-8;32-16,36-5,0.36,55,-7,833.24885567
GEMS222,2018_Apr_13_0954,George,EG,spatial_frequency,8,6,11,39-13;19-8;25-11;17-8,3,SimpleHill,25-11,57,12,selected,36-5,39-12;42-1;39-9;34-7;40-11;30-6,39-12,0.38,68,13,837.195086905
GEMS222,2018_Apr_13_0954,George,EG,spatial_frequency,8,6,11,39-13;19-8;25-11;17-8,3,SimpleHill,25-11,57,13,selected,39-12,40-17;39-8;42-12;43-15;37-14;37-5,43-15,0.44,74,6,841.210338658
GEMS222,2018_Apr_13_0954,George,EG,spatial_frequency,8,6,11,39-13;19-8;25-11;17-8,3,SimpleHill,25-11,57,14,selected,43-15,37-17;48-20;38-19;42-14;43-17;47-12,43-17,0.6,77,3,845.371891745
GEMS222,2018_Apr_13_0954,George,EG,spatial_frequency,8,6,11,39-13;19-8;25-11;17-8,3,SimpleHill,25-11,57,15,selected,43-17,40-21;40-11;43-19;47-18;39-19;40-14,40-21,0.4,81,4,849.326243398
GEMS222,2018_Apr_13_0954,George,EG,spatial_frequency,8,6,11,39-13;19-8;25-11;17-8,3,SimpleHill,25-11,57,16,selected,40-21,42-14;44-19;36-23;34-19;41-19;39-17,44-19,0.43,80,-1,853.310238149
GEMS222,2018_Apr_13_0954,George,EG,spatial_frequency,8,6,11,39-13;19-8;25-11;17-8,3,SimpleHill,25-11,57,17,selected,44-19,46-19;40-17;41-18;43-16;43-21;45-17,43-16,0.23,75,-5,857.108839666
GEMS222,2018_Apr_13_0954,George,EG,spatial_frequency,8,6,11,39-13;19-8;25-11;17-8,3,SimpleHill,25-11,57,18,selected,43-16,45-20;38-19;37-19;50-15;48-16;40-10,48-16,0.15,76,1,860.841014372
GEMS222,2018_Apr_13_0954,George,EG,spatial_frequency,8,6,11,39-13;19-8;25-11;17-8,3,SimpleHill,25-11,57,19,selected,48-16,49-16;52-12;50-15;43-19;47-16;51-12,50-15,0.26,75,-1,864.667659166
GEMS222,2018_Apr_13_0954,George,EG,spatial_frequency,8,6,11,39-13;19-8;25-11;17-8,3,SimpleHill,25-11,57,20,selected,50-15,46-10;51-17;55-15;57-16;45-16;44-12,46-10,0.68,67,-8,868.931142089
GEMS222,2018_Apr_13_0954,George,EG,spatial_frequency,8,6,11,39-13;19-8;25-11;17-8,3,SimpleHill,25-11,57,21,selected,46-10,39-12;41-11;43-13;40-5;53-8;46-5,46-5,0.3,59,-8,872.823040876
GEMS222,2018_Apr_13_0954,George,EG,spatial_frequency,8,6,11,39-13;19-8;25-11;17-8,3,SimpleHill,25-11,57,22,selected,46-5,50-11;47-7;49-9;44-8;45-0;39-5,49-9,0.45,66,7,876.833409302
GEMS222,2018_Apr_13_0954,George,EG,spatial_frequency,8,6,11,39-13;19-8;25-11;17-8,3,SimpleHill,25-11,57,23,selected,49-9,46-5;47-9;45-6;53-15;45-10;43-5,47-9,0.27,66,0,880.682571941
GEMS222,2018_Apr_13_0954,George,EG,spatial_frequency,8,6,11,39-13;19-8;25-11;17-8,3,SimpleHill,25-11,57,24,selected,47-9,42-8;46-12;48-8;50-13;41-13;43-3,41-13,0.54,71,5,884.787226401
GEMS222,2018_Apr_13_0954,George,EG,spatial_frequency,8,6,11,39-13;19-8;25-11;17-8,3,SimpleHill,25-11,57,25,selected,41-13,47-15;38-8;39-8;40-7;42-7;42-11,47-15,0.56,75,4,888.923717871
GEMS222,2018_Apr_13_0954,George,EG,spatial_frequency,8,6,11,39-13;19-8;25-11;17-8,3,SimpleHill,25-11,57,26,selected,47-15,48-8;51-15;52-12;44-10;46-22;51-12,44-10,0.49,67,-8,892.979308921
GEMS222,2018_Apr_13_0954,George,EG,spatial_frequency,8,6,11,39-13;19-8;25-11;17-8,3,SimpleHill,25-11,57,27,selected,44-10,42-9;45-6;41-4;40-10;40-15;41-7,41-7,0.22,61,-6,896.781764028
GEMS222,2018_Apr_13_0954,George,EG,spatial_frequency,8,6,11,39-13;19-8;25-11;17-8,3,SimpleHill,25-11,57,28,selected,41-7,41-10;37-11;36-10;37-12;34-4;43-10,36-10,0.27,64,3,900.601684965
GEMS222,2018_Apr_13_0954,George,EG,spatial_frequency,8,6,11,39-13;19-8;25-11;17-8,3,SimpleHill,25-11,57,29,selected,36-10,33-5;35-12;35-10;43-11;43-10;38-5,35-12,0.31,66,2,904.455714606
GEMS222,2018_Apr_13_0954,George,EG,spatial_frequency,8,6,11,39-13;19-8;25-11;17-8,3,SimpleHill,25-11,57,30,selected,35-12,33-8;37-9;37-6;34-17;32-15;32-16,32-15,0.33,69,3,908.352852662
GEMS222,2018_Apr_13_0954,George,EG,spatial_frequency,8,6,11,39-13;19-8;25-11;17-8,3,SimpleHill,25-11,57,31,selected,32-15,38-11;33-10;37-13;25-14;37-9;26-17,38-11,0.52,66,-3,912.430219583
GEMS222,2018_Apr_13_0954,George,EG,spatial_frequency,8,6,11,39-13;19-8;25-11;17-8,3,SimpleHill,25-11,57,32,selected,38-11,44-15;40-11;38-3;39-7;45-14;37-12,38-3,0.61,52,-14,916.617725105
GEMS222,2018_Apr_13_0954,George,EG,spatial_frequency,8,6,11,39-13;19-8;25-11;17-8,3,SimpleHill,25-11,57,33,selected,38-3,31-1;36-1;35-7;40-10;44-1;33-6,36-1,0.32,48,-4,920.509913255
GEMS222,2018_Apr_13_0954,George,EG,spatial_frequency,8,6,11,39-13;19-8;25-11;17-8,3,SimpleHill,25-11,57,34,selected,36-1,37-5;36-1;41-0;33-8;36-7;42-6,41-0,0.61,48,0,924.680456451
GEMS222,2018_Apr_13_0954,George,EG,spatial_frequency,8,6,11,39-13;19-8;25-11;17-8,3,SimpleHill,25-11,57,35,selected,41-0,37-2;46-3;39-1;46-5;44-1;41-7,41-7,0.27,61,13,928.50760251
GEMS222,2018_Apr_13_0954,George,EG,spatial_frequency,8,6,11,39-13;19-8;25-11;17-8,3,SimpleHill,25-11,57,36,selected,41-7,36-5;43-12;46-13;45-2;40-14;42-1,45-2,0.89,53,-8,932.960569124
GEMS222,2018_Apr_13_0954,George,EG,spatial_frequency,8,6,11,39-13;19-8;25-11;17-8,3,SimpleHill,25-11,57,37,selected,45-2,51-6;43-2;42-9;39-5;43-5;42-6,43-5,0.33,58,5,936.833530297
GEMS222,2018_Apr_13_0954,George,EG,spatial_frequency,8,6,11,39-13;19-8;25-11;17-8,3,SimpleHill,25-11,57,38,selected,43-5,45-5;45-8;40-1;38-2;49-3;43-0,43-0,0.63,49,-9,941.040955475
GEMS222,2018_Apr_13_0954,George,EG,spatial_frequency,8,6,11,39-13;19-8;25-11;17-8,3,SimpleHill,25-11,57,39,selected,43-0,45-5;46-3;39-2;45-6;37-1;39-0,46-3,0.25,55,6,944.859824589
GEMS222,2018_Apr_13_0954,George,EG,spatial_frequency,8,6,11,39-13;19-8;25-11;17-8,4,SimpleHill,17-8,42,0,selected,17-8,21-12;17-0;20-9;24-11;21-3;13-12,17-0,1.2,28,-14,957.421301175
GEMS222,2018_Apr_13_0954,George,EG,spatial_frequency,8,6,11,39-13;19-8;25-11;17-8,4,SimpleHill,17-8,42,1,selected,17-0,14-7;22-4;13-4;12-2;13-5;18-1,18-1,0.24,31,3,961.229379021
GEMS222,2018_Apr_13_0954,George,EG,spatial_frequency,8,6,11,39-13;19-8;25-11;17-8,4,SimpleHill,17-8,42,2,selected,18-1,24-0;20-6;24-4;17-5;14-2;21-5,24-4,0.26,44,13,965.06066067
GEMS222,2018_Apr_13_0954,George,EG,spatial_frequency,8,6,11,39-13;19-8;25-11;17-8,4,SimpleHill,17-8,42,3,selected,24-4,28-4;27-7;27-8;30-2;22-5;17-3,22-5,0.23,43,-1,968.870008322
GEMS222,2018_Apr_13_0954,George,EG,spatial_frequency,8,6,11,39-13;19-8;25-11;17-8,4,SimpleHill,17-8,42,4,selected,22-5,21-10;23-1;15-6;22-12;22-9;27-5,27-5,0.24,48,5,972.682149419
GEMS222,2018_Apr_13_0954,George,EG,spatial_frequency,8,6,11,39-13;19-8;25-11;17-8,4,SimpleHill,17-8,42,5,selected,27-5,34-2;33-0;21-6;31-0;25-11;26-12,34-2,0.08,48,0,976.333422106
GEMS222,2018_Apr_13_0954,George,EG,spatial_frequency,8,6,11,39-13;19-8;25-11;17-8,4,SimpleHill,17-8,42,6,selected,34-2,34-4;34-6;38-7;31-9;28-3;40-3,34-6,0.2,56,8,980.106907909
GEMS222,2018_Apr_13_0954,George,EG,spatial_frequency,8,6,11,39-13;19-8;25-11;17-8,4,SimpleHill,17-8,42,7,selected,34-6,28-6;33-10;28-7;38-0;30-8;27-9,38-0,0.22,47,-9,983.886797478
GEMS222,2018_Apr_13_0954,George,EG,spatial_frequency,8,6,11,39-13;19-8;25-11;17-8,4,SimpleHill,17-8,42,8,selected,38-0,32-5;33-1;31-1;33-0;45-1;39-3,39-3,0.23,53,6,987.678107295
GEMS222,2018_Apr_13_0954,George,EG,spatial_frequency,8,6,11,39-13;19-8;25-11;17-8,4,SimpleHill,17-8,42,9,selected,39-3,44-8;42-5;42-7;37-3;45-2;38-1,42-7,0.21,61,8,991.44885503
GEMS222,2018_Apr_13_0954,George,EG,spatial_frequency,8,6,11,39-13;19-8;25-11;17-8,4,SimpleHill,17-8,42,10,selected,42-7,50-7;41-3;45-14;40-8;40-4;37-3,50-7,0.68,63,2,995.68006978
GEMS222,2018_Apr_13_0954,George,EG,spatial_frequency,8,6,11,39-13;19-8;25-11;17-8,4,SimpleHill,17-8,42,11,selected,50-7,49-14;45-3;45-4;54-4;45-10;53-7,45-10,0.37,67,4,999.611414167
GEMS222,2018_Apr_13_0954,George,EG,spatial_frequency,8,6,11,39-13;19-8;25-11;17-8,4,SimpleHill,17-8,42,12,selected,45-10,52-11;49-12;50-9;46-6;50-6;50-11,50-11,0.24,69,2,1003.40622323
GEMS222,2018_Apr_13_0954,George,EG,spatial_frequency,8,6,11,39-13;19-8;25-11;17-8,4,SimpleHill,17-8,42,13,selected,50-11,50-9;49-17;47-5;50-5;46-14;48-9,49-17,0.23,78,9,1007.18821997
GEMS222,2018_Apr_13_0954,George,EG,spatial_frequency,8,6,11,39-13;19-8;25-11;17-8,4,SimpleHill,17-8,42,14,selected,49-17,54-16;48-19;51-22;55-20;46-11;50-17,51-22,0.39,84,6,1011.15465702
GEMS222,2018_Apr_13_0954,George,EG,spatial_frequency,8,6,11,39-13;19-8;25-11;17-8,4,SimpleHill,17-8,42,15,selected,51-22,54-24;55-23;51-14;56-24;46-22;45-18,46-22,0.37,84,0,1015.07840018
GEMS222,2018_Apr_13_0954,George,EG,spatial_frequency,8,6,11,39-13;19-8;25-11;17-8,4,SimpleHill,17-8,42,16,selected,46-22,43-24;47-17;46-27;48-23;45-26;41-20,43-24,0.22,85,1,1018.84770494
GEMS222,2018_Apr_13_0954,George,EG,spatial_frequency,8,6,11,39-13;19-8;25-11;17-8,4,SimpleHill,17-8,42,17,selected,43-24,42-29;41-31;36-23;39-28;43-16;47-30,47-30,0.95,91,6,1023.37574437
GEMS222,2018_Apr_13_0954,George,EG,spatial_frequency,8,6,11,39-13;19-8;25-11;17-8,4,SimpleHill,17-8,42,18,selected,47-30,47-26;41-29;51-25;51-24;41-32;46-37,51-24,0.65,86,-5,1027.57455267
GEMS222,2018_Apr_13_0954,George,EG,spatial_frequency,8,6,11,39-13;19-8;25-11;17-8,4,SimpleHill,17-8,42,19,selected,51-24,55-24;48-30;48-22;55-27;49-29;51-21,48-22,0.54,84,-2,1031.69657405
GEMS222,2018_Apr_13_0954,George,EG,spatial_frequency,8,6,11,39-13;19-8;25-11;17-8,4,SimpleHill,17-8,42,20,selected,48-22,47-16;49-21;47-28;42-21;52-19;53-16,52-19,0.24,80,-4,1035.50147883
GEMS222,2018_Apr_13_0954,George,EG,spatial_frequency,8,6,11,39-13;19-8;25-11;17-8,4,SimpleHill,17-8,42,21,selected,52-19,51-24;49-13;47-23;48-16;56-17;54-14,51-24,0.75,86,6,1039.82577926
GEMS222,2018_Apr_13_0954,George,EG,spatial_frequency,8,6,11,39-13;19-8;25-11;17-8,4,SimpleHill,17-8,42,22,selected,51-24,50-26;44-23;45-21;57-23;51-25;58-21,44-23,0.25,84,-2,1043.63492526
GEMS222,2018_Apr_13_0954,George,EG,spatial_frequency,8,6,11,39-13;19-8;25-11;17-8,4,SimpleHill,17-8,42,23,selected,44-23,46-29;43-23;43-30;45-24;47-24;41-28,43-23,0.44,84,0,1047.61769053
GEMS222,2018_Apr_13_0954,George,EG,spatial_frequency,8,6,11,39-13;19-8;25-11;17-8,4,SimpleHill,17-8,42,24,selected,43-23,42-19;39-19;37-20;48-26;45-22;41-27,39-19,0.23,78,-6,1051.41777024
GEMS222,2018_Apr_13_0954,George,EG,spatial_frequency,8,6,11,39-13;19-8;25-11;17-8,4,SimpleHill,17-8,42,25,selected,39-19,47-19;40-12;35-18;44-13;44-18;38-18,47-19,0.19,80,2,1055.17195064
GEMS222,2018_Apr_13_0954,George,EG,spatial_frequency,8,6,11,39-13;19-8;25-11;17-8,4,SimpleHill,17-8,42,26,selected,47-19,53-22;41-16;52-14;44-12;42-24;40-21,52-14,0.22,74,-6,1058.97096636
GEMS222,2018_Apr_13_0954,George,EG,spatial_frequency,8,6,11,39-13;19-8;25-11;17-8,4,SimpleHill,17-8,42,27,selected,52-14,56-9;52-12;50-17;54-10;49-21;58-15,58-15,0.44,74,0,1062.97134439
GEMS222,2018_Apr_13_0954,George,EG,spatial_frequency,8,6,11,39-13;19-8;25-11;17-8,4,SimpleHill,17-8,42,28,selected,58-15,66-15;61-9;53-20;57-13;64-18;56-15,64-18,0.05,75,1,1066.59393873
GEMS222,2018_Apr_13_0954,George,EG,spatial_frequency,8,6,11,39-13;19-8;25-11;17-8,4,SimpleHill,17-8,42,29,selected,64-18,58-20;70-16;58-19;68-12;66-21;70-14,58-20,0.21,80,5,1070.36963638
GEMS222,2018_Apr_13_0954,George,EG,spatial_frequency,8,6,11,39-13;19-8;25-11;17-8,4,SimpleHill,17-8,42,30,selected,58-20,60-17;51-18;59-26;61-26;59-23;54-17,59-26,0.05,86,6,1073.98135655
GEMS222,2018_Apr_13_0954,George,EG,spatial_frequency,8,6,11,39-13;19-8;25-11;17-8,4,SimpleHill,17-8,42,31,selected,59-26,54-32;64-21;57-19;58-26;59-27;54-25,64-21,0.22,79,-7,1077.81622803
GEMS222,2018_Apr_13_0954,George,EG,spatial_frequency,8,6,11,39-13;19-8;25-11;17-8,4,SimpleHill,17-8,42,32,selected,64-21,68-15;62-18;58-19;59-23;67-19;58-17,59-23,0.18,83,4,1081.56146026
GEMS222,2018_Apr_13_0954,George,EG,spatial_frequency,8,6,11,39-13;19-8;25-11;17-8,4,SimpleHill,17-8,42,33,selected,59-23,59-21;60-16;58-30;62-30;57-16;61-19,61-19,1.2,78,-5,1086.30567427
GEMS222,2018_Apr_13_0954,George,EG,spatial_frequency,8,6,11,39-13;19-8;25-11;17-8,4,SimpleHill,17-8,42,34,selected,61-19,59-17;65-15;57-13;60-19;67-23;64-19,57-13,0.55,71,-7,1090.43174258
GEMS222,2018_Apr_13_0954,George,EG,spatial_frequency,8,6,11,39-13;19-8;25-11;17-8,4,SimpleHill,17-8,42,35,selected,57-13,54-11;56-17;51-11;60-8;63-12;60-13,54-11,0.25,69,-2,1094.23924362
GEMS222,2018_Apr_13_0954,George,EG,spatial_frequency,8,6,11,39-13;19-8;25-11;17-8,4,SimpleHill,17-8,42,36,selected,54-11,56-7;52-7;55-10;51-13;51-7;49-11,51-7,0.97,63,-6,1098.779597
GEMS222,2018_Apr_13_0954,George,EG,spatial_frequency,8,6,11,39-13;19-8;25-11;17-8,4,SimpleHill,17-8,42,37,selected,51-7,51-1;52-3;49-6;53-8;54-6;51-15,51-15,0.57,75,12,1102.92900771
GEMS222,2018_Apr_13_0954,George,EG,spatial_frequency,8,6,11,39-13;19-8;25-11;17-8,4,SimpleHill,17-8,42,38,selected,51-15,48-17;46-18;48-13;51-8;51-23;47-15,48-13,0.52,72,-3,1107.01193336
GEMS222,2018_Apr_13_0954,George,EG,spatial_frequency,8,6,11,39-13;19-8;25-11;17-8,4,SimpleHill,17-8,42,39,selected,48-13,45-20;49-19;53-12;47-6;42-13;45-13,45-13,0.37,72,0,1110.94589354
