subj_id,date,computer,experimenter,version,generation,inherit_from,sight_radius,n_gabors,block_ix,landscape_name,starting_pos,starting_score,trial,pos,stims,selected,rt,score,delta,exp_time,landscape_ix
GEMS130,2018_Oct_04_1522,George,VC,1.2,2,GEMS116,10,6,1,SimpleHill,0-0,0,0,0-0,5-3;0-7;0-8;5-8;5-7;0-5,5-8,21.81,24,24,131.90504098,1
GEMS130,2018_Oct_04_1522,George,VC,1.2,2,GEMS116,10,6,1,SimpleHill,0-0,0,1,5-8,11-15;3-12;4-17;0-13;10-4;14-4,4-17,9.62,35,11,145.598075603,1
GEMS130,2018_Oct_04_1522,George,VC,1.2,2,GEMS116,10,6,1,SimpleHill,0-0,0,2,4-17,12-13;1-22;2-8;2-26;8-18;0-15,12-13,7.43,43,8,157.101776995,1
GEMS130,2018_Oct_04_1522,George,VC,1.2,2,GEMS116,10,6,1,SimpleHill,0-0,0,3,12-13,11-8;9-14;8-5;7-19;18-21;18-16,18-21,20.42,62,19,181.60407574,1
GEMS130,2018_Oct_04_1522,George,VC,1.2,2,GEMS116,10,6,1,SimpleHill,0-0,0,4,18-21,26-24;26-18;15-17;20-12;9-18;11-19,26-24,3.45,74,12,189.135805089,1
GEMS130,2018_Oct_04_1522,George,VC,1.2,2,GEMS116,10,6,1,SimpleHill,0-0,0,5,26-24,31-29;31-20;31-21;30-33;22-25;31-31,31-29,6.7,83,9,199.910304264,1
GEMS130,2018_Oct_04_1522,George,VC,1.2,2,GEMS116,10,6,1,SimpleHill,0-0,0,6,31-29,22-33;26-32;37-27;38-26;33-32;35-32,37-27,7.1,86,3,211.055580256,1
GEMS130,2018_Oct_04_1522,George,VC,1.2,2,GEMS116,10,6,1,SimpleHill,0-0,0,7,37-27,37-33;42-28;45-27;29-22;45-25;44-28,37-33,2.46,90,4,217.576835852,1
GEMS130,2018_Oct_04_1522,George,VC,1.2,2,GEMS116,10,6,1,SimpleHill,0-0,0,8,37-33,41-39;38-26;39-27;37-35;46-29;33-37,41-39,9.29,95,5,230.955245919,1
GEMS130,2018_Oct_04_1522,George,VC,1.2,2,GEMS116,10,6,1,SimpleHill,0-0,0,9,41-39,32-40;36-41;35-36;48-42;32-36;34-39,32-36,14.46,89,-6,249.492600897,1
GEMS130,2018_Oct_04_1522,George,VC,1.2,2,GEMS116,10,6,1,SimpleHill,0-0,0,10,32-36,28-44;34-42;34-30;24-31;36-33;35-45,35-45,16.58,95,6,270.154389991,1
GEMS130,2018_Oct_04_1522,George,VC,1.2,2,GEMS116,10,6,1,SimpleHill,0-0,0,11,35-45,29-45;34-50;37-38;32-43;28-45;33-44,37-38,6.75,93,-2,280.974370178,1
GEMS130,2018_Oct_04_1522,George,VC,1.2,2,GEMS116,10,6,1,SimpleHill,0-0,0,12,37-38,46-35;38-46;28-38;45-44;41-29;37-47,46-35,1.16,95,2,286.19464933,1
GEMS130,2018_Oct_04_1522,George,VC,1.2,2,GEMS116,10,6,1,SimpleHill,0-0,0,13,46-35,50-35;46-37;44-37;47-32;52-37;41-33,50-35,3.56,95,0,293.81767872,1
GEMS130,2018_Oct_04_1522,George,VC,1.2,2,GEMS116,10,6,1,SimpleHill,0-0,0,14,50-35,56-39;50-41;54-31;48-39;52-38;56-40,52-38,3.27,97,2,301.150118034,1
GEMS130,2018_Oct_04_1522,George,VC,1.2,2,GEMS116,10,6,1,SimpleHill,0-0,0,15,52-38,59-36;51-33;48-46;52-31;53-35;45-35,48-46,1.4,99,2,306.606716825,1
GEMS130,2018_Oct_04_1522,George,VC,1.2,2,GEMS116,10,6,1,SimpleHill,0-0,0,16,48-46,47-37;47-51;48-52;48-36;48-48;41-45,48-52,2.85,99,0,313.533602851,1
GEMS130,2018_Oct_04_1522,George,VC,1.2,2,GEMS116,10,6,1,SimpleHill,0-0,0,17,48-52,57-48;49-46;47-49;41-57;40-53;55-47,57-48,5.01,98,-1,322.615892282,1
GEMS130,2018_Oct_04_1522,George,VC,1.2,2,GEMS116,10,6,1,SimpleHill,0-0,0,18,57-48,64-52;50-45;55-43;65-54;66-52;58-57,50-45,2.0,99,1,328.675660311,1
GEMS130,2018_Oct_04_1522,George,VC,1.2,2,GEMS116,10,6,1,SimpleHill,0-0,0,19,50-45,48-43;51-43;43-48;42-39;57-38;48-39,42-39,3.0,96,-3,335.746806355,1
GEMS130,2018_Oct_04_1522,George,VC,1.2,2,GEMS116,10,6,1,SimpleHill,0-0,0,20,42-39,41-35;35-43;38-45;36-35;46-48;49-32,38-45,11.64,96,0,351.470706236,1
GEMS130,2018_Oct_04_1522,George,VC,1.2,2,GEMS116,10,6,1,SimpleHill,0-0,0,21,38-45,35-36;43-48;45-50;39-42;33-52;30-48,35-36,2.28,91,-5,357.804887495,1
GEMS130,2018_Oct_04_1522,George,VC,1.2,2,GEMS116,10,6,1,SimpleHill,0-0,0,22,35-36,42-30;36-40;31-36;32-37;37-28;31-35,32-37,8.89,90,-1,370.773962379,1
GEMS130,2018_Oct_04_1522,George,VC,1.2,2,GEMS116,10,6,1,SimpleHill,0-0,0,23,32-37,38-45;30-30;29-30;35-39;29-32;32-36,29-32,11.54,84,-6,386.369792852,1
GEMS130,2018_Oct_04_1522,George,VC,1.2,2,GEMS116,10,6,1,SimpleHill,0-0,0,24,29-32,33-33;36-38;28-38;32-25;22-29;30-37,28-38,7.56,87,3,398.000303128,1
GEMS130,2018_Oct_04_1522,George,VC,1.2,2,GEMS116,10,6,1,SimpleHill,0-0,0,25,28-38,26-35;23-44;28-35;33-36;25-34;22-44,23-44,3.63,84,-3,405.694283945,1
GEMS130,2018_Oct_04_1522,George,VC,1.2,2,GEMS116,10,6,1,SimpleHill,0-0,0,26,23-44,14-48;30-49;17-51;21-51;24-47;14-47,14-47,4.8,73,-11,414.554610215,1
GEMS130,2018_Oct_04_1522,George,VC,1.2,2,GEMS116,10,6,1,SimpleHill,0-0,0,27,14-47,7-43;18-50;22-47;14-53;21-51;9-39,21-51,12.51,83,10,431.134798077,1
GEMS130,2018_Oct_04_1522,George,VC,1.2,2,GEMS116,10,6,1,SimpleHill,0-0,0,28,21-51,29-46;15-51;15-55;23-47;20-59;21-61,20-59,4.29,80,-3,439.476290894,1
GEMS130,2018_Oct_04_1522,George,VC,1.2,2,GEMS116,10,6,1,SimpleHill,0-0,0,29,20-59,26-53;29-63;13-60;11-55;30-59;14-56,13-60,14.51,70,-10,458.042413883,1
GEMS130,2018_Oct_04_1522,George,VC,1.2,2,GEMS116,10,6,1,SimpleHill,0-0,0,30,13-60,4-62;9-54;15-55;8-61;18-59;10-58,10-58,7.65,66,-4,469.776596422,1
GEMS130,2018_Oct_04_1522,George,VC,1.2,2,GEMS116,10,6,1,SimpleHill,0-0,0,31,10-58,8-58;8-52;15-51;18-54;18-64;16-60,18-64,12.99,75,9,486.838346785,1
GEMS130,2018_Oct_04_1522,George,VC,1.2,2,GEMS116,10,6,1,SimpleHill,0-0,0,32,18-64,14-60;22-61;20-63;16-64;12-65;17-60,16-64,5.74,72,-3,496.644772966,1
GEMS130,2018_Oct_04_1522,George,VC,1.2,2,GEMS116,10,6,1,SimpleHill,0-0,0,33,16-64,9-59;10-67;14-62;22-64;9-64;25-66,14-62,2.62,71,-1,503.310041468,1
GEMS130,2018_Oct_04_1522,George,VC,1.2,2,GEMS116,10,6,1,SimpleHill,0-0,0,34,14-62,9-70;12-61;17-58;22-67;6-62;12-70,12-70,3.99,63,-8,511.38760537,1
GEMS130,2018_Oct_04_1522,George,VC,1.2,2,GEMS116,10,6,1,SimpleHill,0-0,0,35,12-70,18-70;5-68;7-63;8-69;18-66;15-66,8-69,14.12,57,-6,529.585544934,1
GEMS130,2018_Oct_04_1522,George,VC,1.2,2,GEMS116,10,6,1,SimpleHill,0-0,0,36,8-69,10-70;7-60;0-66;11-61;6-65;1-67,7-60,1.37,61,4,535.019296788,1
GEMS130,2018_Oct_04_1522,George,VC,1.2,2,GEMS116,10,6,1,SimpleHill,0-0,0,37,7-60,3-51;5-60;6-51;11-68;1-61;8-55,3-51,3.28,55,-6,542.357136067,1
GEMS130,2018_Oct_04_1522,George,VC,1.2,2,GEMS116,10,6,1,SimpleHill,0-0,0,38,3-51,3-44;6-50;4-44;5-43;11-50;8-45,3-44,2.96,55,0,549.378889886,1
GEMS130,2018_Oct_04_1522,George,VC,1.2,2,GEMS116,10,6,1,SimpleHill,0-0,0,39,3-44,9-36;0-45;0-48;1-50;1-40;2-35,9-36,2.22,62,7,555.646757861,1
GEMS130,2018_Oct_04_1522,George,VC,1.2,2,GEMS116,10,6,2,SimpleHill,0-0,0,0,0-0,6-1;4-3;9-1;5-4;2-0;3-3,6-1,4.69,13,13,576.384695728,1
GEMS130,2018_Oct_04_1522,George,VC,1.2,2,GEMS116,10,6,2,SimpleHill,0-0,0,1,6-1,4-3;1-9;11-3;5-8;0-5;6-6,11-3,5.96,25,12,586.399472487,1
GEMS130,2018_Oct_04_1522,George,VC,1.2,2,GEMS116,10,6,2,SimpleHill,0-0,0,2,11-3,4-6;13-3;14-5;5-4;7-0;19-7,13-3,12.75,28,3,603.224830551,1
GEMS130,2018_Oct_04_1522,George,VC,1.2,2,GEMS116,10,6,2,SimpleHill,0-0,0,3,13-3,21-2;20-5;9-11;10-10;5-3;8-4,20-5,9.12,41,13,616.399143432,1
GEMS130,2018_Oct_04_1522,George,VC,1.2,2,GEMS116,10,6,2,SimpleHill,0-0,0,4,20-5,12-8;15-2;21-1;18-0;18-7;20-2,21-1,2.81,35,-6,623.273120055,1
GEMS130,2018_Oct_04_1522,George,VC,1.2,2,GEMS116,10,6,2,SimpleHill,0-0,0,5,21-1,22-4;19-10;20-5;18-2;28-0;25-0,19-10,4.95,48,13,632.293758032,1
GEMS130,2018_Oct_04_1522,George,VC,1.2,2,GEMS116,10,6,2,SimpleHill,0-0,0,6,19-10,19-11;19-6;21-10;18-5;11-14;12-13,19-6,3.15,42,-6,639.486375734,1
GEMS130,2018_Oct_04_1522,George,VC,1.2,2,GEMS116,10,6,2,SimpleHill,0-0,0,7,19-6,16-7;13-5;22-8;17-8;26-1;13-8,13-5,1.19,32,-10,644.741162481,1
GEMS130,2018_Oct_04_1522,George,VC,1.2,2,GEMS116,10,6,2,SimpleHill,0-0,0,8,13-5,11-8;23-5;13-0;9-4;11-3;19-8,13-0,47.95,22,-10,696.751013333,1
GEMS130,2018_Oct_04_1522,George,VC,1.2,2,GEMS116,10,6,2,SimpleHill,0-0,0,9,13-0,21-0;8-2;6-6;11-8;9-9;22-3,21-0,1.93,33,11,702.764539171,1
GEMS130,2018_Oct_04_1522,George,VC,1.2,2,GEMS116,10,6,2,SimpleHill,0-0,0,10,21-0,19-0;15-7;17-7;21-2;17-5;23-3,19-0,1.98,30,-3,708.81177653,1
GEMS130,2018_Oct_04_1522,George,VC,1.2,2,GEMS116,10,6,2,SimpleHill,0-0,0,11,19-0,17-1;14-0;12-4;17-6;13-3;22-5,14-0,4.84,24,-6,717.761884962,1
GEMS130,2018_Oct_04_1522,George,VC,1.2,2,GEMS116,10,6,2,SimpleHill,0-0,0,12,14-0,16-6;22-4;17-1;19-6;14-8;10-4,17-1,21.85,30,6,743.677990906,1
GEMS130,2018_Oct_04_1522,George,VC,1.2,2,GEMS116,10,6,2,SimpleHill,0-0,0,13,17-1,19-0;22-9;26-3;8-2;21-4;22-1,19-0,10.83,30,0,758.574423953,1
GEMS130,2018_Oct_04_1522,George,VC,1.2,2,GEMS116,10,6,2,SimpleHill,0-0,0,14,19-0,17-0;10-0;13-1;22-8;18-5;21-9,17-0,6.17,28,-2,768.808566961,1
GEMS130,2018_Oct_04_1522,George,VC,1.2,2,GEMS116,10,6,2,SimpleHill,0-0,0,15,17-0,14-1;24-3;23-6;20-5;21-7;16-7,14-1,5.61,26,-2,778.465416384,1
GEMS130,2018_Oct_04_1522,George,VC,1.2,2,GEMS116,10,6,2,SimpleHill,0-0,0,16,14-1,15-5;6-2;17-6;8-9;11-10;21-4,21-4,6.11,40,14,788.632171557,1
GEMS130,2018_Oct_04_1522,George,VC,1.2,2,GEMS116,10,6,2,SimpleHill,0-0,0,17,21-4,29-9;19-7;23-0;14-2;24-13;15-5,14-2,7.82,28,-12,800.508531911,1
GEMS130,2018_Oct_04_1522,George,VC,1.2,2,GEMS116,10,6,2,SimpleHill,0-0,0,18,14-2,11-5;14-11;10-7;20-2;23-0;6-2,14-11,2.73,43,15,807.318803045,1
GEMS130,2018_Oct_04_1522,George,VC,1.2,2,GEMS116,10,6,2,SimpleHill,0-0,0,19,14-11,15-13;16-9;17-16;15-18;6-13;13-3,17-16,3.09,55,12,814.476428214,1
GEMS130,2018_Oct_04_1522,George,VC,1.2,2,GEMS116,10,6,2,SimpleHill,0-0,0,20,17-16,14-22;25-16;14-25;25-14;24-19;14-15,14-25,4.87,61,6,823.415637168,1
GEMS130,2018_Oct_04_1522,George,VC,1.2,2,GEMS116,10,6,2,SimpleHill,0-0,0,21,14-25,17-23;8-18;17-28;7-29;16-22;9-20,7-29,5.87,54,-7,833.354975761,1
GEMS130,2018_Oct_04_1522,George,VC,1.2,2,GEMS116,10,6,2,SimpleHill,0-0,0,22,7-29,9-29;7-33;8-28;12-32;7-26;10-31,8-28,3.5,55,1,840.918610669,1
GEMS130,2018_Oct_04_1522,George,VC,1.2,2,GEMS116,10,6,2,SimpleHill,0-0,0,23,8-28,5-29;14-27;1-34;1-30;4-27;10-31,4-27,10.65,47,-8,855.626011053,1
GEMS130,2018_Oct_04_1522,George,VC,1.2,2,GEMS116,10,6,2,SimpleHill,0-0,0,24,4-27,10-21;4-17;7-23;2-34;7-19;0-33,2-34,4.22,48,1,863.898542138,1
GEMS130,2018_Oct_04_1522,George,VC,1.2,2,GEMS116,10,6,2,SimpleHill,0-0,0,25,2-34,0-25;0-31;7-34;7-33;3-38;3-33,3-38,8.69,52,4,876.65759684,1
GEMS130,2018_Oct_04_1522,George,VC,1.2,2,GEMS116,10,6,2,SimpleHill,0-0,0,26,3-38,10-36;5-43;0-36;2-44;3-46;10-35,0-36,7.1,46,-6,887.807021874,1
GEMS130,2018_Oct_04_1522,George,VC,1.2,2,GEMS116,10,6,2,SimpleHill,0-0,0,27,0-36,0-26;7-32;3-36;2-45;7-41;8-33,2-45,3.77,53,7,895.654964078,1
GEMS130,2018_Oct_04_1522,George,VC,1.2,2,GEMS116,10,6,2,SimpleHill,0-0,0,28,2-45,10-49;6-51;9-52;2-47;9-48;8-44,9-52,4.8,66,13,904.52175334,1
GEMS130,2018_Oct_04_1522,George,VC,1.2,2,GEMS116,10,6,2,SimpleHill,0-0,0,29,9-52,5-55;16-59;9-45;11-46;18-50;12-61,12-61,5.49,68,2,914.086652294,1
GEMS130,2018_Oct_04_1522,George,VC,1.2,2,GEMS116,10,6,2,SimpleHill,0-0,0,30,12-61,15-60;18-53;8-54;10-70;10-62;10-54,10-70,9.83,60,-8,927.969926651,1
GEMS130,2018_Oct_04_1522,George,VC,1.2,2,GEMS116,10,6,2,SimpleHill,0-0,0,31,10-70,11-61;17-65;10-61;13-64;7-67;2-66,7-67,3.94,57,-3,935.99195639,1
GEMS130,2018_Oct_04_1522,George,VC,1.2,2,GEMS116,10,6,2,SimpleHill,0-0,0,32,7-67,11-59;8-63;10-59;10-67;2-67;2-64,11-59,4.45,67,10,944.510673011,1
GEMS130,2018_Oct_04_1522,George,VC,1.2,2,GEMS116,10,6,2,SimpleHill,0-0,0,33,11-59,12-53;11-50;17-61;19-63;20-60;16-59,20-60,6.35,80,13,954.913024732,1
GEMS130,2018_Oct_04_1522,George,VC,1.2,2,GEMS116,10,6,2,SimpleHill,0-0,0,34,20-60,29-60;19-54;29-62;25-57;13-58;25-54,29-62,10.75,88,8,969.727948414,1
GEMS130,2018_Oct_04_1522,George,VC,1.2,2,GEMS116,10,6,2,SimpleHill,0-0,0,35,29-62,26-65;26-56;28-53;34-65;30-65;26-60,30-65,16.08,87,-1,989.86878504,1
GEMS130,2018_Oct_04_1522,George,VC,1.2,2,GEMS116,10,6,2,SimpleHill,0-0,0,36,30-65,27-64;31-56;26-65;32-62;28-63;34-63,32-62,6.23,90,3,1000.16350463,1
GEMS130,2018_Oct_04_1522,George,VC,1.2,2,GEMS116,10,6,2,SimpleHill,0-0,0,37,32-62,27-68;34-56;26-58;30-65;27-54;39-55,30-65,6.0,87,-3,1010.23477487,1
GEMS130,2018_Oct_04_1522,George,VC,1.2,2,GEMS116,10,6,2,SimpleHill,0-0,0,38,30-65,27-68;30-70;21-64;23-60;21-65;27-59,30-70,5.84,84,-3,1020.12982768,1
GEMS130,2018_Oct_04_1522,George,VC,1.2,2,GEMS116,10,6,2,SimpleHill,0-0,0,39,30-70,32-62;31-66;29-62;34-62;26-62;34-70,34-70,6.02,86,2,1030.21984511,1
GEMS130,2018_Oct_04_1522,George,VC,1.2,2,GEMS116,10,6,3,SimpleHill,0-0,0,0,0-0,1-7;0-10;4-2;6-0;7-3;7-4,1-7,7.03,15,15,1362.81816398,1
GEMS130,2018_Oct_04_1522,George,VC,1.2,2,GEMS116,10,6,3,SimpleHill,0-0,0,1,1-7,8-11;6-8;4-6;1-12;1-11;2-8,2-8,6.25,18,3,1373.12709473,1
GEMS130,2018_Oct_04_1522,George,VC,1.2,2,GEMS116,10,6,3,SimpleHill,0-0,0,2,2-8,1-4;0-10;8-7;9-11;1-8;3-9,0-10,3.97,18,0,1381.15331864,1
GEMS130,2018_Oct_04_1522,George,VC,1.2,2,GEMS116,10,6,3,SimpleHill,0-0,0,3,0-10,7-6;0-16;2-15;1-8;2-8;5-8,2-8,3.18,18,0,1388.40168433,1
GEMS130,2018_Oct_04_1522,George,VC,1.2,2,GEMS116,10,6,3,SimpleHill,0-0,0,4,2-8,0-13;1-3;4-8;1-5;5-2;6-1,0-13,4.67,22,4,1397.15461021,1
GEMS130,2018_Oct_04_1522,George,VC,1.2,2,GEMS116,10,6,3,SimpleHill,0-0,0,5,0-13,8-12;6-11;5-18;8-8;2-21;4-16,5-18,5.54,39,17,1406.7430904,1
GEMS130,2018_Oct_04_1522,George,VC,1.2,2,GEMS116,10,6,3,SimpleHill,0-0,0,6,5-18,3-10;13-19;6-11;2-16;7-27;10-21,13-19,5.78,53,14,1416.59415799,1
GEMS130,2018_Oct_04_1522,George,VC,1.2,2,GEMS116,10,6,3,SimpleHill,0-0,0,7,13-19,8-18;9-28;19-27;14-15;22-19;21-19,22-19,4.53,65,12,1425.21292854,1
GEMS130,2018_Oct_04_1522,George,VC,1.2,2,GEMS116,10,6,3,SimpleHill,0-0,0,8,22-19,26-12;28-22;19-10;28-27;22-24;27-25,22-24,6.22,70,5,1435.50147803,1
GEMS130,2018_Oct_04_1522,George,VC,1.2,2,GEMS116,10,6,3,SimpleHill,0-0,0,9,22-24,13-20;23-16;14-25;27-18;26-22;15-20,13-20,7.62,54,-16,1447.20073525,1
GEMS130,2018_Oct_04_1522,George,VC,1.2,2,GEMS116,10,6,3,SimpleHill,0-0,0,10,13-20,18-27;18-17;10-11;20-26;7-24;16-15,18-27,15.59,68,14,1466.83659908,1
GEMS130,2018_Oct_04_1522,George,VC,1.2,2,GEMS116,10,6,3,SimpleHill,0-0,0,11,18-27,20-27;11-20;24-25;11-28;27-29;18-32,18-32,2.88,73,5,1473.7795416,1
GEMS130,2018_Oct_04_1522,George,VC,1.2,2,GEMS116,10,6,3,SimpleHill,0-0,0,12,18-32,18-35;24-35;22-39;11-36;18-32;12-34,18-32,6.04,73,0,1483.88657867,1
GEMS130,2018_Oct_04_1522,George,VC,1.2,2,GEMS116,10,6,3,SimpleHill,0-0,0,13,18-32,21-40;10-33;18-31;25-30;12-33;14-32,12-33,4.35,65,-8,1492.31227732,1
GEMS130,2018_Oct_04_1522,George,VC,1.2,2,GEMS116,10,6,3,SimpleHill,0-0,0,14,12-33,10-24;14-28;19-35;11-36;15-42;10-33,15-42,2.78,74,9,1499.16281835,1
GEMS130,2018_Oct_04_1522,George,VC,1.2,2,GEMS116,10,6,3,SimpleHill,0-0,0,15,15-42,6-39;18-36;21-50;15-49;5-42;11-33,11-33,6.21,63,-11,1509.43987459,1
GEMS130,2018_Oct_04_1522,George,VC,1.2,2,GEMS116,10,6,3,SimpleHill,0-0,0,16,11-33,21-33;2-32;11-29;8-24;9-25;6-39,21-33,6.16,77,14,1519.67759623,1
GEMS130,2018_Oct_04_1522,George,VC,1.2,2,GEMS116,10,6,3,SimpleHill,0-0,0,17,21-33,21-27;20-35;26-37;16-26;28-32;16-29,20-35,3.96,77,0,1527.71783925,1
GEMS130,2018_Oct_04_1522,George,VC,1.2,2,GEMS116,10,6,3,SimpleHill,0-0,0,18,20-35,24-33;17-32;11-33;18-27;14-43;14-35,24-33,5.28,80,3,1537.08432522,1
GEMS130,2018_Oct_04_1522,George,VC,1.2,2,GEMS116,10,6,3,SimpleHill,0-0,0,19,24-33,24-36;32-30;24-40;26-35;23-38;16-36,26-35,5.79,83,3,1546.93650289,1
GEMS130,2018_Oct_04_1522,George,VC,1.2,2,GEMS116,10,6,3,SimpleHill,0-0,0,20,26-35,26-25;35-32;31-28;23-41;35-31;17-34,23-41,4.78,83,0,1555.79841426,1
GEMS130,2018_Oct_04_1522,George,VC,1.2,2,GEMS116,10,6,3,SimpleHill,0-0,0,21,23-41,28-42;16-36;22-37;27-34;30-45;29-48,28-42,2.14,89,6,1562.00503314,1
GEMS130,2018_Oct_04_1522,George,VC,1.2,2,GEMS116,10,6,3,SimpleHill,0-0,0,22,28-42,36-43;31-40;32-45;26-36;23-48;23-47,23-48,2.95,85,-4,1569.03756288,1
GEMS130,2018_Oct_04_1522,George,VC,1.2,2,GEMS116,10,6,3,SimpleHill,0-0,0,23,23-48,27-50;30-45;27-46;19-56;22-47;19-52,22-47,9.3,84,-1,1582.41832947,1
GEMS130,2018_Oct_04_1522,George,VC,1.2,2,GEMS116,10,6,3,SimpleHill,0-0,0,24,22-47,14-50;24-51;22-54;18-55;20-56;27-50,20-56,3.62,81,-3,1590.11252891,1
GEMS130,2018_Oct_04_1522,George,VC,1.2,2,GEMS116,10,6,3,SimpleHill,0-0,0,25,20-56,28-61;27-55;12-60;26-57;29-53;16-47,16-47,3.03,76,-5,1597.19671617,1
GEMS130,2018_Oct_04_1522,George,VC,1.2,2,GEMS116,10,6,3,SimpleHill,0-0,0,26,16-47,20-53;21-50;15-40;14-39;23-41;9-53,15-40,1.39,73,-3,1602.66054393,1
GEMS130,2018_Oct_04_1522,George,VC,1.2,2,GEMS116,10,6,3,SimpleHill,0-0,0,27,15-40,20-43;23-36;18-47;11-33;13-33;13-31,20-43,3.27,81,8,1609.9946266,1
GEMS130,2018_Oct_04_1522,George,VC,1.2,2,GEMS116,10,6,3,SimpleHill,0-0,0,28,20-43,25-36;17-50;23-36;23-42;25-39;17-51,23-42,3.97,84,3,1618.01420667,1
GEMS130,2018_Oct_04_1522,George,VC,1.2,2,GEMS116,10,6,3,SimpleHill,0-0,0,29,23-42,22-38;15-43;28-37;29-35;25-42;31-44,25-42,2.13,86,2,1624.20561795,1
GEMS130,2018_Oct_04_1522,George,VC,1.2,2,GEMS116,10,6,3,SimpleHill,0-0,0,30,25-42,25-41;23-39;31-37;18-47;28-50;16-43,25-41,4.72,85,-1,1632.99629141,1
GEMS130,2018_Oct_04_1522,George,VC,1.2,2,GEMS116,10,6,3,SimpleHill,0-0,0,31,25-41,27-33;25-43;17-39;27-47;34-44;26-41,25-43,4.36,86,1,1641.43045042,1
GEMS130,2018_Oct_04_1522,George,VC,1.2,2,GEMS116,10,6,3,SimpleHill,0-0,0,32,25-43,19-41;27-34;18-41;27-43;30-42;26-42,26-42,4.93,87,1,1650.43296347,1
GEMS130,2018_Oct_04_1522,George,VC,1.2,2,GEMS116,10,6,3,SimpleHill,0-0,0,33,26-42,20-49;30-33;21-38;29-46;33-37;19-49,29-46,6.61,90,3,1661.1072477,1
GEMS130,2018_Oct_04_1522,George,VC,1.2,2,GEMS116,10,6,3,SimpleHill,0-0,0,34,29-46,26-43;27-44;28-37;29-49;27-48;24-50,27-48,2.92,89,-1,1668.09904724,1
GEMS130,2018_Oct_04_1522,George,VC,1.2,2,GEMS116,10,6,3,SimpleHill,0-0,0,35,27-48,23-52;28-53;23-44;26-45;26-51;28-54,23-52,5.97,85,-4,1678.12328978,1
GEMS130,2018_Oct_04_1522,George,VC,1.2,2,GEMS116,10,6,3,SimpleHill,0-0,0,36,23-52,30-53;25-46;19-44;32-49;31-51;14-55,32-49,3.17,93,8,1685.34155459,1
GEMS130,2018_Oct_04_1522,George,VC,1.2,2,GEMS116,10,6,3,SimpleHill,0-0,0,37,32-49,36-49;28-44;25-52;33-44;33-48;25-50,36-49,5.09,96,3,1694.509255,1
GEMS130,2018_Oct_04_1522,George,VC,1.2,2,GEMS116,10,6,3,SimpleHill,0-0,0,38,36-49,40-41;35-50;28-47;36-44;29-56;37-53,29-56,3.64,90,-6,1702.2194117,1
GEMS130,2018_Oct_04_1522,George,VC,1.2,2,GEMS116,10,6,3,SimpleHill,0-0,0,39,29-56,32-56;26-59;29-46;27-55;23-52;36-61,32-56,7.66,92,2,1713.94887159,1
GEMS130,2018_Oct_04_1522,George,VC,1.2,2,GEMS116,10,6,4,SimpleHill,0-0,0,0,0-0,8-2;6-8;9-2;6-3;4-7;7-0,4-7,5.22,20,20,1729.75386888,1
GEMS130,2018_Oct_04_1522,George,VC,1.2,2,GEMS116,10,6,4,SimpleHill,0-0,0,1,4-7,3-8;9-14;10-7;7-11;1-4;9-6,10-7,2.32,31,11,1736.12475389,1
GEMS130,2018_Oct_04_1522,George,VC,1.2,2,GEMS116,10,6,4,SimpleHill,0-0,0,2,10-7,14-1;4-15;8-2;7-11;4-12;2-1,8-2,5.75,18,-13,1745.93942886,1
GEMS130,2018_Oct_04_1522,George,VC,1.2,2,GEMS116,10,6,4,SimpleHill,0-0,0,3,8-2,13-9;9-2;3-3;2-6;12-2;10-3,13-9,2.43,39,21,1752.44141167,1
GEMS130,2018_Oct_04_1522,George,VC,1.2,2,GEMS116,10,6,4,SimpleHill,0-0,0,4,13-9,17-17;5-12;16-1;11-16;20-14;15-5,17-17,1.99,56,17,1758.50182725,1
GEMS130,2018_Oct_04_1522,George,VC,1.2,2,GEMS116,10,6,4,SimpleHill,0-0,0,5,17-17,15-20;19-12;17-7;17-17;12-9;17-22,15-20,2.57,57,1,1765.15094707,1
GEMS130,2018_Oct_04_1522,George,VC,1.2,2,GEMS116,10,6,4,SimpleHill,0-0,0,6,15-20,9-19;12-25;15-11;13-15;11-23;21-26,12-25,8.03,58,1,1777.25243438,1
GEMS130,2018_Oct_04_1522,George,VC,1.2,2,GEMS116,10,6,4,SimpleHill,0-0,0,7,12-25,13-31;20-20;8-19;6-32;16-26;6-28,13-31,3.57,65,7,1784.88971718,1
GEMS130,2018_Oct_04_1522,George,VC,1.2,2,GEMS116,10,6,4,SimpleHill,0-0,0,8,13-31,8-38;12-39;15-36;8-36;21-36;12-35,12-39,2.3,68,3,1791.24981155,1
GEMS130,2018_Oct_04_1522,George,VC,1.2,2,GEMS116,10,6,4,SimpleHill,0-0,0,9,12-39,14-41;20-33;10-36;7-35;8-37;6-35,14-41,2.9,72,4,1798.21945555,1
GEMS130,2018_Oct_04_1522,George,VC,1.2,2,GEMS116,10,6,4,SimpleHill,0-0,0,10,14-41,19-45;12-50;15-39;21-39;6-41;6-39,12-50,1.95,71,-1,1804.23850107,1
GEMS130,2018_Oct_04_1522,George,VC,1.2,2,GEMS116,10,6,4,SimpleHill,0-0,0,11,12-50,13-41;8-49;4-48;7-42;2-50;5-46,13-41,2.81,71,0,1811.12554644,1
GEMS130,2018_Oct_04_1522,George,VC,1.2,2,GEMS116,10,6,4,SimpleHill,0-0,0,12,13-41,16-33;8-38;19-40;9-41;20-34;14-41,19-40,3.32,78,7,1818.51874703,1
GEMS130,2018_Oct_04_1522,George,VC,1.2,2,GEMS116,10,6,4,SimpleHill,0-0,0,13,19-40,20-47;20-32;14-48;12-33;27-43;27-41,12-33,3.68,65,-13,1826.26382776,1
GEMS130,2018_Oct_04_1522,George,VC,1.2,2,GEMS116,10,6,4,SimpleHill,0-0,0,14,12-33,14-26;15-31;14-30;4-39;12-35;7-31,14-30,2.02,66,1,1832.35341211,1
GEMS130,2018_Oct_04_1522,George,VC,1.2,2,GEMS116,10,6,4,SimpleHill,0-0,0,15,14-30,10-38;10-28;19-31;9-38;14-28;13-33,19-31,3.48,73,7,1839.90421674,1
GEMS130,2018_Oct_04_1522,George,VC,1.2,2,GEMS116,10,6,4,SimpleHill,0-0,0,16,19-31,27-35;27-30;25-31;24-33;22-34;14-37,24-33,2.63,80,7,1846.61679878,1
GEMS130,2018_Oct_04_1522,George,VC,1.2,2,GEMS116,10,6,4,SimpleHill,0-0,0,17,24-33,17-32;19-27;15-29;16-33;23-29;30-27,16-33,2.48,71,-9,1853.16495145,1
GEMS130,2018_Oct_04_1522,George,VC,1.2,2,GEMS116,10,6,4,SimpleHill,0-0,0,18,16-33,15-39;13-28;11-26;19-36;15-33;16-42,15-33,6.8,69,-2,1864.03581965,1
GEMS130,2018_Oct_04_1522,George,VC,1.2,2,GEMS116,10,6,4,SimpleHill,0-0,0,19,15-33,13-26;7-33;24-36;12-38;9-34;21-25,9-34,3.36,61,-8,1871.47569776,1
GEMS130,2018_Oct_04_1522,George,VC,1.2,2,GEMS116,10,6,4,SimpleHill,0-0,0,20,9-34,9-35;9-32;3-33;7-42;4-28;16-33,9-32,0.98,59,-2,1876.53166245,1
GEMS130,2018_Oct_04_1522,George,VC,1.2,2,GEMS116,10,6,4,SimpleHill,0-0,0,21,9-32,12-39;4-31;14-24;4-28;8-25;15-38,12-39,1.45,68,9,1882.0570562,1
GEMS130,2018_Oct_04_1522,George,VC,1.2,2,GEMS116,10,6,4,SimpleHill,0-0,0,22,12-39,11-44;7-37;17-36;7-34;16-43;9-40,7-34,2.97,57,-11,1889.10171234,1
GEMS130,2018_Oct_04_1522,George,VC,1.2,2,GEMS116,10,6,4,SimpleHill,0-0,0,23,7-34,14-39;7-24;5-28;12-38;8-39;2-26,14-39,1.98,71,14,1895.15324854,1
GEMS130,2018_Oct_04_1522,George,VC,1.2,2,GEMS116,10,6,4,SimpleHill,0-0,0,24,14-39,10-30;6-44;11-45;18-44;21-42;13-42,11-45,9.1,69,-2,1908.33733001,1
GEMS130,2018_Oct_04_1522,George,VC,1.2,2,GEMS116,10,6,4,SimpleHill,0-0,0,25,11-45,5-38;5-50;3-41;8-52;12-37;13-50,5-38,2.89,56,-13,1915.30229715,1
GEMS130,2018_Oct_04_1522,George,VC,1.2,2,GEMS116,10,6,4,SimpleHill,0-0,0,26,5-38,9-37;6-42;5-42;10-30;10-41;2-39,10-41,1.73,66,10,1921.25602743,1
GEMS130,2018_Oct_04_1522,George,VC,1.2,2,GEMS116,10,6,4,SimpleHill,0-0,0,27,10-41,15-40;4-34;10-31;13-43;14-32;3-34,15-40,6.23,73,7,1931.54577534,1
GEMS130,2018_Oct_04_1522,George,VC,1.2,2,GEMS116,10,6,4,SimpleHill,0-0,0,28,15-40,19-36;12-35;18-49;7-40;14-38;11-36,14-38,10.7,71,-2,1946.32525547,1
GEMS130,2018_Oct_04_1522,George,VC,1.2,2,GEMS116,10,6,4,SimpleHill,0-0,0,29,14-38,14-38;6-44;23-38;5-40;18-43;18-35,14-38,5.08,71,0,1955.46515999,1
GEMS130,2018_Oct_04_1522,George,VC,1.2,2,GEMS116,10,6,4,SimpleHill,0-0,0,30,14-38,15-35;14-34;10-33;17-45;11-31;13-43,10-33,3.81,62,-9,1963.35763349,1
GEMS130,2018_Oct_04_1522,George,VC,1.2,2,GEMS116,10,6,4,SimpleHill,0-0,0,31,10-33,12-28;18-36;6-38;9-25;16-31;5-29,18-36,1.65,75,13,1969.05538468,1
GEMS130,2018_Oct_04_1522,George,VC,1.2,2,GEMS116,10,6,4,SimpleHill,0-0,0,32,18-36,12-42;9-40;20-28;21-28;25-34;14-32,21-28,3.94,73,-2,1977.0466263,1
GEMS130,2018_Oct_04_1522,George,VC,1.2,2,GEMS116,10,6,4,SimpleHill,0-0,0,33,21-28,26-32;27-35;14-25;19-29;13-25;27-32,27-35,2.88,84,11,1984.0120022,1
GEMS130,2018_Oct_04_1522,George,VC,1.2,2,GEMS116,10,6,4,SimpleHill,0-0,0,34,27-35,21-37;30-29;30-40;35-29;34-42;35-37,34-42,6.16,93,9,1994.23414269,1
GEMS130,2018_Oct_04_1522,George,VC,1.2,2,GEMS116,10,6,4,SimpleHill,0-0,0,35,34-42,32-47;30-35;37-43;29-50;34-50;37-36,32-47,7.4,93,0,2005.69780016,1
GEMS130,2018_Oct_04_1522,George,VC,1.2,2,GEMS116,10,6,4,SimpleHill,0-0,0,36,32-47,28-42;36-45;26-52;24-50;32-51;39-44,24-50,6.37,86,-7,2016.12553011,1
GEMS130,2018_Oct_04_1522,George,VC,1.2,2,GEMS116,10,6,4,SimpleHill,0-0,0,37,24-50,29-47;22-51;18-58;29-50;22-55;31-50,29-50,8.41,91,5,2028.60996257,1
GEMS130,2018_Oct_04_1522,George,VC,1.2,2,GEMS116,10,6,4,SimpleHill,0-0,0,38,29-50,35-54;32-57;36-51;27-43;22-50;25-59,22-50,4.98,84,-7,2037.6396947,1
GEMS130,2018_Oct_04_1522,George,VC,1.2,2,GEMS116,10,6,4,SimpleHill,0-0,0,39,22-50,17-42;16-50;18-47;12-50;21-45;13-47,13-47,4.13,72,-12,2045.84793772,1
