subj_id,date,computer,experimenter,version,generation,inherit_from,sight_radius,n_gabors,block_ix,landscape_name,starting_pos,starting_score,trial,pos,stims,selected,rt,score,delta,exp_time,landscape_ix
GEMS235,2018_Oct_31_1111,George,AG,1.4,2,GEMS210,10,6,1,SimpleHill,0-0,1,0,0-0,6-2;0-8;2-7;3-7;5-1;4-7,2-7,2.22,17,16,220.73928323,1
GEMS235,2018_Oct_31_1111,George,AG,1.4,2,GEMS210,10,6,1,SimpleHill,0-0,1,1,2-7,9-2;1-9;8-10;4-13;7-4;2-8,1-9,1.81,19,2,226.620169847,1
GEMS235,2018_Oct_31_1111,George,AG,1.4,2,GEMS210,10,6,1,SimpleHill,0-0,1,2,1-9,7-11;5-9;1-5;3-12;4-9;10-12,10-12,1.02,40,21,231.703233796,1
GEMS235,2018_Oct_31_1111,George,AG,1.4,2,GEMS210,10,6,1,SimpleHill,0-0,1,3,10-12,12-8;10-8;8-19;4-11;3-12;2-16,2-16,1.11,31,-9,236.878255459,1
GEMS235,2018_Oct_31_1111,George,AG,1.4,2,GEMS210,10,6,1,SimpleHill,0-0,1,4,2-16,1-8;1-25;8-10;4-9;5-11;7-13,4-9,1.09,25,-6,242.039805717,1
GEMS235,2018_Oct_31_1111,George,AG,1.4,2,GEMS210,10,6,1,SimpleHill,0-0,1,5,4-9,4-7;14-9;6-18;10-2;5-16;4-15,14-9,0.77,41,16,246.883838828,1
GEMS235,2018_Oct_31_1111,George,AG,1.4,2,GEMS210,10,6,1,SimpleHill,0-0,1,6,14-9,9-16;9-9;15-8;8-13;16-0;18-3,9-16,1.37,44,3,252.324962173,1
GEMS235,2018_Oct_31_1111,George,AG,1.4,2,GEMS210,10,6,1,SimpleHill,0-0,1,7,9-16,10-14;1-11;6-22;16-23;13-13;12-8,16-23,1.03,63,19,257.429740863,1
GEMS235,2018_Oct_31_1111,George,AG,1.4,2,GEMS210,10,6,1,SimpleHill,0-0,1,8,16-23,8-29;15-26;20-25;18-25;20-16;18-17,20-25,2.08,70,7,263.577485861,1
GEMS235,2018_Oct_31_1111,George,AG,1.4,2,GEMS210,10,6,1,SimpleHill,0-0,1,9,20-25,15-29;24-28;17-23;20-25;17-27;14-28,15-29,1.68,67,-3,269.32717241,1
GEMS235,2018_Oct_31_1111,George,AG,1.4,2,GEMS210,10,6,1,SimpleHill,0-0,1,10,15-29,21-31;12-33;20-24;15-25;11-26;8-26,11-26,1.21,59,-8,274.615950071,1
GEMS235,2018_Oct_31_1111,George,AG,1.4,2,GEMS210,10,6,1,SimpleHill,0-0,1,11,11-26,7-19;20-30;16-31;8-24;12-25;12-31,12-31,1.43,64,5,280.120482097,1
GEMS235,2018_Oct_31_1111,George,AG,1.4,2,GEMS210,10,6,1,SimpleHill,0-0,1,12,12-31,4-27;8-38;12-24;16-25;12-33;16-38,12-33,2.34,66,2,286.526263412,1
GEMS235,2018_Oct_31_1111,George,AG,1.4,2,GEMS210,10,6,1,SimpleHill,0-0,1,13,12-33,20-35;20-39;6-36;21-36;17-39;9-29,6-36,0.93,58,-8,291.517461194,1
GEMS235,2018_Oct_31_1111,George,AG,1.4,2,GEMS210,10,6,1,SimpleHill,0-0,1,14,6-36,5-37;11-33;14-42;5-39;11-36;5-30,5-39,1.42,58,0,297.026312226,1
GEMS235,2018_Oct_31_1111,George,AG,1.4,2,GEMS210,10,6,1,SimpleHill,0-0,1,15,5-39,13-43;2-45;11-43;6-48;11-34;9-30,11-34,1.34,65,7,302.434395645,1
GEMS235,2018_Oct_31_1111,George,AG,1.4,2,GEMS210,10,6,1,SimpleHill,0-0,1,16,11-34,5-36;15-42;2-34;17-26;7-36;11-42,7-36,8.85,60,-5,315.432096422,1
GEMS235,2018_Oct_31_1111,George,AG,1.4,2,GEMS210,10,6,1,SimpleHill,0-0,1,17,7-36,12-41;2-35;15-39;12-29;3-39;0-40,15-39,1.57,74,14,321.068383876,1
GEMS235,2018_Oct_31_1111,George,AG,1.4,2,GEMS210,10,6,1,SimpleHill,0-0,1,18,15-39,11-40;20-37;16-30;16-41;17-42;19-46,16-30,5.92,69,-5,331.056041758,1
GEMS235,2018_Oct_31_1111,George,AG,1.4,2,GEMS210,10,6,1,SimpleHill,0-0,1,19,16-30,7-31;21-24;14-30;12-28;23-33;18-29,23-33,2.31,80,11,337.427053688,1
GEMS235,2018_Oct_31_1111,George,AG,1.4,2,GEMS210,10,6,1,SimpleHill,0-0,1,20,23-33,14-32;16-32;25-28;26-30;14-31;20-30,14-31,4.16,67,-13,345.656360442,1
GEMS235,2018_Oct_31_1111,George,AG,1.4,2,GEMS210,10,6,1,SimpleHill,0-0,1,21,14-31,10-28;6-25;9-23;14-31;20-39;17-27,9-23,1.05,52,-15,350.763537903,1
GEMS235,2018_Oct_31_1111,George,AG,1.4,2,GEMS210,10,6,1,SimpleHill,0-0,1,22,9-23,0-26;15-29;10-20;7-16;7-14;11-20,7-16,0.71,40,-12,355.542046203,1
GEMS235,2018_Oct_31_1111,George,AG,1.4,2,GEMS210,10,6,1,SimpleHill,0-0,1,23,7-16,7-8;11-21;0-12;5-16;11-18;5-20,7-8,0.39,28,-12,359.995963956,1
GEMS235,2018_Oct_31_1111,George,AG,1.4,2,GEMS210,10,6,1,SimpleHill,0-0,1,24,7-8,12-14;8-4;3-0;1-1;4-4;8-11,4-4,0.55,16,-12,364.61400359,1
GEMS235,2018_Oct_31_1111,George,AG,1.4,2,GEMS210,10,6,1,SimpleHill,0-0,1,25,4-4,3-1;11-10;5-1;3-12;6-5;11-5,5-1,0.65,12,-4,369.332780427,1
GEMS235,2018_Oct_31_1111,George,AG,1.4,2,GEMS210,10,6,1,SimpleHill,0-0,1,26,5-1,8-3;6-10;5-4;6-8;13-1;9-7,9-7,0.29,30,18,373.688248036,1
GEMS235,2018_Oct_31_1111,George,AG,1.4,2,GEMS210,10,6,1,SimpleHill,0-0,1,27,9-7,4-1;18-10;12-15;5-14;10-10;13-6,10-10,0.53,37,7,378.287416628,1
GEMS235,2018_Oct_31_1111,George,AG,1.4,2,GEMS210,10,6,1,SimpleHill,0-0,1,28,10-10,9-9;12-1;14-14;15-16;19-10;19-11,15-16,0.63,53,16,382.981838604,1
GEMS235,2018_Oct_31_1111,George,AG,1.4,2,GEMS210,10,6,1,SimpleHill,0-0,1,29,15-16,24-15;19-10;17-7;16-17;8-12;13-11,17-7,0.76,42,-11,387.818065625,1
GEMS235,2018_Oct_31_1111,George,AG,1.4,2,GEMS210,10,6,1,SimpleHill,0-0,1,30,17-7,20-11;15-10;9-10;17-1;15-5;11-3,15-10,0.27,44,2,392.159171652,1
GEMS235,2018_Oct_31_1111,George,AG,1.4,2,GEMS210,10,6,1,SimpleHill,0-0,1,31,15-10,18-19;21-3;19-3;16-3;20-4;13-18,18-19,0.41,61,17,396.631019055,1
GEMS235,2018_Oct_31_1111,George,AG,1.4,2,GEMS210,10,6,1,SimpleHill,0-0,1,32,18-19,10-22;14-20;27-18;21-15;11-26;13-17,13-17,0.58,51,-10,401.276029985,1
GEMS235,2018_Oct_31_1111,George,AG,1.4,2,GEMS210,10,6,1,SimpleHill,0-0,1,33,13-17,8-24;4-13;9-12;16-20;17-14;9-15,17-14,0.3,53,2,405.648095019,1
GEMS235,2018_Oct_31_1111,George,AG,1.4,2,GEMS210,10,6,1,SimpleHill,0-0,1,34,17-14,13-14;23-16;14-20;8-18;10-20;9-9,8-18,0.31,45,-8,410.023533185,1
GEMS235,2018_Oct_31_1111,George,AG,1.4,2,GEMS210,10,6,1,SimpleHill,0-0,1,35,8-18,16-15;6-19;5-10;7-27;8-28;13-23,5-10,1.15,28,-17,415.255256316,1
GEMS235,2018_Oct_31_1111,George,AG,1.4,2,GEMS210,10,6,1,SimpleHill,0-0,1,36,5-10,8-12;9-10;2-10;10-6;12-8;7-4,9-10,1.73,35,7,421.037070528,1
GEMS235,2018_Oct_31_1111,George,AG,1.4,2,GEMS210,10,6,1,SimpleHill,0-0,1,37,9-10,9-11;4-15;11-12;15-3;1-16;5-3,9-11,1.15,36,1,426.251186982,1
GEMS235,2018_Oct_31_1111,George,AG,1.4,2,GEMS210,10,6,1,SimpleHill,0-0,1,38,9-11,11-18;2-12;8-11;8-13;7-15;7-13,2-12,0.59,26,-10,430.913274515,1
GEMS235,2018_Oct_31_1111,George,AG,1.4,2,GEMS210,10,6,1,SimpleHill,0-0,1,39,2-12,5-3;9-18;8-7;4-8;6-18;1-14,8-7,1.65,28,2,436.654156606,1
GEMS235,2018_Oct_31_1111,George,AG,1.4,2,GEMS210,10,6,1,SimpleHill,0-0,1,40,8-7,13-15;8-1;9-13;6-6;2-1;4-9,6-6,0.82,23,-5,441.550309065,1
GEMS235,2018_Oct_31_1111,George,AG,1.4,2,GEMS210,10,6,1,SimpleHill,0-0,1,41,6-6,9-13;7-12;0-4;6-12;9-8;9-15,9-8,0.36,32,9,445.986378473,1
GEMS235,2018_Oct_31_1111,George,AG,1.4,2,GEMS210,10,6,1,SimpleHill,0-0,1,42,9-8,13-6;8-5;10-0;11-0;4-1;8-3,11-0,1.07,20,-12,451.136475509,1
GEMS235,2018_Oct_31_1111,George,AG,1.4,2,GEMS210,10,6,1,SimpleHill,0-0,1,43,11-0,14-9;14-2;11-4;2-3;4-7;18-4,11-4,1.01,28,8,456.221815314,1
GEMS235,2018_Oct_31_1111,George,AG,1.4,2,GEMS210,10,6,1,SimpleHill,0-0,1,44,11-4,11-8;12-13;13-11;7-9;6-12;2-1,7-9,0.32,30,2,460.61178439,1
GEMS235,2018_Oct_31_1111,George,AG,1.4,2,GEMS210,10,6,1,SimpleHill,0-0,1,45,7-9,15-4;2-15;12-3;11-17;5-6;12-4,5-6,0.27,21,-9,464.927429637,1
GEMS235,2018_Oct_31_1111,George,AG,1.4,2,GEMS210,10,6,1,SimpleHill,0-0,1,46,5-6,11-8;6-5;1-1;10-0;9-2;7-0,7-0,0.42,14,-7,469.399229986,1
GEMS235,2018_Oct_31_1111,George,AG,1.4,2,GEMS210,10,6,1,SimpleHill,0-0,1,47,7-0,3-7;8-1;7-5;15-0;2-6;12-7,7-5,0.55,23,9,474.006191545,1
GEMS235,2018_Oct_31_1111,George,AG,1.4,2,GEMS210,10,6,1,SimpleHill,0-0,1,48,7-5,11-0;6-8;9-13;2-13;8-7;1-7,6-8,1.0,27,4,479.080276265,1
GEMS235,2018_Oct_31_1111,George,AG,1.4,2,GEMS210,10,6,1,SimpleHill,0-0,1,49,6-8,7-2;0-2;4-3;0-6;5-8;2-15,4-3,6.06,14,-13,489.217164053,1
GEMS235,2018_Oct_31_1111,George,AG,1.4,2,GEMS210,10,6,1,SimpleHill,0-0,1,50,4-3,0-10;0-4;9-5;5-10;9-1;2-7,5-10,0.75,28,14,494.052816828,1
GEMS235,2018_Oct_31_1111,George,AG,1.4,2,GEMS210,10,6,1,SimpleHill,0-0,1,51,5-10,13-12;7-11;8-4;10-13;5-7;6-6,10-13,0.45,41,13,498.583503596,1
GEMS235,2018_Oct_31_1111,George,AG,1.4,2,GEMS210,10,6,1,SimpleHill,0-0,1,52,10-13,16-15;19-11;5-10;6-12;12-16;19-16,6-12,0.33,33,-8,502.977926116,1
GEMS235,2018_Oct_31_1111,George,AG,1.4,2,GEMS210,10,6,1,SimpleHill,0-0,1,53,6-12,2-17;1-10;13-9;2-3;0-12;7-9,2-3,0.45,10,-23,507.570413422,1
GEMS235,2018_Oct_31_1111,George,AG,1.4,2,GEMS210,10,6,1,SimpleHill,0-0,1,54,2-3,1-0;2-2;6-12;4-9;4-4;4-8,4-4,0.55,16,6,512.202253194,1
GEMS235,2018_Oct_31_1111,George,AG,1.4,2,GEMS210,10,6,1,SimpleHill,0-0,1,55,4-4,2-2;6-8;1-5;13-1;7-4;11-11,7-4,0.51,21,5,516.782355809,1
GEMS235,2018_Oct_31_1111,George,AG,1.4,2,GEMS210,10,6,1,SimpleHill,0-0,1,56,7-4,14-6;3-4;14-2;11-10;9-10;14-5,3-4,1.24,14,-7,522.086407953,1
GEMS235,2018_Oct_31_1111,George,AG,1.4,2,GEMS210,10,6,1,SimpleHill,0-0,1,57,3-4,10-6;4-13;8-1;6-3;6-5;7-2,4-13,0.31,31,17,526.490475814,1
GEMS235,2018_Oct_31_1111,George,AG,1.4,2,GEMS210,10,6,1,SimpleHill,0-0,1,58,4-13,4-8;8-8;13-14;3-13;3-20;4-4,8-8,0.33,30,-1,530.891305301,1
GEMS235,2018_Oct_31_1111,George,AG,1.4,2,GEMS210,10,6,1,SimpleHill,0-0,1,59,8-8,3-1;3-16;8-16;4-2;8-0;10-10,8-16,0.93,42,12,535.877559898,1
GEMS235,2018_Oct_31_1111,George,AG,1.4,2,GEMS210,10,6,1,SimpleHill,0-0,1,60,8-16,17-16;2-8;7-12;9-19;6-23;6-8,9-19,0.66,48,6,540.613048114,1
GEMS235,2018_Oct_31_1111,George,AG,1.4,2,GEMS210,10,6,1,SimpleHill,0-0,1,61,9-19,1-15;12-21;8-10;4-16;14-25;4-15,8-10,0.67,33,-15,545.34874279,1
GEMS235,2018_Oct_31_1111,George,AG,1.4,2,GEMS210,10,6,1,SimpleHill,0-0,1,62,8-10,6-3;12-7;6-7;15-14;6-6;12-15,6-6,0.84,23,-10,550.267709826,1
GEMS235,2018_Oct_31_1111,George,AG,1.4,2,GEMS210,10,6,1,SimpleHill,0-0,1,63,6-6,9-9;13-12;0-2;0-12;4-1;8-0,13-12,0.56,44,21,554.896351236,1
GEMS235,2018_Oct_31_1111,George,AG,1.4,2,GEMS210,10,6,1,SimpleHill,0-0,1,64,13-12,9-8;15-16;10-11;16-19;10-13;17-3,15-16,0.82,53,9,559.788837678,1
GEMS235,2018_Oct_31_1111,George,AG,1.4,2,GEMS210,10,6,1,SimpleHill,0-0,1,65,15-16,7-20;18-23;21-22;20-12;21-16;16-11,7-20,0.89,46,-7,564.751610944,1
GEMS235,2018_Oct_31_1111,George,AG,1.4,2,GEMS210,10,6,1,SimpleHill,0-0,1,66,7-20,11-19;12-18;7-19;10-23;14-21;10-26,12-18,0.73,51,5,569.542849314,1
GEMS235,2018_Oct_31_1111,George,AG,1.4,2,GEMS210,10,6,1,SimpleHill,0-0,1,67,12-18,16-13;9-17;7-26;10-10;14-19;11-22,9-17,0.99,45,-6,574.609187161,1
GEMS235,2018_Oct_31_1111,George,AG,1.4,2,GEMS210,10,6,1,SimpleHill,0-0,1,68,9-17,12-10;14-24;15-15;7-26;11-23;11-12,7-26,0.58,52,7,579.25655365,1
GEMS235,2018_Oct_31_1111,George,AG,1.4,2,GEMS210,10,6,1,SimpleHill,0-0,1,69,7-26,12-18;13-25;3-30;12-28;2-23;11-25,3-30,0.36,48,-4,583.696736883,1
GEMS235,2018_Oct_31_1111,George,AG,1.4,2,GEMS210,10,6,1,SimpleHill,0-0,1,70,3-30,8-32;7-38;2-28;8-22;8-24;6-29,7-38,0.81,61,13,588.570805535,1
GEMS235,2018_Oct_31_1111,George,AG,1.4,2,GEMS210,10,6,1,SimpleHill,0-0,1,71,7-38,10-36;13-35;8-45;12-45;7-29;4-37,8-45,1.72,65,4,594.370325652,1
GEMS235,2018_Oct_31_1111,George,AG,1.4,2,GEMS210,10,6,1,SimpleHill,0-0,1,72,8-45,3-49;7-45;10-39;13-47;16-47;1-52,10-39,0.6,66,1,599.031117132,1
GEMS235,2018_Oct_31_1111,George,AG,1.4,2,GEMS210,10,6,1,SimpleHill,0-0,1,73,10-39,5-31;6-40;14-30;13-30;12-46;14-43,13-30,0.52,65,-1,603.62194924,1
GEMS235,2018_Oct_31_1111,George,AG,1.4,2,GEMS210,10,6,1,SimpleHill,0-0,1,74,13-30,12-26;11-29;19-22;12-27;9-35;17-22,12-27,2.14,61,-4,609.84742641,1
GEMS235,2018_Oct_31_1111,George,AG,1.4,2,GEMS210,10,6,1,SimpleHill,0-0,1,75,12-27,18-23;15-20;7-33;4-25;11-21;11-34,11-21,1.49,53,-8,615.412612084,1
GEMS235,2018_Oct_31_1111,George,AG,1.4,2,GEMS210,10,6,1,SimpleHill,0-0,1,76,11-21,17-17;6-24;9-12;14-23;20-20;9-28,9-12,6.41,38,-15,625.895240836,1
GEMS235,2018_Oct_31_1111,George,AG,1.4,2,GEMS210,10,6,1,SimpleHill,0-0,1,77,9-12,0-11;8-8;4-13;1-7;8-10;1-13,4-13,0.6,31,-7,630.651482876,1
GEMS235,2018_Oct_31_1111,George,AG,1.4,2,GEMS210,10,6,1,SimpleHill,0-0,1,78,4-13,1-12;9-13;13-17;3-6;10-9;12-7,3-6,0.63,18,-13,635.345787377,1
GEMS235,2018_Oct_31_1111,George,AG,1.4,2,GEMS210,10,6,1,SimpleHill,0-0,1,79,3-6,5-13;3-1;9-11;3-3;4-11;4-6,3-3,0.88,12,-6,640.309766752,1
GEMS235,2018_Oct_31_1111,George,AG,1.4,2,GEMS210,10,6,2,SimpleHill,0-0,1,0,0-0,6-2;8-3;7-5;0-6;5-5;4-8,4-8,2.04,23,22,760.267731272,1
GEMS235,2018_Oct_31_1111,George,AG,1.4,2,GEMS210,10,6,2,SimpleHill,0-0,1,1,4-8,9-3;3-8;10-12;0-0;0-1;5-11,3-8,2.4,21,-2,766.750690039,1
GEMS235,2018_Oct_31_1111,George,AG,1.4,2,GEMS210,10,6,2,SimpleHill,0-0,1,2,3-8,5-2;9-13;1-5;6-11;10-1;9-11,9-11,1.21,36,15,772.025911151,1
GEMS235,2018_Oct_31_1111,George,AG,1.4,2,GEMS210,10,6,2,SimpleHill,0-0,1,3,9-11,12-3;16-14;11-14;0-15;13-12;5-14,11-14,1.45,44,8,777.557875727,1
GEMS235,2018_Oct_31_1111,George,AG,1.4,2,GEMS210,10,6,2,SimpleHill,0-0,1,4,11-14,6-6;5-15;6-9;13-20;4-10;14-16,14-16,1.35,51,7,782.974990549,1
GEMS235,2018_Oct_31_1111,George,AG,1.4,2,GEMS210,10,6,2,SimpleHill,0-0,1,5,14-16,13-23;16-7;5-20;14-13;19-8;10-11,13-23,2.27,59,8,789.321571115,1
GEMS235,2018_Oct_31_1111,George,AG,1.4,2,GEMS210,10,6,2,SimpleHill,0-0,1,6,13-23,9-25;11-22;5-19;6-18;18-21;20-19,18-21,1.42,63,4,794.813415644,1
GEMS235,2018_Oct_31_1111,George,AG,1.4,2,GEMS210,10,6,2,SimpleHill,0-0,1,7,18-21,20-20;27-24;21-19;18-16;24-13;10-27,21-19,1.0,64,1,799.890471141,1
GEMS235,2018_Oct_31_1111,George,AG,1.4,2,GEMS210,10,6,2,SimpleHill,0-0,1,8,21-19,25-21;18-28;26-21;24-19;15-18;28-16,18-28,1.22,70,6,805.184393324,1
GEMS235,2018_Oct_31_1111,George,AG,1.4,2,GEMS210,10,6,2,SimpleHill,0-0,1,9,18-28,24-20;21-33;15-25;16-29;9-27;21-29,9-27,0.8,56,-14,810.038952031,1
GEMS235,2018_Oct_31_1111,George,AG,1.4,2,GEMS210,10,6,2,SimpleHill,0-0,1,10,9-27,12-26;5-33;3-32;1-23;12-33;16-22,1-23,0.68,38,-18,814.787427351,1
GEMS235,2018_Oct_31_1111,George,AG,1.4,2,GEMS210,10,6,2,SimpleHill,0-0,1,11,1-23,0-18;2-29;6-28;2-23;0-20;1-28,6-28,2.65,52,14,821.485068815,1
GEMS235,2018_Oct_31_1111,George,AG,1.4,2,GEMS210,10,6,2,SimpleHill,0-0,1,12,6-28,6-30;0-23;10-21;8-20;7-19;2-28,7-19,7.81,44,-8,833.375044133,1
GEMS235,2018_Oct_31_1111,George,AG,1.4,2,GEMS210,10,6,2,SimpleHill,0-0,1,13,7-19,16-20;1-13;3-23;11-22;5-16;9-25,9-25,2.24,54,10,839.686191763,1
GEMS235,2018_Oct_31_1111,George,AG,1.4,2,GEMS210,10,6,2,SimpleHill,0-0,1,14,9-25,16-23;12-24;3-24;4-18;2-29;1-30,12-24,1.67,58,4,845.416090527,1
GEMS235,2018_Oct_31_1111,George,AG,1.4,2,GEMS210,10,6,2,SimpleHill,0-0,1,15,12-24,14-22;14-27;14-18;15-31;20-21;19-27,14-18,0.84,54,-4,850.331688592,1
GEMS235,2018_Oct_31_1111,George,AG,1.4,2,GEMS210,10,6,2,SimpleHill,0-0,1,16,14-18,13-14;22-22;19-12;15-26;6-15;10-19,22-22,2.18,69,15,856.576110744,1
GEMS235,2018_Oct_31_1111,George,AG,1.4,2,GEMS210,10,6,2,SimpleHill,0-0,1,17,22-22,21-29;14-28;14-24;27-27;17-16;27-14,14-24,0.95,61,-8,861.589139461,1
GEMS235,2018_Oct_31_1111,George,AG,1.4,2,GEMS210,10,6,2,SimpleHill,0-0,1,18,14-24,14-25;6-22;14-24;8-16;20-24;10-29,14-25,1.22,62,1,866.888531701,1
GEMS235,2018_Oct_31_1111,George,AG,1.4,2,GEMS210,10,6,2,SimpleHill,0-0,1,19,14-25,20-18;6-22;12-23;19-32;16-32;5-23,16-32,1.07,71,9,872.019160084,1
GEMS235,2018_Oct_31_1111,George,AG,1.4,2,GEMS210,10,6,2,SimpleHill,0-0,1,20,16-32,18-33;11-30;21-28;17-34;13-25;14-27,21-28,1.22,74,3,877.326845276,1
GEMS235,2018_Oct_31_1111,George,AG,1.4,2,GEMS210,10,6,2,SimpleHill,0-0,1,21,21-28,20-28;15-35;21-38;25-36;27-30;21-18,27-30,1.54,82,8,882.934472307,1
GEMS235,2018_Oct_31_1111,George,AG,1.4,2,GEMS210,10,6,2,SimpleHill,0-0,1,22,27-30,27-26;32-29;22-27;25-28;25-34;22-33,25-34,3.85,83,1,890.861956359,1
GEMS235,2018_Oct_31_1111,George,AG,1.4,2,GEMS210,10,6,2,SimpleHill,0-0,1,23,25-34,20-33;29-43;18-35;22-27;21-41;17-35,29-43,1.31,91,8,896.244481049,1
GEMS235,2018_Oct_31_1111,George,AG,1.4,2,GEMS210,10,6,2,SimpleHill,0-0,1,24,29-43,32-51;24-35;25-49;30-42;32-39;24-42,25-49,0.68,88,-3,900.996788194,1
GEMS235,2018_Oct_31_1111,George,AG,1.4,2,GEMS210,10,6,2,SimpleHill,0-0,1,25,25-49,33-44;24-49;22-48;30-46;35-49;29-47,35-49,1.4,96,8,906.476331256,1
GEMS235,2018_Oct_31_1111,George,AG,1.4,2,GEMS210,10,6,2,SimpleHill,0-0,1,26,35-49,25-49;33-54;31-45;31-51;40-54;28-54,40-54,1.11,98,2,911.652321517,1
GEMS235,2018_Oct_31_1111,George,AG,1.4,2,GEMS210,10,6,2,SimpleHill,0-0,1,27,40-54,44-59;39-48;47-51;34-46;35-57;48-52,35-57,1.1,95,-3,916.834636802,1
GEMS235,2018_Oct_31_1111,George,AG,1.4,2,GEMS210,10,6,2,SimpleHill,0-0,1,28,35-57,26-53;41-65;29-53;42-53;38-54;41-61,42-53,0.67,99,4,921.54952804,1
GEMS235,2018_Oct_31_1111,George,AG,1.4,2,GEMS210,10,6,2,SimpleHill,0-0,1,29,42-53,37-45;50-48;47-45;46-48;45-44;44-44,46-48,0.77,100,1,926.392011585,1
GEMS235,2018_Oct_31_1111,George,AG,1.4,2,GEMS210,10,6,2,SimpleHill,0-0,1,30,46-48,48-43;41-51;47-56;39-50;48-55;46-50,47-56,0.99,100,0,931.453922875,1
GEMS235,2018_Oct_31_1111,George,AG,1.4,2,GEMS210,10,6,2,SimpleHill,0-0,1,31,47-56,43-61;50-55;40-53;44-60;56-54;41-54,41-54,0.74,99,-1,936.259250107,1
GEMS235,2018_Oct_31_1111,George,AG,1.4,2,GEMS210,10,6,2,SimpleHill,0-0,1,32,41-54,36-60;37-56;36-47;35-52;40-62;39-47,37-56,0.93,96,-3,941.247353557,1
GEMS235,2018_Oct_31_1111,George,AG,1.4,2,GEMS210,10,6,2,SimpleHill,0-0,1,33,37-56,32-59;34-48;46-59;34-63;37-53;39-60,37-53,1.05,97,1,946.373243934,1
GEMS235,2018_Oct_31_1111,George,AG,1.4,2,GEMS210,10,6,2,SimpleHill,0-0,1,34,37-53,40-47;40-48;29-55;39-54;45-52;36-58,39-54,0.9,98,1,951.349167872,1
GEMS235,2018_Oct_31_1111,George,AG,1.4,2,GEMS210,10,6,2,SimpleHill,0-0,1,35,39-54,39-64;42-62;39-46;43-57;30-57;48-57,43-57,0.47,99,1,955.890285487,1
GEMS235,2018_Oct_31_1111,George,AG,1.4,2,GEMS210,10,6,2,SimpleHill,0-0,1,36,43-57,43-56;47-65;41-51;48-49;46-55;52-58,41-51,0.7,99,0,960.651871788,1
GEMS235,2018_Oct_31_1111,George,AG,1.4,2,GEMS210,10,6,2,SimpleHill,0-0,1,37,41-51,45-43;49-49;41-54;47-55;33-47;41-60,47-55,0.67,100,1,965.389700839,1
GEMS235,2018_Oct_31_1111,George,AG,1.4,2,GEMS210,10,6,2,SimpleHill,0-0,1,38,47-55,40-54;42-62;56-51;43-59;44-47;51-46,43-59,0.49,98,-2,969.960290631,1
GEMS235,2018_Oct_31_1111,George,AG,1.4,2,GEMS210,10,6,2,SimpleHill,0-0,1,39,43-59,48-59;49-62;39-59;46-58;51-59;42-53,51-59,0.35,99,1,974.397587913,1
GEMS235,2018_Oct_31_1111,George,AG,1.4,2,GEMS210,10,6,2,SimpleHill,0-0,1,40,51-59,58-61;52-50;44-60;49-53;54-63;48-55,48-55,0.65,100,1,979.129304481,1
GEMS235,2018_Oct_31_1111,George,AG,1.4,2,GEMS210,10,6,2,SimpleHill,0-0,1,41,48-55,43-53;47-61;42-48;39-54;49-62;52-63,49-62,0.65,98,-2,983.873502728,1
GEMS235,2018_Oct_31_1111,George,AG,1.4,2,GEMS210,10,6,2,SimpleHill,0-0,1,42,49-62,43-70;46-57;54-70;58-59;57-60;42-67,54-70,0.63,92,-6,988.575371331,1
GEMS235,2018_Oct_31_1111,George,AG,1.4,2,GEMS210,10,6,2,SimpleHill,0-0,1,43,54-70,52-70;61-70;47-66;57-63;59-62;62-69,61-70,0.96,90,-2,993.609714353,1
GEMS235,2018_Oct_31_1111,George,AG,1.4,2,GEMS210,10,6,2,SimpleHill,0-0,1,44,61-70,65-68;63-62;56-70;56-68;64-62;53-70,64-62,1.0,94,4,998.681633008,1
GEMS235,2018_Oct_31_1111,George,AG,1.4,2,GEMS210,10,6,2,SimpleHill,0-0,1,45,64-62,65-55;55-59;66-67;58-63;56-58;63-54,58-63,0.78,96,2,1003.53827872,1
GEMS235,2018_Oct_31_1111,George,AG,1.4,2,GEMS210,10,6,2,SimpleHill,0-0,1,46,58-63,54-65;66-63;67-63;62-59;58-68;57-55,62-59,0.66,96,0,1008.27825527,1
GEMS235,2018_Oct_31_1111,George,AG,1.4,2,GEMS210,10,6,2,SimpleHill,0-0,1,47,62-59,67-52;65-55;64-66;56-63;60-54;63-61,56-63,0.87,96,0,1013.23311585,1
GEMS235,2018_Oct_31_1111,George,AG,1.4,2,GEMS210,10,6,2,SimpleHill,0-0,1,48,56-63,53-59;54-62;53-57;54-65;50-58;57-68,54-65,6.0,96,0,1023.30740863,1
GEMS235,2018_Oct_31_1111,George,AG,1.4,2,GEMS210,10,6,2,SimpleHill,0-0,1,49,54-65,53-70;57-58;47-62;52-69;57-70;58-70,52-69,0.52,93,-3,1027.90836238,1
GEMS235,2018_Oct_31_1111,George,AG,1.4,2,GEMS210,10,6,2,SimpleHill,0-0,1,50,52-69,46-66;47-69;55-62;43-70;45-69;51-65,55-62,0.97,97,4,1032.95411605,1
GEMS235,2018_Oct_31_1111,George,AG,1.4,2,GEMS210,10,6,2,SimpleHill,0-0,1,51,55-62,46-66;51-61;63-60;59-69;52-58;55-64,63-60,0.55,95,-2,1037.59679511,1
GEMS235,2018_Oct_31_1111,George,AG,1.4,2,GEMS210,10,6,2,SimpleHill,0-0,1,52,63-60,67-55;64-69;62-55;66-61;54-60;65-65,62-55,0.58,97,2,1042.24549222,1
GEMS235,2018_Oct_31_1111,George,AG,1.4,2,GEMS210,10,6,2,SimpleHill,0-0,1,53,62-55,69-58;57-55;65-56;60-47;70-51;61-60,65-56,1.04,95,-2,1047.3662624,1
GEMS235,2018_Oct_31_1111,George,AG,1.4,2,GEMS210,10,6,2,SimpleHill,0-0,1,54,65-56,58-54;64-65;69-62;60-53;67-55;67-54,60-53,0.85,98,3,1052.2725541,1
GEMS235,2018_Oct_31_1111,George,AG,1.4,2,GEMS210,10,6,2,SimpleHill,0-0,1,55,60-53,55-54;61-56;68-48;58-56;61-58;54-47,58-56,3.85,99,1,1060.20453417,1
GEMS235,2018_Oct_31_1111,George,AG,1.4,2,GEMS210,10,6,2,SimpleHill,0-0,1,56,58-56,50-52;54-49;56-53;60-62;58-53;51-60,51-60,3.27,98,-1,1067.54707101,1
GEMS235,2018_Oct_31_1111,George,AG,1.4,2,GEMS210,10,6,2,SimpleHill,0-0,1,57,51-60,58-67;45-64;46-53;54-56;45-68;57-53,54-56,1.41,99,1,1073.00749592,1
GEMS235,2018_Oct_31_1111,George,AG,1.4,2,GEMS210,10,6,2,SimpleHill,0-0,1,58,54-56,50-57;50-61;60-52;62-52;60-62;51-60,50-57,4.39,100,1,1081.4641399,1
GEMS235,2018_Oct_31_1111,George,AG,1.4,2,GEMS210,10,6,2,SimpleHill,0-0,1,59,50-57,56-52;52-66;50-52;59-60;50-60;55-61,50-60,1.29,99,-1,1086.83684288,1
GEMS235,2018_Oct_31_1111,George,AG,1.4,2,GEMS210,10,6,2,SimpleHill,0-0,1,60,50-60,52-53;46-53;49-63;44-68;51-53;43-67,44-68,0.65,93,-6,1091.53574359,1
GEMS235,2018_Oct_31_1111,George,AG,1.4,2,GEMS210,10,6,2,SimpleHill,0-0,1,61,44-68,52-69;40-64;52-63;36-64;40-69;36-63,36-64,0.62,93,0,1096.22358158,1
GEMS235,2018_Oct_31_1111,George,AG,1.4,2,GEMS210,10,6,2,SimpleHill,0-0,1,62,36-64,41-56;32-65;41-58;28-70;33-66;38-56,28-70,2.88,83,-10,1103.16718964,1
GEMS235,2018_Oct_31_1111,George,AG,1.4,2,GEMS210,10,6,2,SimpleHill,0-0,1,63,28-70,32-69;29-70;23-65;30-61;34-62;23-62,30-61,0.49,90,7,1107.73284713,1
GEMS235,2018_Oct_31_1111,George,AG,1.4,2,GEMS210,10,6,2,SimpleHill,0-0,1,64,30-61,36-66;28-58;30-59;26-52;37-61;30-69,30-59,0.5,91,1,1112.29347565,1
GEMS235,2018_Oct_31_1111,George,AG,1.4,2,GEMS210,10,6,2,SimpleHill,0-0,1,65,30-59,22-57;23-59;31-59;23-60;34-50;37-54,31-59,0.62,92,1,1116.96576581,1
GEMS235,2018_Oct_31_1111,George,AG,1.4,2,GEMS210,10,6,2,SimpleHill,0-0,1,66,31-59,28-68;29-55;39-53;35-60;40-59;25-62,39-53,0.53,98,6,1121.58085963,1
GEMS235,2018_Oct_31_1111,George,AG,1.4,2,GEMS210,10,6,2,SimpleHill,0-0,1,67,39-53,41-56;42-53;48-53;42-55;32-46;46-56,42-55,1.31,99,1,1126.95018468,1
GEMS235,2018_Oct_31_1111,George,AG,1.4,2,GEMS210,10,6,2,SimpleHill,0-0,1,68,42-55,50-61;48-60;35-48;35-49;41-61;41-46,35-49,0.58,96,-3,1131.60447028,1
GEMS235,2018_Oct_31_1111,George,AG,1.4,2,GEMS210,10,6,2,SimpleHill,0-0,1,69,35-49,36-46;41-41;33-47;34-48;39-47;34-55,34-48,0.42,95,-1,1136.09267312,1
GEMS235,2018_Oct_31_1111,George,AG,1.4,2,GEMS210,10,6,2,SimpleHill,0-0,1,70,34-48,37-45;36-46;34-44;26-54;36-41;38-40,34-44,0.45,95,0,1140.59837572,1
GEMS235,2018_Oct_31_1111,George,AG,1.4,2,GEMS210,10,6,2,SimpleHill,0-0,1,71,34-44,30-48;30-36;37-50;34-52;26-50;30-49,37-50,0.56,97,2,1145.23573581,1
GEMS235,2018_Oct_31_1111,George,AG,1.4,2,GEMS210,10,6,2,SimpleHill,0-0,1,72,37-50,29-49;29-56;46-52;34-52;32-54;35-51,46-52,1.3,100,3,1150.59196107,1
GEMS235,2018_Oct_31_1111,George,AG,1.4,2,GEMS210,10,6,2,SimpleHill,0-0,1,73,46-52,49-51;43-54;41-45;55-53;43-46;46-58,43-46,0.8,99,-1,1155.44892623,1
GEMS235,2018_Oct_31_1111,George,AG,1.4,2,GEMS210,10,6,2,SimpleHill,0-0,1,74,43-46,52-47;48-49;40-41;43-48;45-41;39-50,43-48,0.93,99,0,1160.4263386,1
GEMS235,2018_Oct_31_1111,George,AG,1.4,2,GEMS210,10,6,2,SimpleHill,0-0,1,75,43-48,36-52;49-49;41-43;42-55;40-44;43-41,42-55,0.52,99,0,1165.02680741,1
GEMS235,2018_Oct_31_1111,George,AG,1.4,2,GEMS210,10,6,2,SimpleHill,0-0,1,76,42-55,49-54;48-57;39-63;39-55;44-54;40-48,40-48,0.75,98,-1,1169.84542103,1
GEMS235,2018_Oct_31_1111,George,AG,1.4,2,GEMS210,10,6,2,SimpleHill,0-0,1,77,40-48,37-57;39-51;36-57;47-44;32-48;43-44,36-57,0.54,96,-2,1174.46278431,1
GEMS235,2018_Oct_31_1111,George,AG,1.4,2,GEMS210,10,6,2,SimpleHill,0-0,1,78,36-57,28-52;35-65;35-66;27-60;28-62;35-63,35-65,0.87,92,-4,1179.40298115,1
GEMS235,2018_Oct_31_1111,George,AG,1.4,2,GEMS210,10,6,2,SimpleHill,0-0,1,79,35-65,39-63;34-57;41-68;35-56;34-66;34-62,35-56,0.78,95,3,1184.25892073,1
