subj_id,date,computer,experimenter,instructions,sight_radius,n_gabors,landscape_ix,landscape_name,starting_pos,starting_score,trial,feedback,pos,stims,selected,rt,score,delta,exp_time
GEMS120,2018_Mar_06_1551,Elaine,GH,spatial_frequency,8,6,0,SpatialFrequencyBias,0-0,0,0,training,0-0,1-4;7-2;6-0;2-7;5-3;0-5,7-2,2.93,7,7,133.0279239
GEMS120,2018_Mar_06_1551,Elaine,GH,spatial_frequency,8,6,0,SpatialFrequencyBias,0-0,0,1,training,7-2,4-7;10-7;14-0;4-2;7-1;3-2,4-7,4.79,26,19,151.112500312
GEMS120,2018_Mar_06_1551,Elaine,GH,spatial_frequency,8,6,0,SpatialFrequencyBias,0-0,0,2,training,4-7,0-3;8-11;6-5;5-3;2-7;10-10,8-11,4.55,39,13,170.133194605
GEMS120,2018_Mar_06_1551,Elaine,GH,spatial_frequency,8,6,0,SpatialFrequencyBias,0-0,0,3,training,8-11,9-12;7-10;10-18;12-11;8-17;6-11,12-11,2.53,39,0,176.522884685
GEMS120,2018_Mar_06_1551,Elaine,GH,spatial_frequency,8,6,0,SpatialFrequencyBias,0-0,0,4,training,12-11,15-9;7-10;13-6;12-9;8-17;9-13,8-17,6.52,56,17,188.061330662
GEMS120,2018_Mar_06_1551,Elaine,GH,spatial_frequency,8,6,0,SpatialFrequencyBias,0-0,0,5,training,8-17,13-23;8-21;7-14;15-19;7-12;12-21,8-21,15.38,66,10,206.417997131
GEMS120,2018_Mar_06_1551,Elaine,GH,spatial_frequency,8,6,0,SpatialFrequencyBias,0-0,0,6,training,8-21,8-23;5-15;3-20;14-21;13-25;3-16,8-23,2.27,70,4,218.859871233
GEMS120,2018_Mar_06_1551,Elaine,GH,spatial_frequency,8,6,0,SpatialFrequencyBias,0-0,0,7,training,8-23,10-21;10-25;11-22;8-30;12-25;12-27,8-30,1.06,84,14,223.671205897
GEMS120,2018_Mar_06_1551,Elaine,GH,spatial_frequency,8,6,0,SpatialFrequencyBias,0-0,0,8,training,8-30,9-29;8-29;14-35;0-30;15-28;12-28,9-29,1.4,82,-2,228.162207139
GEMS120,2018_Mar_06_1551,Elaine,GH,spatial_frequency,8,6,0,SpatialFrequencyBias,0-0,0,9,training,9-29,4-28;4-29;9-24;2-26;3-32;2-30,2-26,0.81,76,-6,232.253126182
GEMS120,2018_Mar_06_1551,Elaine,GH,spatial_frequency,8,6,0,SpatialFrequencyBias,0-0,0,10,training,2-26,6-26;5-27;2-18;8-22;0-27;2-29,6-26,0.92,76,0,235.855211648
GEMS120,2018_Mar_06_1551,Elaine,GH,spatial_frequency,8,6,0,SpatialFrequencyBias,0-0,0,11,training,6-26,10-23;3-23;6-27;5-30;7-24;5-21,6-27,3.27,78,2,243.338840843
GEMS120,2018_Mar_06_1551,Elaine,GH,spatial_frequency,8,6,0,SpatialFrequencyBias,0-0,0,12,training,6-27,10-23;2-27;1-24;3-30;2-25;14-27,3-30,2.99,84,6,248.847176369
GEMS120,2018_Mar_06_1551,Elaine,GH,spatial_frequency,8,6,0,SpatialFrequencyBias,0-0,0,13,training,3-30,3-22;0-30;3-28;1-29;5-32;1-26,5-32,3.93,87,3,255.398996446
GEMS120,2018_Mar_06_1551,Elaine,GH,spatial_frequency,8,6,0,SpatialFrequencyBias,0-0,0,14,training,5-32,5-40;6-26;6-25;9-28;2-26;4-28,9-28,4.48,80,-7,262.842908897
GEMS120,2018_Mar_06_1551,Elaine,GH,spatial_frequency,8,6,0,SpatialFrequencyBias,0-0,0,15,training,9-28,13-32;13-22;14-33;7-26;7-22;8-23,13-32,3.47,87,7,270.002956053
GEMS120,2018_Mar_06_1551,Elaine,GH,spatial_frequency,8,6,0,SpatialFrequencyBias,0-0,0,16,training,13-32,13-31;14-36;20-30;8-37;9-37;15-29,9-37,17.93,93,6,291.018146038
GEMS120,2018_Mar_06_1551,Elaine,GH,spatial_frequency,8,6,0,SpatialFrequencyBias,0-0,0,17,training,9-37,16-39;3-37;14-42;15-38;6-34;4-32,15-38,2.91,94,1,297.042069423
GEMS120,2018_Mar_06_1551,Elaine,GH,spatial_frequency,8,6,0,SpatialFrequencyBias,0-0,0,18,training,15-38,11-36;14-35;10-35;13-32;20-42;17-31,17-31,1.98,85,-9,301.407315007
GEMS120,2018_Mar_06_1551,Elaine,GH,spatial_frequency,8,6,0,SpatialFrequencyBias,0-0,0,19,training,17-31,17-30;16-35;16-27;18-31;21-31;11-26,16-35,2.84,91,6,306.668418532
GEMS120,2018_Mar_06_1551,Elaine,GH,spatial_frequency,8,6,0,SpatialFrequencyBias,0-0,0,20,training,16-35,21-40;11-34;12-41;17-34;19-32;8-35,12-41,4.29,96,5,314.008327204
GEMS120,2018_Mar_06_1551,Elaine,GH,spatial_frequency,8,6,0,SpatialFrequencyBias,0-0,0,21,training,12-41,9-39;9-41;6-43;9-45;10-36;11-45,9-39,0.46,95,-1,317.730049762
GEMS120,2018_Mar_06_1551,Elaine,GH,spatial_frequency,8,6,0,SpatialFrequencyBias,0-0,0,22,training,9-39,10-36;6-42;4-39;7-35;11-36;15-36,6-42,2.89,97,2,324.152910376
GEMS120,2018_Mar_06_1551,Elaine,GH,spatial_frequency,8,6,0,SpatialFrequencyBias,0-0,0,23,training,6-42,10-39;6-50;12-38;9-43;9-44;9-46,9-46,1.85,99,2,329.167073184
GEMS120,2018_Mar_06_1551,Elaine,GH,spatial_frequency,8,6,0,SpatialFrequencyBias,0-0,0,24,training,9-46,2-46;14-45;8-51;4-40;13-43;8-40,8-51,6.17,99,0,339.250158606
GEMS120,2018_Mar_06_1551,Elaine,GH,spatial_frequency,8,6,0,SpatialFrequencyBias,0-0,0,25,training,8-51,3-48;7-58;4-56;6-48;2-50;8-47,7-58,4.79,97,-2,347.007053236
GEMS120,2018_Mar_06_1551,Elaine,GH,spatial_frequency,8,6,0,SpatialFrequencyBias,0-0,0,26,training,7-58,8-52;5-62;8-58;13-61;11-59;7-61,13-61,0.71,95,-2,350.612673482
GEMS120,2018_Mar_06_1551,Elaine,GH,spatial_frequency,8,6,0,SpatialFrequencyBias,0-0,0,27,training,13-61,8-67;16-68;11-57;13-65;12-64;17-63,11-57,5.77,98,3,359.29822528
GEMS120,2018_Mar_06_1551,Elaine,GH,spatial_frequency,8,6,0,SpatialFrequencyBias,0-0,0,28,training,11-57,10-58;5-52;5-56;17-59;12-59;10-64,10-64,12.39,92,-6,373.899139848
GEMS120,2018_Mar_06_1551,Elaine,GH,spatial_frequency,8,6,0,SpatialFrequencyBias,0-0,0,29,training,10-64,15-66;13-63;13-60;16-59;16-60;17-63,17-63,3.22,93,1,380.298650362
GEMS120,2018_Mar_06_1551,Elaine,GH,spatial_frequency,8,6,1,SimpleHill,0-0,0,0,selected,0-0,0-8;6-4;4-4;2-2;7-0;0-7,0-8,7.78,14,14,419.476385184
GEMS120,2018_Mar_06_1551,Elaine,GH,spatial_frequency,8,6,1,SimpleHill,0-0,0,1,selected,0-8,6-4;5-14;3-9;2-4;2-9;3-5,5-14,5.28,33,19,428.338299887
GEMS120,2018_Mar_06_1551,Elaine,GH,spatial_frequency,8,6,1,SimpleHill,0-0,0,2,selected,5-14,12-13;1-17;11-17;7-20;5-11;0-19,7-20,13.27,45,12,445.164539973
GEMS120,2018_Mar_06_1551,Elaine,GH,spatial_frequency,8,6,1,SimpleHill,0-0,0,3,selected,7-20,10-18;13-22;9-13;14-21;14-23;9-18,14-23,8.55,59,14,457.307080316
GEMS120,2018_Mar_06_1551,Elaine,GH,spatial_frequency,8,6,1,SimpleHill,0-0,0,4,selected,14-23,13-20;12-20;13-26;19-27;7-26;15-24,13-26,18.59,61,2,479.44370183
GEMS120,2018_Mar_06_1551,Elaine,GH,spatial_frequency,8,6,1,SimpleHill,0-0,0,5,selected,13-26,15-22;18-26;16-21;19-25;9-25;17-32,17-32,2.52,71,10,485.547626227
GEMS120,2018_Mar_06_1551,Elaine,GH,spatial_frequency,8,6,1,SimpleHill,0-0,0,6,selected,17-32,14-39;16-29;20-36;14-31;17-24;13-32,20-36,3.77,78,7,492.891125694
GEMS120,2018_Mar_06_1551,Elaine,GH,spatial_frequency,8,6,1,SimpleHill,0-0,0,7,selected,20-36,25-31;23-41;22-30;14-38;14-39;21-40,23-41,2.64,83,5,499.09132588
GEMS120,2018_Mar_06_1551,Elaine,GH,spatial_frequency,8,6,1,SimpleHill,0-0,0,8,selected,23-41,26-45;23-35;25-39;29-43;29-42;22-37,29-42,8.21,89,6,510.868845023
GEMS120,2018_Mar_06_1551,Elaine,GH,spatial_frequency,8,6,1,SimpleHill,0-0,0,9,selected,29-42,30-43;26-36;28-41;29-43;34-46;25-44,34-46,7.27,94,5,521.719577299
GEMS120,2018_Mar_06_1551,Elaine,GH,spatial_frequency,8,6,1,SimpleHill,0-0,0,10,selected,34-46,31-42;38-47;37-48;34-40;36-45;34-51,37-48,5.33,96,2,530.61204418
GEMS120,2018_Mar_06_1551,Elaine,GH,spatial_frequency,8,6,1,SimpleHill,0-0,0,11,selected,37-48,39-45;36-49;37-42;39-42;30-51;34-53,34-53,2.29,94,-2,536.489559546
GEMS120,2018_Mar_06_1551,Elaine,GH,spatial_frequency,8,6,1,SimpleHill,0-0,0,12,selected,34-53,36-59;35-58;28-53;28-57;35-50;37-49,28-57,2.64,89,-5,542.714675084
GEMS120,2018_Mar_06_1551,Elaine,GH,spatial_frequency,8,6,1,SimpleHill,0-0,0,13,selected,28-57,35-55;21-60;28-52;27-50;26-55;22-62,21-60,3.95,81,-8,550.218101353
GEMS120,2018_Mar_06_1551,Elaine,GH,spatial_frequency,8,6,1,SimpleHill,0-0,0,14,selected,21-60,20-53;20-56;17-64;18-63;22-61;18-53,20-56,6.41,81,0,560.220054877
GEMS120,2018_Mar_06_1551,Elaine,GH,spatial_frequency,8,6,1,SimpleHill,0-0,0,15,selected,20-56,25-52;15-54;17-52;25-50;15-60;18-52,15-60,3.36,73,-8,567.150805769
GEMS120,2018_Mar_06_1551,Elaine,GH,spatial_frequency,8,6,1,SimpleHill,0-0,0,16,selected,15-60,22-60;13-65;18-56;20-63;15-64;19-54,20-63,1.42,78,5,572.14665257
GEMS120,2018_Mar_06_1551,Elaine,GH,spatial_frequency,8,6,1,SimpleHill,0-0,0,17,selected,20-63,26-67;25-57;20-57;22-61;17-57;12-63,26-67,7.85,82,4,583.556858332
GEMS120,2018_Mar_06_1551,Elaine,GH,spatial_frequency,8,6,1,SimpleHill,0-0,0,18,selected,26-67,21-70;25-67;27-63;26-66;28-60;33-66,21-70,2.79,75,-7,589.922714972
GEMS120,2018_Mar_06_1551,Elaine,GH,spatial_frequency,8,6,1,SimpleHill,0-0,0,19,selected,21-70,14-70;24-66;24-64;25-64;22-66;26-70,25-64,2.96,83,8,596.475198281
GEMS120,2018_Mar_06_1551,Elaine,GH,spatial_frequency,8,6,1,SimpleHill,0-0,0,20,selected,25-64,23-58;29-66;29-65;26-64;22-59;19-63,29-65,1.56,86,3,601.612073309
GEMS120,2018_Mar_06_1551,Elaine,GH,spatial_frequency,8,6,1,SimpleHill,0-0,0,21,selected,29-65,26-59;25-61;31-62;32-65;34-66;31-63,32-65,2.17,89,3,607.355796777
GEMS120,2018_Mar_06_1551,Elaine,GH,spatial_frequency,8,6,1,SimpleHill,0-0,0,22,selected,32-65,38-67;36-64;29-64;38-70;28-68;29-61,36-64,6.03,92,3,616.963268438
GEMS120,2018_Mar_06_1551,Elaine,GH,spatial_frequency,8,6,1,SimpleHill,0-0,0,23,selected,36-64,37-57;41-66;33-60;37-70;35-65;31-63,31-63,6.04,89,-3,626.594291536
GEMS120,2018_Mar_06_1551,Elaine,GH,spatial_frequency,8,6,1,SimpleHill,0-0,0,24,selected,31-63,34-58;25-62;26-59;27-57;30-66;27-64,30-66,1.0,86,-3,631.180232182
GEMS120,2018_Mar_06_1551,Elaine,GH,spatial_frequency,8,6,1,SimpleHill,0-0,0,25,selected,30-66,36-70;29-59;32-65;26-70;31-67;28-63,36-70,0.65,88,2,635.412216262
GEMS120,2018_Mar_06_1551,Elaine,GH,spatial_frequency,8,6,1,SimpleHill,0-0,0,26,selected,36-70,36-62;32-65;39-66;34-64;32-64;38-69,39-66,4.38,92,4,643.355498131
GEMS120,2018_Mar_06_1551,Elaine,GH,spatial_frequency,8,6,1,SimpleHill,0-0,0,27,selected,39-66,43-62;33-63;34-70;42-60;36-67;38-67,43-62,2.65,96,4,649.585833735
GEMS120,2018_Mar_06_1551,Elaine,GH,spatial_frequency,8,6,1,SimpleHill,0-0,0,28,selected,43-62,39-60;38-67;39-63;44-67;43-57;47-68,47-68,4.67,93,-3,657.84773301
GEMS120,2018_Mar_06_1551,Elaine,GH,spatial_frequency,8,6,1,SimpleHill,0-0,0,29,selected,47-68,42-69;45-61;45-63;52-70;51-63;41-63,51-63,3.94,96,3,665.345420022
GEMS120,2018_Mar_06_1551,Elaine,GH,spatial_frequency,8,6,1,SimpleHill,0-0,0,30,selected,51-63,53-58;48-66;56-58;45-65;49-60;52-61,52-61,5.99,97,1,674.900378285
GEMS120,2018_Mar_06_1551,Elaine,GH,spatial_frequency,8,6,1,SimpleHill,0-0,0,31,selected,52-61,59-60;51-62;52-59;53-60;56-62;55-60,52-59,5.8,98,1,684.27605344
GEMS120,2018_Mar_06_1551,Elaine,GH,spatial_frequency,8,6,1,SimpleHill,0-0,0,32,selected,52-59,59-58;51-61;55-65;55-62;51-58;50-65,50-65,4.48,95,-3,692.343975445
GEMS120,2018_Mar_06_1551,Elaine,GH,spatial_frequency,8,6,1,SimpleHill,0-0,0,33,selected,50-65,50-67;56-63;48-60;48-68;48-61;51-69,51-69,3.02,92,-3,698.96306902
GEMS120,2018_Mar_06_1551,Elaine,GH,spatial_frequency,8,6,1,SimpleHill,0-0,0,34,selected,51-69,50-70;48-64;51-63;45-65;49-63;55-67,49-63,1.21,96,4,703.754134473
GEMS120,2018_Mar_06_1551,Elaine,GH,spatial_frequency,8,6,1,SimpleHill,0-0,0,35,selected,49-63,50-65;56-66;56-65;50-70;50-58;47-60,56-66,0.26,94,-2,707.584337943
GEMS120,2018_Mar_06_1551,Elaine,GH,spatial_frequency,8,6,1,SimpleHill,0-0,0,36,selected,56-66,52-61;49-64;64-66;54-66;55-66;60-65,52-61,0.6,97,3,711.757438467
GEMS120,2018_Mar_06_1551,Elaine,GH,spatial_frequency,8,6,1,SimpleHill,0-0,0,37,selected,52-61,45-60;58-63;57-63;50-59;51-62;51-58,57-63,1.48,95,-2,716.816231117
GEMS120,2018_Mar_06_1551,Elaine,GH,spatial_frequency,8,6,1,SimpleHill,0-0,0,38,selected,57-63,59-61;61-65;62-61;62-60;55-61;60-65,55-61,0.41,97,2,720.791190289
GEMS120,2018_Mar_06_1551,Elaine,GH,spatial_frequency,8,6,1,SimpleHill,0-0,0,39,selected,55-61,50-56;51-67;48-60;57-58;48-59;60-61,50-56,0.72,99,2,725.143297681
GEMS120,2018_Mar_06_1551,Elaine,GH,spatial_frequency,8,6,2,SimpleHill,0-0,0,0,selected,0-0,5-3;0-1;6-2;5-4;0-0;0-8,5-3,0.87,15,15,747.901428188
GEMS120,2018_Mar_06_1551,Elaine,GH,spatial_frequency,8,6,2,SimpleHill,0-0,0,1,selected,5-3,1-0;3-5;10-9;4-2;3-9;12-6,3-9,1.72,22,7,753.186750224
GEMS120,2018_Mar_06_1551,Elaine,GH,spatial_frequency,8,6,2,SimpleHill,0-0,0,2,selected,3-9,1-11;0-8;5-6;0-5;4-16;0-12,4-16,1.89,34,12,758.657926864
GEMS120,2018_Mar_06_1551,Elaine,GH,spatial_frequency,8,6,2,SimpleHill,0-0,0,3,selected,4-16,9-19;3-15;1-16;2-14;2-16;8-14,1-16,2.1,28,-6,764.300565795
GEMS120,2018_Mar_06_1551,Elaine,GH,spatial_frequency,8,6,2,SimpleHill,0-0,0,4,selected,1-16,6-17;2-16;4-14;0-13;5-10;0-14,6-17,1.72,39,11,769.603626711
GEMS120,2018_Mar_06_1551,Elaine,GH,spatial_frequency,8,6,2,SimpleHill,0-0,0,5,selected,6-17,13-14;0-18;10-23;6-22;13-20;2-14,10-23,13.53,53,14,786.724003536
GEMS120,2018_Mar_06_1551,Elaine,GH,spatial_frequency,8,6,2,SimpleHill,0-0,0,6,selected,10-23,16-26;11-17;7-23;15-28;12-17;13-19,16-26,3.48,65,12,793.767927254
GEMS120,2018_Mar_06_1551,Elaine,GH,spatial_frequency,8,6,2,SimpleHill,0-0,0,7,selected,16-26,11-26;13-31;14-25;16-21;20-25;18-19,13-31,3.26,65,0,800.595795971
GEMS120,2018_Mar_06_1551,Elaine,GH,spatial_frequency,8,6,2,SimpleHill,0-0,0,8,selected,13-31,17-31;11-31;16-38;14-35;11-30;18-34,16-38,1.74,74,9,805.921935868
GEMS120,2018_Mar_06_1551,Elaine,GH,spatial_frequency,8,6,2,SimpleHill,0-0,0,9,selected,16-38,18-31;23-39;14-41;24-38;12-36;12-39,23-39,2.05,83,9,811.567936409
GEMS120,2018_Mar_06_1551,Elaine,GH,spatial_frequency,8,6,2,SimpleHill,0-0,0,10,selected,23-39,20-35;21-32;23-45;16-38;26-41;26-35,16-38,0.36,74,-9,815.512722392
GEMS120,2018_Mar_06_1551,Elaine,GH,spatial_frequency,8,6,2,SimpleHill,0-0,0,11,selected,16-38,16-42;13-41;19-31;14-34;11-32;20-34,20-34,0.35,76,2,819.450601742
GEMS120,2018_Mar_06_1551,Elaine,GH,spatial_frequency,8,6,2,SimpleHill,0-0,0,12,selected,20-34,23-39;18-39;18-28;16-30;14-37;23-34,18-39,0.49,77,1,823.507493043
GEMS120,2018_Mar_06_1551,Elaine,GH,spatial_frequency,8,6,2,SimpleHill,0-0,0,13,selected,18-39,19-40;19-33;15-35;17-43;20-33;20-43,20-33,0.81,76,-1,827.895462306
GEMS120,2018_Mar_06_1551,Elaine,GH,spatial_frequency,8,6,2,SimpleHill,0-0,0,14,selected,20-33,15-29;26-31;25-36;22-29;20-27;26-34,22-29,0.8,75,-1,832.26846597
GEMS120,2018_Mar_06_1551,Elaine,GH,spatial_frequency,8,6,2,SimpleHill,0-0,0,15,selected,22-29,21-28;26-31;22-34;20-31;26-35;21-24,21-28,0.19,73,-2,836.038859536
GEMS120,2018_Mar_06_1551,Elaine,GH,spatial_frequency,8,6,2,SimpleHill,0-0,0,16,selected,21-28,26-23;19-27;16-34;22-24;18-29;17-27,16-34,1.12,71,-2,840.727616419
GEMS120,2018_Mar_06_1551,Elaine,GH,spatial_frequency,8,6,2,SimpleHill,0-0,0,17,selected,16-34,14-30;16-36;15-39;11-33;21-33;11-37,16-36,0.99,72,1,845.294265737
GEMS120,2018_Mar_06_1551,Elaine,GH,spatial_frequency,8,6,2,SimpleHill,0-0,0,18,selected,16-36,18-29;18-40;20-37;12-30;12-33;9-33,9-33,0.62,60,-12,849.497428698
GEMS120,2018_Mar_06_1551,Elaine,GH,spatial_frequency,8,6,2,SimpleHill,0-0,0,19,selected,9-33,13-38;11-35;8-39;6-34;10-35;9-27,11-35,1.83,65,5,854.902081497
GEMS120,2018_Mar_06_1551,Elaine,GH,spatial_frequency,8,6,2,SimpleHill,0-0,0,20,selected,11-35,10-34;6-37;12-28;15-41;10-37;13-33,10-37,1.87,64,-1,860.349524887
GEMS120,2018_Mar_06_1551,Elaine,GH,spatial_frequency,8,6,2,SimpleHill,0-0,0,21,selected,10-37,8-38;9-35;14-36;6-40;16-33;5-34,8-38,0.62,61,-3,864.544077042
GEMS120,2018_Mar_06_1551,Elaine,GH,spatial_frequency,8,6,2,SimpleHill,0-0,0,22,selected,8-38,3-34;3-35;5-33;9-45;9-37;1-41,9-45,0.65,65,4,868.776143706
GEMS120,2018_Mar_06_1551,Elaine,GH,spatial_frequency,8,6,2,SimpleHill,0-0,0,23,selected,9-45,9-48;6-50;10-48;15-41;9-50;16-48,6-50,0.56,61,-4,872.899824205
GEMS120,2018_Mar_06_1551,Elaine,GH,spatial_frequency,8,6,2,SimpleHill,0-0,0,24,selected,6-50,1-54;2-54;9-44;5-57;8-56;2-56,2-56,0.5,53,-8,876.981259551
GEMS120,2018_Mar_06_1551,Elaine,GH,spatial_frequency,8,6,2,SimpleHill,0-0,0,25,selected,2-56,4-58;5-50;3-59;7-55;3-54;7-62,4-58,0.5,56,3,881.057800684
GEMS120,2018_Mar_06_1551,Elaine,GH,spatial_frequency,8,6,2,SimpleHill,0-0,0,26,selected,4-58,5-56;11-58;4-50;2-62;0-52;0-57,2-62,0.68,51,-5,885.321833374
GEMS120,2018_Mar_06_1551,Elaine,GH,spatial_frequency,8,6,2,SimpleHill,0-0,0,27,selected,2-62,8-65;3-65;2-69;1-64;9-64;6-57,3-65,3.52,51,0,892.41962384
GEMS120,2018_Mar_06_1551,Elaine,GH,spatial_frequency,8,6,2,SimpleHill,0-0,0,28,selected,3-65,4-58;3-57;3-58;4-65;2-60;1-67,1-67,2.32,46,-5,898.311177498
GEMS120,2018_Mar_06_1551,Elaine,GH,spatial_frequency,8,6,2,SimpleHill,0-0,0,29,selected,1-67,2-65;0-69;2-66;1-59;5-61;8-65,1-59,1.54,50,4,903.443177839
GEMS120,2018_Mar_06_1551,Elaine,GH,spatial_frequency,8,6,2,SimpleHill,0-0,0,30,selected,1-59,5-60;5-54;1-63;1-60;3-60;9-59,5-54,0.45,59,9,907.480820064
GEMS120,2018_Mar_06_1551,Elaine,GH,spatial_frequency,8,6,2,SimpleHill,0-0,0,31,selected,5-54,6-52;1-60;7-54;11-52;9-48;8-54,7-54,2.25,62,3,913.301110593
GEMS120,2018_Mar_06_1551,Elaine,GH,spatial_frequency,8,6,2,SimpleHill,0-0,0,32,selected,7-54,3-59;6-47;2-49;1-58;8-47;7-52,6-47,1.73,61,-1,918.605247339
GEMS120,2018_Mar_06_1551,Elaine,GH,spatial_frequency,8,6,2,SimpleHill,0-0,0,33,selected,6-47,8-45;3-49;4-44;5-49;3-44;1-51,8-45,1.87,64,3,924.071279454
GEMS120,2018_Mar_06_1551,Elaine,GH,spatial_frequency,8,6,2,SimpleHill,0-0,0,34,selected,8-45,3-46;16-45;9-39;7-50;6-40;13-46,3-46,2.12,55,-9,929.753712912
GEMS120,2018_Mar_06_1551,Elaine,GH,spatial_frequency,8,6,2,SimpleHill,0-0,0,35,selected,3-46,2-48;6-53;9-43;10-48;9-46;0-49,9-46,1.14,66,11,934.544638164
GEMS120,2018_Mar_06_1551,Elaine,GH,spatial_frequency,8,6,2,SimpleHill,0-0,0,36,selected,9-46,6-48;4-46;16-43;5-51;13-42;11-44,11-44,2.8,68,2,940.928782004
GEMS120,2018_Mar_06_1551,Elaine,GH,spatial_frequency,8,6,2,SimpleHill,0-0,0,37,selected,11-44,16-44;11-48;15-46;12-41;11-44;17-43,16-44,5.0,76,8,949.501253162
GEMS120,2018_Mar_06_1551,Elaine,GH,spatial_frequency,8,6,2,SimpleHill,0-0,0,38,selected,16-44,17-43;17-39;16-44;19-39;12-48;22-39,16-44,4.76,76,0,957.82576795
GEMS120,2018_Mar_06_1551,Elaine,GH,spatial_frequency,8,6,2,SimpleHill,0-0,0,39,selected,16-44,19-41;14-51;17-48;17-41;17-43;17-47,17-47,3.11,78,2,964.505808076
GEMS120,2018_Mar_06_1551,Elaine,GH,spatial_frequency,8,6,3,SimpleHill,0-0,0,0,selected,0-0,2-2;1-4;0-5;2-5;3-1;5-3,2-2,0.76,7,7,974.781472284
GEMS120,2018_Mar_06_1551,Elaine,GH,spatial_frequency,8,6,3,SimpleHill,0-0,0,1,selected,2-2,1-1;3-7;6-6;2-7;7-1;4-5,1-1,0.28,3,-4,978.646530935
GEMS120,2018_Mar_06_1551,Elaine,GH,spatial_frequency,8,6,3,SimpleHill,0-0,0,2,selected,1-1,8-2;1-0;7-0;7-3;1-1;6-7,1-1,0.36,3,0,982.578343253
GEMS120,2018_Mar_06_1551,Elaine,GH,spatial_frequency,8,6,3,SimpleHill,0-0,0,3,selected,1-1,0-3;0-0;2-8;4-5;8-3;2-1,2-8,1.25,18,15,987.394982808
GEMS120,2018_Mar_06_1551,Elaine,GH,spatial_frequency,8,6,3,SimpleHill,0-0,0,4,selected,2-8,2-1;0-2;1-4;4-15;7-9;4-6,4-15,2.84,33,15,993.814841276
GEMS120,2018_Mar_06_1551,Elaine,GH,spatial_frequency,8,6,3,SimpleHill,0-0,0,5,selected,4-15,8-20;10-13;4-21;7-18;2-13;7-11,7-18,2.76,42,9,1000.16068862
GEMS120,2018_Mar_06_1551,Elaine,GH,spatial_frequency,8,6,3,SimpleHill,0-0,0,6,selected,7-18,8-21;8-23;2-20;3-12;12-12;8-12,8-21,6.62,47,5,1010.36483523
GEMS120,2018_Mar_06_1551,Elaine,GH,spatial_frequency,8,6,3,SimpleHill,0-0,0,7,selected,8-21,14-18;12-26;11-25;5-26;16-21;11-24,5-26,2.06,47,0,1016.00714702
GEMS120,2018_Mar_06_1551,Elaine,GH,spatial_frequency,8,6,3,SimpleHill,0-0,0,8,selected,5-26,3-25;5-27;6-30;13-26;6-22;5-28,5-28,5.89,49,2,1025.48161645
GEMS120,2018_Mar_06_1551,Elaine,GH,spatial_frequency,8,6,3,SimpleHill,0-0,0,9,selected,5-28,6-30;0-25;11-28;5-22;6-23;1-27,6-30,1.39,53,4,1030.45102266
GEMS120,2018_Mar_06_1551,Elaine,GH,spatial_frequency,8,6,3,SimpleHill,0-0,0,10,selected,6-30,4-28;10-24;2-28;5-27;6-35;6-24,6-35,4.2,56,3,1038.21859013
GEMS120,2018_Mar_06_1551,Elaine,GH,spatial_frequency,8,6,3,SimpleHill,0-0,0,11,selected,6-35,9-33;2-33;5-30;1-30;5-40;6-38,9-33,4.17,60,4,1045.97086327
GEMS120,2018_Mar_06_1551,Elaine,GH,spatial_frequency,8,6,3,SimpleHill,0-0,0,12,selected,9-33,16-32;4-34;12-37;16-36;7-40;12-33,16-32,1.92,70,10,1051.46399505
GEMS120,2018_Mar_06_1551,Elaine,GH,spatial_frequency,8,6,3,SimpleHill,0-0,0,13,selected,16-32,21-26;10-34;15-31;17-25;10-32;22-34,15-31,5.5,68,-2,1060.55443427
GEMS120,2018_Mar_06_1551,Elaine,GH,spatial_frequency,8,6,3,SimpleHill,0-0,0,14,selected,15-31,15-37;10-31;22-34;13-31;21-31;14-31,10-31,3.07,60,-8,1067.22594138
GEMS120,2018_Mar_06_1551,Elaine,GH,spatial_frequency,8,6,3,SimpleHill,0-0,0,15,selected,10-31,11-31;15-30;7-29;12-26;4-32;15-35,4-32,1.02,51,-9,1071.82632811
GEMS120,2018_Mar_06_1551,Elaine,GH,spatial_frequency,8,6,3,SimpleHill,0-0,0,16,selected,4-32,2-27;7-26;6-29;9-29;5-36;6-37,2-27,0.86,43,-8,1076.25793717
GEMS120,2018_Mar_06_1551,Elaine,GH,spatial_frequency,8,6,3,SimpleHill,0-0,0,17,selected,2-27,8-31;7-22;8-30;2-19;3-25;2-22,2-19,0.31,34,-9,1080.13125324
GEMS120,2018_Mar_06_1551,Elaine,GH,spatial_frequency,8,6,3,SimpleHill,0-0,0,18,selected,2-19,5-18;8-16;4-17;7-25;8-15;7-24,7-24,0.67,49,15,1084.34885077
GEMS120,2018_Mar_06_1551,Elaine,GH,spatial_frequency,8,6,3,SimpleHill,0-0,0,19,selected,7-24,12-27;8-18;13-28;10-25;10-28;4-22,10-28,1.9,58,9,1089.82590175
GEMS120,2018_Mar_06_1551,Elaine,GH,spatial_frequency,8,6,3,SimpleHill,0-0,0,20,selected,10-28,6-31;8-34;10-21;4-27;9-31;14-29,9-31,2.45,59,1,1095.84254751
GEMS120,2018_Mar_06_1551,Elaine,GH,spatial_frequency,8,6,3,SimpleHill,0-0,0,21,selected,9-31,16-28;12-37;7-35;14-35;14-29;14-33,12-37,1.58,67,8,1101.01200635
GEMS120,2018_Mar_06_1551,Elaine,GH,spatial_frequency,8,6,3,SimpleHill,0-0,0,22,selected,12-37,7-38;7-32;14-31;19-34;14-34;16-35,16-35,2.47,72,5,1107.07041296
GEMS120,2018_Mar_06_1551,Elaine,GH,spatial_frequency,8,6,3,SimpleHill,0-0,0,23,selected,16-35,18-31;16-42;18-39;18-33;14-38;13-41,16-42,3.13,75,3,1113.75772815
GEMS120,2018_Mar_06_1551,Elaine,GH,spatial_frequency,8,6,3,SimpleHill,0-0,0,24,selected,16-42,19-35;19-42;17-44;20-39;14-36;18-39,19-42,3.73,79,4,1121.0668545
GEMS120,2018_Mar_06_1551,Elaine,GH,spatial_frequency,8,6,3,SimpleHill,0-0,0,25,selected,19-42,16-43;22-40;12-39;19-35;25-46;21-48,25-46,1.85,87,8,1126.47372009
GEMS120,2018_Mar_06_1551,Elaine,GH,spatial_frequency,8,6,3,SimpleHill,0-0,0,26,selected,25-46,31-42;28-44;29-49;22-51;21-42;25-45,29-49,4.32,91,4,1134.37536819
GEMS120,2018_Mar_06_1551,Elaine,GH,spatial_frequency,8,6,3,SimpleHill,0-0,0,27,selected,29-49,32-42;29-45;36-52;29-49;24-46;36-49,32-42,2.16,92,1,1140.08960634
GEMS120,2018_Mar_06_1551,Elaine,GH,spatial_frequency,8,6,3,SimpleHill,0-0,0,28,selected,32-42,29-45;36-41;28-47;37-40;27-45;38-40,27-45,4.94,88,-4,1148.5949442
GEMS120,2018_Mar_06_1551,Elaine,GH,spatial_frequency,8,6,3,SimpleHill,0-0,0,29,selected,27-45,33-48;25-41;24-48;26-49;24-46;30-51,33-48,0.81,94,6,1152.96922952
GEMS120,2018_Mar_06_1551,Elaine,GH,spatial_frequency,8,6,3,SimpleHill,0-0,0,30,selected,33-48,34-44;31-46;28-45;32-52;33-48;27-52,34-44,1.13,94,0,1157.68980615
GEMS120,2018_Mar_06_1551,Elaine,GH,spatial_frequency,8,6,3,SimpleHill,0-0,0,31,selected,34-44,34-38;40-42;34-50;38-43;34-47;30-50,40-42,2.22,96,2,1163.47378507
GEMS120,2018_Mar_06_1551,Elaine,GH,spatial_frequency,8,6,3,SimpleHill,0-0,0,32,selected,40-42,47-40;38-44;40-44;38-49;40-42;35-36,40-42,0.53,96,0,1167.57086173
GEMS120,2018_Mar_06_1551,Elaine,GH,spatial_frequency,8,6,3,SimpleHill,0-0,0,33,selected,40-42,46-46;43-41;45-43;45-38;33-40;35-41,46-46,0.29,99,3,1171.49252392
GEMS120,2018_Mar_06_1551,Elaine,GH,spatial_frequency,8,6,3,SimpleHill,0-0,0,34,selected,46-46,41-43;40-51;41-47;47-39;45-47;50-46,47-39,0.55,97,-2,1175.62536611
GEMS120,2018_Mar_06_1551,Elaine,GH,spatial_frequency,8,6,3,SimpleHill,0-0,0,35,selected,47-39,54-39;47-36;41-40;49-34;45-38;47-35,47-35,0.25,95,-2,1179.45714955
GEMS120,2018_Mar_06_1551,Elaine,GH,spatial_frequency,8,6,3,SimpleHill,0-0,0,36,selected,47-35,45-39;41-33;49-33;43-35;42-29;52-29,41-33,0.21,92,-3,1183.33230936
GEMS120,2018_Mar_06_1551,Elaine,GH,spatial_frequency,8,6,3,SimpleHill,0-0,0,37,selected,41-33,48-31;39-26;48-35;43-28;44-30;41-25,43-28,0.86,89,-3,1187.7422472
GEMS120,2018_Mar_06_1551,Elaine,GH,spatial_frequency,8,6,3,SimpleHill,0-0,0,38,selected,43-28,38-32;41-31;44-32;38-29;44-31;40-35,44-32,0.3,92,3,1191.61311105
GEMS120,2018_Mar_06_1551,Elaine,GH,spatial_frequency,8,6,3,SimpleHill,0-0,0,39,selected,44-32,44-28;39-33;43-36;38-30;46-33;43-37,43-37,0.42,95,3,1195.58363246
GEMS120,2018_Mar_06_1551,Elaine,GH,spatial_frequency,8,6,4,SimpleHill,0-0,0,0,selected,0-0,3-0;6-1;0-0;3-5;7-0;1-6,3-5,1.24,15,15,1206.12539427
GEMS120,2018_Mar_06_1551,Elaine,GH,spatial_frequency,8,6,4,SimpleHill,0-0,0,1,selected,3-5,9-10;2-7;7-8;9-4;3-9;6-6,9-10,0.54,34,19,1210.25296069
GEMS120,2018_Mar_06_1551,Elaine,GH,spatial_frequency,8,6,4,SimpleHill,0-0,0,2,selected,9-10,12-12;3-8;16-13;11-7;9-7;6-8,6-8,2.14,26,-8,1215.97631188
GEMS120,2018_Mar_06_1551,Elaine,GH,spatial_frequency,8,6,4,SimpleHill,0-0,0,3,selected,6-8,8-4;11-6;9-2;11-11;7-8;4-5,11-11,1.17,39,13,1220.72700376
GEMS120,2018_Mar_06_1551,Elaine,GH,spatial_frequency,8,6,4,SimpleHill,0-0,0,4,selected,11-11,7-7;14-7;6-15;15-7;9-4;12-9,6-15,3.18,36,-3,1227.48502608
GEMS120,2018_Mar_06_1551,Elaine,GH,spatial_frequency,8,6,4,SimpleHill,0-0,0,5,selected,6-15,2-13;4-10;7-9;2-16;13-17;9-17,2-13,0.37,26,-10,1231.44152264
GEMS120,2018_Mar_06_1551,Elaine,GH,spatial_frequency,8,6,4,SimpleHill,0-0,0,6,selected,2-13,4-16;1-6;1-18;4-20;3-17;0-12,0-12,0.27,21,-5,1235.46669215
GEMS120,2018_Mar_06_1551,Elaine,GH,spatial_frequency,8,6,4,SimpleHill,0-0,0,7,selected,0-12,0-14;3-14;3-13;4-16;0-10;2-7,3-14,0.26,29,8,1239.30538959
GEMS120,2018_Mar_06_1551,Elaine,GH,spatial_frequency,8,6,4,SimpleHill,0-0,0,8,selected,3-14,2-18;1-7;4-17;9-12;4-7;2-15,9-12,0.22,37,8,1243.11506777
GEMS120,2018_Mar_06_1551,Elaine,GH,spatial_frequency,8,6,4,SimpleHill,0-0,0,9,selected,9-12,9-7;9-5;15-11;12-18;6-19;11-16,15-11,0.28,45,8,1246.95650745
GEMS120,2018_Mar_06_1551,Elaine,GH,spatial_frequency,8,6,4,SimpleHill,0-0,0,10,selected,15-11,16-8;17-7;16-12;18-5;8-11;14-8,16-8,0.22,41,-4,1250.7377928
GEMS120,2018_Mar_06_1551,Elaine,GH,spatial_frequency,8,6,4,SimpleHill,0-0,0,11,selected,16-8,18-9;12-2;11-3;15-12;18-1;12-9,18-1,0.2,31,-10,1254.50107903
GEMS120,2018_Mar_06_1551,Elaine,GH,spatial_frequency,8,6,4,SimpleHill,0-0,0,12,selected,18-1,25-3;15-6;18-8;22-6;21-5;13-6,13-6,0.17,33,2,1258.25578327
GEMS120,2018_Mar_06_1551,Elaine,GH,spatial_frequency,8,6,4,SimpleHill,0-0,0,13,selected,13-6,16-9;18-11;9-11;15-6;10-2;11-9,15-6,0.23,36,3,1262.08236457
GEMS120,2018_Mar_06_1551,Elaine,GH,spatial_frequency,8,6,4,SimpleHill,0-0,0,14,selected,15-6,11-10;10-11;20-9;22-9;12-6;15-14,10-11,0.23,37,1,1265.88204851
GEMS120,2018_Mar_06_1551,Elaine,GH,spatial_frequency,8,6,4,SimpleHill,0-0,0,15,selected,10-11,17-12;9-13;10-4;15-16;10-3;4-11,10-3,0.29,23,-14,1269.74062433
GEMS120,2018_Mar_06_1551,Elaine,GH,spatial_frequency,8,6,4,SimpleHill,0-0,0,16,selected,10-3,17-1;5-2;15-0;16-5;6-4;10-4,15-0,0.37,25,2,1273.68697429
GEMS120,2018_Mar_06_1551,Elaine,GH,spatial_frequency,8,6,4,SimpleHill,0-0,0,17,selected,15-0,19-1;16-7;18-7;14-6;21-5;16-2,19-1,0.26,32,7,1277.52830129
GEMS120,2018_Mar_06_1551,Elaine,GH,spatial_frequency,8,6,4,SimpleHill,0-0,0,18,selected,19-1,18-6;19-6;20-6;22-4;21-6;20-3,22-4,0.3,42,10,1281.4099324
GEMS120,2018_Mar_06_1551,Elaine,GH,spatial_frequency,8,6,4,SimpleHill,0-0,0,19,selected,22-4,19-9;28-1;16-6;27-10;20-6;28-3,28-3,0.2,46,4,1285.1912536
GEMS120,2018_Mar_06_1551,Elaine,GH,spatial_frequency,8,6,4,SimpleHill,0-0,0,20,selected,28-3,22-4;24-5;25-0;21-1;29-3;27-6,24-5,2.29,45,-1,1291.0574281
GEMS120,2018_Mar_06_1551,Elaine,GH,spatial_frequency,8,6,4,SimpleHill,0-0,0,21,selected,24-5,31-5;30-1;23-9;30-5;18-1;24-1,30-5,0.25,51,6,1294.88242782
GEMS120,2018_Mar_06_1551,Elaine,GH,spatial_frequency,8,6,4,SimpleHill,0-0,0,22,selected,30-5,24-1;34-11;27-10;26-10;25-3;31-10,25-3,0.34,43,-8,1298.78922172
GEMS120,2018_Mar_06_1551,Elaine,GH,spatial_frequency,8,6,4,SimpleHill,0-0,0,23,selected,25-3,22-1;28-4;21-9;22-7;19-3;31-2,22-1,0.89,36,-7,1303.36138047
GEMS120,2018_Mar_06_1551,Elaine,GH,spatial_frequency,8,6,4,SimpleHill,0-0,0,24,selected,22-1,20-0;19-1;21-5;14-1;28-2;18-4,21-5,0.18,42,6,1307.12951162
GEMS120,2018_Mar_06_1551,Elaine,GH,spatial_frequency,8,6,4,SimpleHill,0-0,0,25,selected,21-5,26-8;19-10;25-8;20-1;16-0;21-5,21-5,0.3,42,0,1310.98151306
GEMS120,2018_Mar_06_1551,Elaine,GH,spatial_frequency,8,6,4,SimpleHill,0-0,0,26,selected,21-5,23-9;22-8;25-1;18-4;14-2;24-5,18-4,0.21,37,-5,1314.76762349
GEMS120,2018_Mar_06_1551,Elaine,GH,spatial_frequency,8,6,4,SimpleHill,0-0,0,27,selected,18-4,17-1;15-5;21-5;12-8;14-5;19-2,14-5,0.14,33,-4,1318.46237154
GEMS120,2018_Mar_06_1551,Elaine,GH,spatial_frequency,8,6,4,SimpleHill,0-0,0,28,selected,14-5,11-4;10-7;20-7;14-11;11-3;18-10,10-7,0.38,31,-2,1322.4028001
GEMS120,2018_Mar_06_1551,Elaine,GH,spatial_frequency,8,6,4,SimpleHill,0-0,0,29,selected,10-7,6-3;12-1;13-8;12-8;6-11;16-11,13-8,1.03,37,6,1327.02169618
GEMS120,2018_Mar_06_1551,Elaine,GH,spatial_frequency,8,6,4,SimpleHill,0-0,0,30,selected,13-8,5-8;9-2;12-9;7-11;9-3;20-5,5-8,1.07,24,-13,1331.67003596
GEMS120,2018_Mar_06_1551,Elaine,GH,spatial_frequency,8,6,4,SimpleHill,0-0,0,31,selected,5-8,4-4;8-15;10-6;8-10;5-2;12-11,8-10,1.0,32,8,1336.24146554
GEMS120,2018_Mar_06_1551,Elaine,GH,spatial_frequency,8,6,4,SimpleHill,0-0,0,32,selected,8-10,11-4;3-16;2-8;5-8;13-8;2-12,2-12,0.44,25,-7,1340.24603261
GEMS120,2018_Mar_06_1551,Elaine,GH,spatial_frequency,8,6,4,SimpleHill,0-0,0,33,selected,2-12,4-6;0-16;6-18;5-6;4-11;1-8,4-11,0.83,27,2,1344.66214664
GEMS120,2018_Mar_06_1551,Elaine,GH,spatial_frequency,8,6,4,SimpleHill,0-0,0,34,selected,4-11,2-5;0-15;8-15;4-7;0-6;1-10,0-15,0.96,25,-2,1349.1924786
GEMS120,2018_Mar_06_1551,Elaine,GH,spatial_frequency,8,6,4,SimpleHill,0-0,0,35,selected,0-15,7-12;6-12;8-15;1-12;1-21;1-20,1-20,0.49,33,8,1353.34600579
GEMS120,2018_Mar_06_1551,Elaine,GH,spatial_frequency,8,6,4,SimpleHill,0-0,0,36,selected,1-20,2-23;5-21;3-22;7-15;2-18;1-12,2-23,0.2,39,6,1357.21791762
GEMS120,2018_Mar_06_1551,Elaine,GH,spatial_frequency,8,6,4,SimpleHill,0-0,0,37,selected,2-23,2-31;7-24;4-19;9-23;1-30;4-24,9-23,0.68,51,12,1361.46842833
GEMS120,2018_Mar_06_1551,Elaine,GH,spatial_frequency,8,6,4,SimpleHill,0-0,0,38,selected,9-23,14-18;8-19;5-27;5-26;11-21;11-20,8-19,2.57,45,-6,1367.6166295
GEMS120,2018_Mar_06_1551,Elaine,GH,spatial_frequency,8,6,4,SimpleHill,0-0,0,39,selected,8-19,5-25;10-24;0-19;3-25;8-17;5-15,3-25,0.58,43,-2,1371.78612163
