subj_id,date,computer,experimenter,instructions,sight_radius,n_gabors,start_pos_list_ix,start_pos_list,landscape_ix,landscape_name,starting_pos,starting_score,trial,feedback,pos,stims,selected,rt,score,delta,exp_time
GEMS119,2018_Mar_06_1540,Kramer,GH,orientation,8,6,0,0-0;0-0;0-0;0-0,0,OrientationBias,0-0,0,0,training,0-0,0-6;6-5;1-6;1-3;6-1;6-3,6-1,13.43,22,22,126.116719919
GEMS119,2018_Mar_06_1540,Kramer,GH,orientation,8,6,0,0-0;0-0;0-0;0-0,0,OrientationBias,0-0,0,1,training,6-1,13-2;7-4;4-4;9-3;5-6;10-5,4-4,6.16,15,-7,146.713052808
GEMS119,2018_Mar_06_1540,Kramer,GH,orientation,8,6,0,0-0;0-0;0-0;0-0,0,OrientationBias,0-0,0,2,training,4-4,10-7;7-5;4-4;7-6;4-12;5-7,10-7,6.17,36,21,166.142234197
GEMS119,2018_Mar_06_1540,Kramer,GH,orientation,8,6,0,0-0;0-0;0-0;0-0,0,OrientationBias,0-0,0,3,training,10-7,12-1;5-8;16-9;7-14;15-9;8-11,12-1,4.95,42,6,177.304760996
GEMS119,2018_Mar_06_1540,Kramer,GH,orientation,8,6,0,0-0;0-0;0-0;0-0,0,OrientationBias,0-0,0,4,training,12-1,9-3;18-2;19-0;16-0;8-4;16-5,9-3,4.65,32,-10,188.457034263
GEMS119,2018_Mar_06_1540,Kramer,GH,orientation,8,6,0,0-0;0-0;0-0;0-0,0,OrientationBias,0-0,0,5,training,9-3,13-1;6-9;8-4;6-2;5-6;7-10,13-1,3.8,45,13,196.489552171
GEMS119,2018_Mar_06_1540,Kramer,GH,orientation,8,6,0,0-0;0-0;0-0;0-0,0,OrientationBias,0-0,0,6,training,13-1,12-7;14-3;13-1;12-5;9-3;19-6,12-5,4.37,42,-3,208.208777969
GEMS119,2018_Mar_06_1540,Kramer,GH,orientation,8,6,0,0-0;0-0;0-0;0-0,0,OrientationBias,0-0,0,7,training,12-5,6-0;11-6;17-5;8-0;14-5;6-9,11-6,4.06,39,-3,218.422399262
GEMS119,2018_Mar_06_1540,Kramer,GH,orientation,8,6,0,0-0;0-0;0-0;0-0,0,OrientationBias,0-0,0,8,training,11-6,17-7;10-4;14-10;8-10;7-11;10-2,17-7,4.12,56,17,228.37306848
GEMS119,2018_Mar_06_1540,Kramer,GH,orientation,8,6,0,0-0;0-0;0-0;0-0,0,OrientationBias,0-0,0,9,training,17-7,15-10;23-6;23-4;22-3;18-8;21-1,23-6,2.43,70,14,237.814228701
GEMS119,2018_Mar_06_1540,Kramer,GH,orientation,8,6,0,0-0;0-0;0-0;0-0,0,OrientationBias,0-0,0,10,training,23-6,29-7;28-10;24-1;23-11;22-1;30-5,29-7,5.51,82,12,246.745465405
GEMS119,2018_Mar_06_1540,Kramer,GH,orientation,8,6,0,0-0;0-0;0-0;0-0,0,OrientationBias,0-0,0,11,training,29-7,28-10;35-8;23-11;35-5;33-10;26-0,35-8,5.05,91,9,257.158243638
GEMS119,2018_Mar_06_1540,Kramer,GH,orientation,8,6,0,0-0;0-0;0-0;0-0,0,OrientationBias,0-0,0,12,training,35-8,29-4;37-4;29-8;35-6;42-9;33-6,29-4,8.57,82,-9,270.766069139
GEMS119,2018_Mar_06_1540,Kramer,GH,orientation,8,6,0,0-0;0-0;0-0;0-0,0,OrientationBias,0-0,0,13,training,29-4,24-2;31-9;23-7;27-7;29-2;28-8,23-7,3.7,70,-12,278.274633542
GEMS119,2018_Mar_06_1540,Kramer,GH,orientation,8,6,0,0-0;0-0;0-0;0-0,0,OrientationBias,0-0,0,14,training,23-7,23-0;28-4;19-12;19-1;17-11;20-8,28-4,13.95,80,10,299.05039157
GEMS119,2018_Mar_06_1540,Kramer,GH,orientation,8,6,0,0-0;0-0;0-0;0-0,0,OrientationBias,0-0,0,15,training,28-4,30-7;29-0;34-5;29-8;29-6;21-7,30-7,7.52,84,4,312.021471505
GEMS119,2018_Mar_06_1540,Kramer,GH,orientation,8,6,0,0-0;0-0;0-0;0-0,0,OrientationBias,0-0,0,16,training,30-7,31-1;33-3;33-10;33-11;34-13;30-10,33-3,6.09,88,4,322.4532274
GEMS119,2018_Mar_06_1540,Kramer,GH,orientation,8,6,0,0-0;0-0;0-0;0-0,0,OrientationBias,0-0,0,17,training,33-3,38-6;30-4;40-4;26-0;32-3;36-6,36-6,8.61,92,4,335.740391614
GEMS119,2018_Mar_06_1540,Kramer,GH,orientation,8,6,0,0-0;0-0;0-0;0-0,0,OrientationBias,0-0,0,18,training,36-6,39-13;40-8;36-14;41-4;37-9;38-11,37-9,6.88,93,1,345.765334526
GEMS119,2018_Mar_06_1540,Kramer,GH,orientation,8,6,0,0-0;0-0;0-0;0-0,0,OrientationBias,0-0,0,19,training,37-9,31-11;33-12;44-8;40-16;44-12;37-6,37-6,3.63,93,0,353.320372562
GEMS119,2018_Mar_06_1540,Kramer,GH,orientation,8,6,0,0-0;0-0;0-0;0-0,0,OrientationBias,0-0,0,20,training,37-6,37-5;43-6;42-11;31-10;37-6;30-8,43-6,1.78,98,5,358.365190676
GEMS119,2018_Mar_06_1540,Kramer,GH,orientation,8,6,0,0-0;0-0;0-0;0-0,0,OrientationBias,0-0,0,21,training,43-6,45-8;44-7;38-11;37-1;40-7;48-11,44-7,3.27,98,0,364.911411757
GEMS119,2018_Mar_06_1540,Kramer,GH,orientation,8,6,0,0-0;0-0;0-0;0-0,0,OrientationBias,0-0,0,22,training,44-7,47-1;51-8;40-9;39-1;50-4;49-9,39-1,2.19,95,-3,372.024129236
GEMS119,2018_Mar_06_1540,Kramer,GH,orientation,8,6,0,0-0;0-0;0-0;0-0,0,OrientationBias,0-0,0,23,training,39-1,45-1;44-5;33-6;45-6;42-6;39-1,45-1,2.06,99,4,378.023016913
GEMS119,2018_Mar_06_1540,Kramer,GH,orientation,8,6,0,0-0;0-0;0-0;0-0,0,OrientationBias,0-0,0,24,training,45-1,46-5;49-5;42-6;44-0;46-1;48-6,48-6,1.68,99,0,383.267309498
GEMS119,2018_Mar_06_1540,Kramer,GH,orientation,8,6,0,0-0;0-0;0-0;0-0,0,OrientationBias,0-0,0,25,training,48-6,47-10;45-0;50-3;48-7;44-10;49-4,47-10,2.32,99,0,388.569669799
GEMS119,2018_Mar_06_1540,Kramer,GH,orientation,8,6,0,0-0;0-0;0-0;0-0,0,OrientationBias,0-0,0,26,training,47-10,52-6;44-4;50-14;52-13;45-12;47-17,52-6,4.08,99,0,396.157267035
GEMS119,2018_Mar_06_1540,Kramer,GH,orientation,8,6,0,0-0;0-0;0-0;0-0,0,OrientationBias,0-0,0,27,training,52-6,52-7;55-10;54-2;55-9;48-0;51-1,52-7,3.85,99,0,403.522320391
GEMS119,2018_Mar_06_1540,Kramer,GH,orientation,8,6,0,0-0;0-0;0-0;0-0,0,OrientationBias,0-0,0,28,training,52-7,55-12;57-12;54-14;48-5;50-10;57-1,50-10,2.2,100,1,412.196043397
GEMS119,2018_Mar_06_1540,Kramer,GH,orientation,8,6,0,0-0;0-0;0-0;0-0,0,OrientationBias,0-0,0,29,training,50-10,53-14;48-11;48-14;54-7;46-9;51-13,54-7,3.7,99,-1,418.671066876
GEMS119,2018_Mar_06_1540,Kramer,GH,orientation,8,6,0,0-0;0-0;0-0;0-0,1,SimpleHill,0-0,0,0,selected,0-0,2-1;7-2;0-1;0-5;5-1;3-5,7-2,5.25,16,16,435.201587404
GEMS119,2018_Mar_06_1540,Kramer,GH,orientation,8,6,0,0-0;0-0;0-0;0-0,1,SimpleHill,0-0,0,1,selected,7-2,1-2;8-9;12-0;5-8;14-0;4-5,14-0,2.45,24,8,441.215717901
GEMS119,2018_Mar_06_1540,Kramer,GH,orientation,8,6,0,0-0;0-0;0-0;0-0,1,SimpleHill,0-0,0,2,selected,14-0,12-4;18-0;19-4;13-0;12-5;8-4,13-0,1.87,22,-2,446.638172219
GEMS119,2018_Mar_06_1540,Kramer,GH,orientation,8,6,0,0-0;0-0;0-0;0-0,1,SimpleHill,0-0,0,3,selected,13-0,10-0;8-5;9-1;18-2;10-7;10-1,8-5,2.13,24,2,452.351878657
GEMS119,2018_Mar_06_1540,Kramer,GH,orientation,8,6,0,0-0;0-0;0-0;0-0,1,SimpleHill,0-0,0,4,selected,8-5,8-11;3-2;12-5;10-3;13-5;3-8,3-8,1.62,20,-4,457.540474774
GEMS119,2018_Mar_06_1540,Kramer,GH,orientation,8,6,0,0-0;0-0;0-0;0-0,1,SimpleHill,0-0,0,5,selected,3-8,9-6;8-3;5-7;5-13;8-9;2-2,8-3,1.08,20,0,462.178674201
GEMS119,2018_Mar_06_1540,Kramer,GH,orientation,8,6,0,0-0;0-0;0-0;0-0,1,SimpleHill,0-0,0,6,selected,8-3,3-2;7-6;6-3;2-1;7-9;13-1,13-1,2.16,24,4,467.909445426
GEMS119,2018_Mar_06_1540,Kramer,GH,orientation,8,6,0,0-0;0-0;0-0;0-0,1,SimpleHill,0-0,0,7,selected,13-1,17-3;12-5;13-8;8-6;16-1;17-0,17-3,1.47,34,10,472.950533819
GEMS119,2018_Mar_06_1540,Kramer,GH,orientation,8,6,0,0-0;0-0;0-0;0-0,1,SimpleHill,0-0,0,8,selected,17-3,14-3;14-8;16-3;14-7;10-4;18-2,14-8,1.88,38,4,478.39390108
GEMS119,2018_Mar_06_1540,Kramer,GH,orientation,8,6,0,0-0;0-0;0-0;0-0,1,SimpleHill,0-0,0,9,selected,14-8,17-9;15-14;19-2;20-7;9-10;15-2,20-7,1.69,45,7,483.634185463
GEMS119,2018_Mar_06_1540,Kramer,GH,orientation,8,6,0,0-0;0-0;0-0;0-0,1,SimpleHill,0-0,0,10,selected,20-7,25-10;23-7;22-10;23-4;17-2;19-4,17-2,1.46,32,-13,488.673617695
GEMS119,2018_Mar_06_1540,Kramer,GH,orientation,8,6,0,0-0;0-0;0-0;0-0,1,SimpleHill,0-0,0,11,selected,17-2,12-6;17-3;12-2;16-8;19-8;16-5,12-6,2.01,32,0,494.248008863
GEMS119,2018_Mar_06_1540,Kramer,GH,orientation,8,6,0,0-0;0-0;0-0;0-0,1,SimpleHill,0-0,0,12,selected,12-6,6-8;9-10;19-4;16-1;15-3;17-10,17-10,4.62,46,14,502.43777588
GEMS119,2018_Mar_06_1540,Kramer,GH,orientation,8,6,0,0-0;0-0;0-0;0-0,1,SimpleHill,0-0,0,13,selected,17-10,18-12;17-15;11-5;14-7;17-4;19-6,14-7,5.11,37,-9,511.119820018
GEMS119,2018_Mar_06_1540,Kramer,GH,orientation,8,6,0,0-0;0-0;0-0;0-0,1,SimpleHill,0-0,0,14,selected,14-7,14-0;14-5;12-8;16-1;11-10;11-3,14-5,0.63,33,-4,515.321357488
GEMS119,2018_Mar_06_1540,Kramer,GH,orientation,8,6,0,0-0;0-0;0-0;0-0,1,SimpleHill,0-0,0,15,selected,14-5,21-5;12-11;7-2;14-2;12-6;13-5,12-6,4.22,32,-1,523.093081386
GEMS119,2018_Mar_06_1540,Kramer,GH,orientation,8,6,0,0-0;0-0;0-0;0-0,1,SimpleHill,0-0,0,16,selected,12-6,13-0;18-11;11-9;16-11;11-7;15-7,15-7,0.95,38,6,527.607526534
GEMS119,2018_Mar_06_1540,Kramer,GH,orientation,8,6,0,0-0;0-0;0-0;0-0,1,SimpleHill,0-0,0,17,selected,15-7,18-4;15-12;21-2;12-3;20-9;15-9,15-12,1.7,46,8,532.886874723
GEMS119,2018_Mar_06_1540,Kramer,GH,orientation,8,6,0,0-0;0-0;0-0;0-0,1,SimpleHill,0-0,0,18,selected,15-12,9-11;16-9;9-9;9-16;8-9;20-14,9-11,2.35,35,-11,538.800726227
GEMS119,2018_Mar_06_1540,Kramer,GH,orientation,8,6,0,0-0;0-0;0-0;0-0,1,SimpleHill,0-0,0,19,selected,9-11,6-6;3-14;3-8;10-16;4-13;13-9,13-9,2.7,39,4,545.056103946
GEMS119,2018_Mar_06_1540,Kramer,GH,orientation,8,6,0,0-0;0-0;0-0;0-0,1,SimpleHill,0-0,0,20,selected,13-9,8-4;11-14;19-10;7-12;16-11;13-12,19-10,5.03,48,9,553.642545647
GEMS119,2018_Mar_06_1540,Kramer,GH,orientation,8,6,0,0-0;0-0;0-0;0-0,1,SimpleHill,0-0,0,21,selected,19-10,18-17;19-7;20-6;16-8;22-7;25-6,19-7,1.73,43,-5,558.945231161
GEMS119,2018_Mar_06_1540,Kramer,GH,orientation,8,6,0,0-0;0-0;0-0;0-0,1,SimpleHill,0-0,0,22,selected,19-7,24-2;25-5;21-0;14-3;17-2;19-3,21-0,6.07,33,-10,568.580521905
GEMS119,2018_Mar_06_1540,Kramer,GH,orientation,8,6,0,0-0;0-0;0-0;0-0,1,SimpleHill,0-0,0,23,selected,21-0,16-1;23-2;15-2;22-2;28-3;13-0,28-3,4.03,46,13,576.155898958
GEMS119,2018_Mar_06_1540,Kramer,GH,orientation,8,6,0,0-0;0-0;0-0;0-0,1,SimpleHill,0-0,0,24,selected,28-3,24-0;28-4;31-0;25-0;28-3;29-6,29-6,5.21,52,6,584.936227591
GEMS119,2018_Mar_06_1540,Kramer,GH,orientation,8,6,0,0-0;0-0;0-0;0-0,1,SimpleHill,0-0,0,25,selected,29-6,32-2;29-12;29-13;35-8;36-5;36-7,32-2,2.81,47,-5,591.31791681
GEMS119,2018_Mar_06_1540,Kramer,GH,orientation,8,6,0,0-0;0-0;0-0;0-0,1,SimpleHill,0-0,0,26,selected,32-2,29-5;26-4;29-0;25-5;25-0;33-9,25-0,1.7,37,-10,596.574392448
GEMS119,2018_Mar_06_1540,Kramer,GH,orientation,8,6,0,0-0;0-0;0-0;0-0,1,SimpleHill,0-0,0,27,selected,25-0,27-7;21-1;28-6;19-3;19-4;32-1,19-4,5.23,38,1,605.381631923
GEMS119,2018_Mar_06_1540,Kramer,GH,orientation,8,6,0,0-0;0-0;0-0;0-0,1,SimpleHill,0-0,0,28,selected,19-4,18-1;18-10;21-1;18-2;18-7;23-4,18-7,4.54,42,4,613.497925158
GEMS119,2018_Mar_06_1540,Kramer,GH,orientation,8,6,0,0-0;0-0;0-0;0-0,1,SimpleHill,0-0,0,29,selected,18-7,22-2;20-10;22-8;19-12;13-7;20-2,22-8,1.24,49,7,618.312894234
GEMS119,2018_Mar_06_1540,Kramer,GH,orientation,8,6,0,0-0;0-0;0-0;0-0,1,SimpleHill,0-0,0,30,selected,22-8,22-2;17-3;22-9;23-3;15-11;29-7,29-7,2.18,54,5,624.057341745
GEMS119,2018_Mar_06_1540,Kramer,GH,orientation,8,6,0,0-0;0-0;0-0;0-0,1,SimpleHill,0-0,0,31,selected,29-7,25-2;35-11;33-11;27-5;24-10;35-12,24-10,5.55,54,0,633.18401655
GEMS119,2018_Mar_06_1540,Kramer,GH,orientation,8,6,0,0-0;0-0;0-0;0-0,1,SimpleHill,0-0,0,32,selected,24-10,19-5;26-15;21-7;24-15;23-11;22-10,21-7,1.65,46,-8,638.392755148
GEMS119,2018_Mar_06_1540,Kramer,GH,orientation,8,6,0,0-0;0-0;0-0;0-0,1,SimpleHill,0-0,0,33,selected,21-7,16-7;23-10;19-12;14-6;24-8;22-2,16-7,0.89,39,-7,642.839541
GEMS119,2018_Mar_06_1540,Kramer,GH,orientation,8,6,0,0-0;0-0;0-0;0-0,1,SimpleHill,0-0,0,34,selected,16-7,18-5;10-8;17-6;10-11;18-11;16-14,16-14,0.45,50,11,646.838050007
GEMS119,2018_Mar_06_1540,Kramer,GH,orientation,8,6,0,0-0;0-0;0-0;0-0,1,SimpleHill,0-0,0,35,selected,16-14,15-21;16-7;13-13;22-19;13-14;13-8,13-14,0.21,46,-4,650.623543978
GEMS119,2018_Mar_06_1540,Kramer,GH,orientation,8,6,0,0-0;0-0;0-0;0-0,1,SimpleHill,0-0,0,36,selected,13-14,13-20;16-18;8-12;6-14;14-17;17-20,14-17,0.19,52,6,654.365344321
GEMS119,2018_Mar_06_1540,Kramer,GH,orientation,8,6,0,0-0;0-0;0-0;0-0,1,SimpleHill,0-0,0,37,selected,14-17,16-23;15-15;12-23;10-18;12-14;8-22,12-23,0.66,56,4,658.60161282
GEMS119,2018_Mar_06_1540,Kramer,GH,orientation,8,6,0,0-0;0-0;0-0;0-0,1,SimpleHill,0-0,0,38,selected,12-23,18-20;15-19;15-20;6-28;16-29;9-28,15-20,0.36,57,1,662.533263404
GEMS119,2018_Mar_06_1540,Kramer,GH,orientation,8,6,0,0-0;0-0;0-0;0-0,1,SimpleHill,0-0,0,39,selected,15-20,9-19;15-26;8-19;10-19;15-13;17-18,10-19,0.58,48,-9,666.688892204
GEMS119,2018_Mar_06_1540,Kramer,GH,orientation,8,6,0,0-0;0-0;0-0;0-0,2,SimpleHill,0-0,0,0,selected,0-0,1-2;0-7;5-1;8-0;3-0;2-2,0-7,10.76,13,13,689.583511252
GEMS119,2018_Mar_06_1540,Kramer,GH,orientation,8,6,0,0-0;0-0;0-0;0-0,2,SimpleHill,0-0,0,1,selected,0-7,6-8;1-3;0-2;6-2;2-13;6-4,2-13,10.47,26,13,703.61737739
GEMS119,2018_Mar_06_1540,Kramer,GH,orientation,8,6,0,0-0;0-0;0-0;0-0,2,SimpleHill,0-0,0,2,selected,2-13,7-11;8-16;0-11;7-14;2-11;4-13,2-11,10.8,23,-3,717.982007264
GEMS119,2018_Mar_06_1540,Kramer,GH,orientation,8,6,0,0-0;0-0;0-0;0-0,2,SimpleHill,0-0,0,3,selected,2-11,10-11;4-18;8-7;4-7;8-16;8-13,8-13,1.74,37,14,723.288339916
GEMS119,2018_Mar_06_1540,Kramer,GH,orientation,8,6,0,0-0;0-0;0-0;0-0,2,SimpleHill,0-0,0,4,selected,8-13,13-16;14-15;8-13;8-21;4-18;14-8,14-8,6.86,38,1,733.704307233
GEMS119,2018_Mar_06_1540,Kramer,GH,orientation,8,6,0,0-0;0-0;0-0;0-0,2,SimpleHill,0-0,0,5,selected,14-8,10-6;20-12;9-6;16-8;9-11;10-10,10-10,2.71,36,-2,739.997650519
GEMS119,2018_Mar_06_1540,Kramer,GH,orientation,8,6,0,0-0;0-0;0-0;0-0,2,SimpleHill,0-0,0,6,selected,10-10,9-16;17-10;4-15;10-5;9-3;16-12,9-3,7.16,22,-14,750.713716041
GEMS119,2018_Mar_06_1540,Kramer,GH,orientation,8,6,0,0-0;0-0;0-0;0-0,2,SimpleHill,0-0,0,7,selected,9-3,7-2;12-4;6-0;14-6;14-7;11-0,6-0,0.65,11,-11,754.93529388
GEMS119,2018_Mar_06_1540,Kramer,GH,orientation,8,6,0,0-0;0-0;0-0;0-0,2,SimpleHill,0-0,0,8,selected,6-0,1-6;9-4;8-4;3-2;9-1;5-4,1-6,0.36,13,2,758.862056327
GEMS119,2018_Mar_06_1540,Kramer,GH,orientation,8,6,0,0-0;0-0;0-0;0-0,2,SimpleHill,0-0,0,9,selected,1-6,2-10;5-11;3-9;3-4;4-13;1-9,5-11,0.21,29,16,762.647702662
GEMS119,2018_Mar_06_1540,Kramer,GH,orientation,8,6,0,0-0;0-0;0-0;0-0,2,SimpleHill,0-0,0,10,selected,5-11,6-8;2-4;10-14;8-4;11-6;2-13,2-13,0.37,26,-3,766.579562267
GEMS119,2018_Mar_06_1540,Kramer,GH,orientation,8,6,0,0-0;0-0;0-0;0-0,2,SimpleHill,0-0,0,11,selected,2-13,7-15;1-15;8-11;5-18;0-19;6-16,7-15,1.4,38,12,771.558299142
GEMS119,2018_Mar_06_1540,Kramer,GH,orientation,8,6,0,0-0;0-0;0-0;0-0,2,SimpleHill,0-0,0,12,selected,7-15,11-12;10-8;7-15;5-16;5-9;6-19,11-12,0.73,40,2,775.863359105
GEMS119,2018_Mar_06_1540,Kramer,GH,orientation,8,6,0,0-0;0-0;0-0;0-0,2,SimpleHill,0-0,0,13,selected,11-12,5-12;11-20;16-8;4-14;12-12;14-6,4-14,2.13,31,-9,781.584758013
GEMS119,2018_Mar_06_1540,Kramer,GH,orientation,8,6,0,0-0;0-0;0-0;0-0,2,SimpleHill,0-0,0,14,selected,4-14,8-18;2-8;9-17;7-21;6-17;3-16,3-16,2.74,32,1,787.878322803
GEMS119,2018_Mar_06_1540,Kramer,GH,orientation,8,6,0,0-0;0-0;0-0;0-0,2,SimpleHill,0-0,0,15,selected,3-16,2-17;10-17;2-19;0-12;7-21;8-19,0-12,3.53,21,-11,794.965112125
GEMS119,2018_Mar_06_1540,Kramer,GH,orientation,8,6,0,0-0;0-0;0-0;0-0,2,SimpleHill,0-0,0,16,selected,0-12,3-12;6-7;4-6;5-7;3-11;0-15,3-12,0.56,26,5,799.084520504
GEMS119,2018_Mar_06_1540,Kramer,GH,orientation,8,6,0,0-0;0-0;0-0;0-0,2,SimpleHill,0-0,0,17,selected,3-12,8-8;5-17;10-12;5-19;4-16;4-8,4-8,0.22,22,-4,802.853989669
GEMS119,2018_Mar_06_1540,Kramer,GH,orientation,8,6,0,0-0;0-0;0-0;0-0,2,SimpleHill,0-0,0,18,selected,4-8,4-15;4-9;6-10;9-2;10-7;7-10,4-9,0.28,24,2,806.685825074
GEMS119,2018_Mar_06_1540,Kramer,GH,orientation,8,6,0,0-0;0-0;0-0;0-0,2,SimpleHill,0-0,0,19,selected,4-9,5-7;10-14;3-9;0-3;4-15;6-15,3-9,0.37,22,-2,810.619737434
GEMS119,2018_Mar_06_1540,Kramer,GH,orientation,8,6,0,0-0;0-0;0-0;0-0,2,SimpleHill,0-0,0,20,selected,3-9,4-5;8-6;9-9;5-7;6-6;1-4,6-6,0.43,22,0,814.634715217
GEMS119,2018_Mar_06_1540,Kramer,GH,orientation,8,6,0,0-0;0-0;0-0;0-0,2,SimpleHill,0-0,0,21,selected,6-6,2-9;2-10;13-6;3-5;8-12;0-9,2-9,0.45,20,-2,818.659638923
GEMS119,2018_Mar_06_1540,Kramer,GH,orientation,8,6,0,0-0;0-0;0-0;0-0,2,SimpleHill,0-0,0,22,selected,2-9,5-3;1-2;4-5;1-7;4-8;6-8,1-2,0.2,5,-15,822.413506124
GEMS119,2018_Mar_06_1540,Kramer,GH,orientation,8,6,0,0-0;0-0;0-0;0-0,2,SimpleHill,0-0,0,23,selected,1-2,1-9;0-1;6-8;6-3;3-6;0-8,0-8,0.39,14,9,826.357523493
GEMS119,2018_Mar_06_1540,Kramer,GH,orientation,8,6,0,0-0;0-0;0-0;0-0,2,SimpleHill,0-0,0,24,selected,0-8,1-15;6-11;1-6;5-7;5-8;5-11,5-7,0.59,22,8,830.507058046
GEMS119,2018_Mar_06_1540,Kramer,GH,orientation,8,6,0,0-0;0-0;0-0;0-0,2,SimpleHill,0-0,0,25,selected,5-7,10-3;10-7;9-12;3-6;5-0;1-9,10-3,1.25,23,1,835.324511042
GEMS119,2018_Mar_06_1540,Kramer,GH,orientation,8,6,0,0-0;0-0;0-0;0-0,2,SimpleHill,0-0,0,26,selected,10-3,4-8;13-2;8-9;6-5;10-5;3-6,3-6,1.07,17,-6,839.971278073
GEMS119,2018_Mar_06_1540,Kramer,GH,orientation,8,6,0,0-0;0-0;0-0;0-0,2,SimpleHill,0-0,0,27,selected,3-6,8-8;7-7;5-9;5-11;4-10;4-9,8-8,0.98,29,12,844.520740413
GEMS119,2018_Mar_06_1540,Kramer,GH,orientation,8,6,0,0-0;0-0;0-0;0-0,2,SimpleHill,0-0,0,28,selected,8-8,7-12;13-9;4-8;12-7;2-6;15-11,13-9,1.73,39,10,849.821455116
GEMS119,2018_Mar_06_1540,Kramer,GH,orientation,8,6,0,0-0;0-0;0-0;0-0,2,SimpleHill,0-0,0,29,selected,13-9,15-5;18-12;12-16;17-6;11-6;15-13,11-6,4.55,30,-9,857.953765476
GEMS119,2018_Mar_06_1540,Kramer,GH,orientation,8,6,0,0-0;0-0;0-0;0-0,2,SimpleHill,0-0,0,30,selected,11-6,9-6;4-9;10-3;7-4;5-7;17-1,4-9,2.37,24,-6,863.90097225
GEMS119,2018_Mar_06_1540,Kramer,GH,orientation,8,6,0,0-0;0-0;0-0;0-0,2,SimpleHill,0-0,0,31,selected,4-9,9-13;2-7;6-5;10-8;8-15;10-11,10-8,3.46,32,8,870.922554507
GEMS119,2018_Mar_06_1540,Kramer,GH,orientation,8,6,0,0-0;0-0;0-0;0-0,2,SimpleHill,0-0,0,32,selected,10-8,15-7;8-12;14-14;11-14;8-3;4-8,15-7,3.89,38,6,878.381938252
GEMS119,2018_Mar_06_1540,Kramer,GH,orientation,8,6,0,0-0;0-0;0-0;0-0,2,SimpleHill,0-0,0,33,selected,15-7,15-15;9-12;18-1;10-11;12-2;14-11,14-11,6.62,43,5,888.562028543
GEMS119,2018_Mar_06_1540,Kramer,GH,orientation,8,6,0,0-0;0-0;0-0;0-0,2,SimpleHill,0-0,0,34,selected,14-11,8-13;20-13;9-16;16-12;15-6;9-17,16-12,4.96,48,5,897.073893103
GEMS119,2018_Mar_06_1540,Kramer,GH,orientation,8,6,0,0-0;0-0;0-0;0-0,2,SimpleHill,0-0,0,35,selected,16-12,17-13;15-7;14-12;16-19;21-10;15-13,15-13,6.43,48,0,907.06963971
GEMS119,2018_Mar_06_1540,Kramer,GH,orientation,8,6,0,0-0;0-0;0-0;0-0,2,SimpleHill,0-0,0,36,selected,15-13,20-17;18-8;22-14;9-13;19-10;13-6,19-10,8.53,48,0,919.179088401
GEMS119,2018_Mar_06_1540,Kramer,GH,orientation,8,6,0,0-0;0-0;0-0;0-0,2,SimpleHill,0-0,0,37,selected,19-10,13-5;12-8;24-5;23-14;14-10;19-4,14-10,1.95,42,-6,924.671578384
GEMS119,2018_Mar_06_1540,Kramer,GH,orientation,8,6,0,0-0;0-0;0-0;0-0,2,SimpleHill,0-0,0,38,selected,14-10,13-11;11-9;9-6;19-15;11-6;8-5,13-11,6.4,42,0,934.633973562
GEMS119,2018_Mar_06_1540,Kramer,GH,orientation,8,6,0,0-0;0-0;0-0;0-0,2,SimpleHill,0-0,0,39,selected,13-11,8-8;16-10;8-6;18-7;16-17;6-13,16-10,2.96,44,2,941.182744821
GEMS119,2018_Mar_06_1540,Kramer,GH,orientation,8,6,0,0-0;0-0;0-0;0-0,3,SimpleHill,0-0,0,0,selected,0-0,4-6;0-6;4-1;5-6;3-4;2-4,4-6,4.01,18,18,956.924933117
GEMS119,2018_Mar_06_1540,Kramer,GH,orientation,8,6,0,0-0;0-0;0-0;0-0,3,SimpleHill,0-0,0,1,selected,4-6,8-6;3-1;9-4;0-4;9-8;1-10,9-8,3.22,31,13,963.712498728
GEMS119,2018_Mar_06_1540,Kramer,GH,orientation,8,6,0,0-0;0-0;0-0;0-0,3,SimpleHill,0-0,0,2,selected,9-8,12-12;5-14;10-2;2-8;7-2;6-6,6-6,3.26,22,-9,970.537276727
GEMS119,2018_Mar_06_1540,Kramer,GH,orientation,8,6,0,0-0;0-0;0-0;0-0,3,SimpleHill,0-0,0,3,selected,6-6,11-10;4-0;1-2;6-4;8-9;12-6,8-9,2.45,31,9,976.578437141
GEMS119,2018_Mar_06_1540,Kramer,GH,orientation,8,6,0,0-0;0-0;0-0;0-0,3,SimpleHill,0-0,0,4,selected,8-9,7-8;8-10;4-13;6-4;9-13;8-7,7-8,3.63,27,-4,983.763791678
GEMS119,2018_Mar_06_1540,Kramer,GH,orientation,8,6,0,0-0;0-0;0-0;0-0,3,SimpleHill,0-0,0,5,selected,7-8,12-5;2-13;6-2;7-15;5-2;5-9,5-9,4.02,25,-2,991.359856009
GEMS119,2018_Mar_06_1540,Kramer,GH,orientation,8,6,0,0-0;0-0;0-0;0-0,3,SimpleHill,0-0,0,6,selected,5-9,1-4;9-7;7-7;6-10;7-2;3-9,9-7,0.47,29,4,995.402334565
GEMS119,2018_Mar_06_1540,Kramer,GH,orientation,8,6,0,0-0;0-0;0-0;0-0,3,SimpleHill,0-0,0,7,selected,9-7,7-6;5-11;14-13;8-4;12-8;8-5,5-11,0.28,29,0,999.24823997
GEMS119,2018_Mar_06_1540,Kramer,GH,orientation,8,6,0,0-0;0-0;0-0;0-0,3,SimpleHill,0-0,0,8,selected,5-11,5-17;0-12;1-6;0-9;1-9;5-6,5-17,0.24,37,8,1003.04207012
GEMS119,2018_Mar_06_1540,Kramer,GH,orientation,8,6,0,0-0;0-0;0-0;0-0,3,SimpleHill,0-0,0,9,selected,5-17,2-19;10-11;4-24;5-19;4-12;10-23,5-19,0.27,40,3,1006.88397756
GEMS119,2018_Mar_06_1540,Kramer,GH,orientation,8,6,0,0-0;0-0;0-0;0-0,3,SimpleHill,0-0,0,10,selected,5-19,6-12;9-20;6-26;1-17;6-22;11-19,11-19,0.86,50,10,1011.31692932
GEMS119,2018_Mar_06_1540,Kramer,GH,orientation,8,6,0,0-0;0-0;0-0;0-0,3,SimpleHill,0-0,0,11,selected,11-19,7-14;13-18;8-17;13-14;16-14;15-22,16-14,0.33,50,0,1015.21784492
GEMS119,2018_Mar_06_1540,Kramer,GH,orientation,8,6,0,0-0;0-0;0-0;0-0,3,SimpleHill,0-0,0,12,selected,16-14,14-20;20-17;10-19;17-18;16-13;10-18,14-20,0.63,56,6,1019.41975562
GEMS119,2018_Mar_06_1540,Kramer,GH,orientation,8,6,0,0-0;0-0;0-0;0-0,3,SimpleHill,0-0,0,13,selected,14-20,12-27;7-17;17-22;16-27;15-27;9-16,9-16,0.57,43,-13,1023.56335053
GEMS119,2018_Mar_06_1540,Kramer,GH,orientation,8,6,0,0-0;0-0;0-0;0-0,3,SimpleHill,0-0,0,14,selected,9-16,13-18;15-11;11-23;7-20;14-16;8-11,15-11,1.74,45,2,1028.85517273
GEMS119,2018_Mar_06_1540,Kramer,GH,orientation,8,6,0,0-0;0-0;0-0;0-0,3,SimpleHill,0-0,0,15,selected,15-11,21-16;18-13;16-9;11-12;17-14;10-6,16-9,1.49,43,-2,1033.91257689
GEMS119,2018_Mar_06_1540,Kramer,GH,orientation,8,6,0,0-0;0-0;0-0;0-0,3,SimpleHill,0-0,0,16,selected,16-9,15-6;21-15;14-5;12-9;18-8;12-6,12-6,0.81,32,-11,1038.27174759
GEMS119,2018_Mar_06_1540,Kramer,GH,orientation,8,6,0,0-0;0-0;0-0;0-0,3,SimpleHill,0-0,0,17,selected,12-6,18-9;14-12;6-7;10-5;13-10;7-0,13-10,1.43,40,8,1043.2683338
GEMS119,2018_Mar_06_1540,Kramer,GH,orientation,8,6,0,0-0;0-0;0-0;0-0,3,SimpleHill,0-0,0,18,selected,13-10,16-3;15-10;20-12;12-17;10-8;16-9,15-10,1.47,43,3,1048.29698786
GEMS119,2018_Mar_06_1540,Kramer,GH,orientation,8,6,0,0-0;0-0;0-0;0-0,3,SimpleHill,0-0,0,19,selected,15-10,13-15;17-15;15-15;20-10;17-12;13-11,17-12,1.86,49,6,1053.7180008
GEMS119,2018_Mar_06_1540,Kramer,GH,orientation,8,6,0,0-0;0-0;0-0;0-0,3,SimpleHill,0-0,0,20,selected,17-12,11-12;22-16;13-7;19-7;12-14;15-15,19-7,0.92,43,-6,1058.21081952
GEMS119,2018_Mar_06_1540,Kramer,GH,orientation,8,6,0,0-0;0-0;0-0;0-0,3,SimpleHill,0-0,0,21,selected,19-7,19-5;21-6;17-5;22-8;15-8;24-9,19-5,0.43,40,-3,1062.19334758
GEMS119,2018_Mar_06_1540,Kramer,GH,orientation,8,6,0,0-0;0-0;0-0;0-0,3,SimpleHill,0-0,0,22,selected,19-5,16-11;23-6;16-4;26-5;12-2;19-8,23-6,0.84,46,6,1066.60653937
GEMS119,2018_Mar_06_1540,Kramer,GH,orientation,8,6,0,0-0;0-0;0-0;0-0,3,SimpleHill,0-0,0,23,selected,23-6,24-1;27-7;18-3;18-8;28-11;27-11,28-11,1.18,59,13,1071.34738551
GEMS119,2018_Mar_06_1540,Kramer,GH,orientation,8,6,0,0-0;0-0;0-0;0-0,3,SimpleHill,0-0,0,24,selected,28-11,25-11;23-16;27-8;34-9;31-17;28-6,25-11,2.72,57,-2,1077.64044072
GEMS119,2018_Mar_06_1540,Kramer,GH,orientation,8,6,0,0-0;0-0;0-0;0-0,3,SimpleHill,0-0,0,25,selected,25-11,24-5;20-15;24-17;23-6;22-4;28-16,23-6,3.2,46,-11,1084.40150937
GEMS119,2018_Mar_06_1540,Kramer,GH,orientation,8,6,0,0-0;0-0;0-0;0-0,3,SimpleHill,0-0,0,26,selected,23-6,18-11;21-9;25-5;22-12;23-11;23-13,18-11,2.92,49,3,1090.88519231
GEMS119,2018_Mar_06_1540,Kramer,GH,orientation,8,6,0,0-0;0-0;0-0;0-0,3,SimpleHill,0-0,0,27,selected,18-11,20-6;17-17;15-12;13-9;19-9;15-10,15-12,3.16,46,-3,1097.61354076
GEMS119,2018_Mar_06_1540,Kramer,GH,orientation,8,6,0,0-0;0-0;0-0;0-0,3,SimpleHill,0-0,0,28,selected,15-12,11-9;8-9;19-15;10-11;9-14;13-5,8-9,0.33,31,-15,1101.55954302
GEMS119,2018_Mar_06_1540,Kramer,GH,orientation,8,6,0,0-0;0-0;0-0;0-0,3,SimpleHill,0-0,0,29,selected,8-9,9-14;11-3;8-2;8-5;7-3;5-6,7-3,0.41,18,-13,1105.53291578
GEMS119,2018_Mar_06_1540,Kramer,GH,orientation,8,6,0,0-0;0-0;0-0;0-0,3,SimpleHill,0-0,0,30,selected,7-3,8-0;8-4;12-0;11-1;12-2;7-6,8-0,0.25,14,-4,1109.34890403
GEMS119,2018_Mar_06_1540,Kramer,GH,orientation,8,6,0,0-0;0-0;0-0;0-0,3,SimpleHill,0-0,0,31,selected,8-0,15-1;1-3;9-5;4-3;3-0;4-2,1-3,0.22,7,-7,1113.13792767
GEMS119,2018_Mar_06_1540,Kramer,GH,orientation,8,6,0,0-0;0-0;0-0;0-0,3,SimpleHill,0-0,0,32,selected,1-3,5-6;8-3;5-5;8-4;3-7;4-4,8-4,0.48,22,15,1117.18580875
GEMS119,2018_Mar_06_1540,Kramer,GH,orientation,8,6,0,0-0;0-0;0-0;0-0,3,SimpleHill,0-0,0,33,selected,8-4,7-6;10-1;10-7;7-2;3-2;11-4,3-2,0.46,9,-13,1121.21550632
GEMS119,2018_Mar_06_1540,Kramer,GH,orientation,8,6,0,0-0;0-0;0-0;0-0,3,SimpleHill,0-0,0,34,selected,3-2,3-0;6-7;5-2;1-4;2-9;5-4,5-4,0.22,17,8,1124.98426392
GEMS119,2018_Mar_06_1540,Kramer,GH,orientation,8,6,0,0-0;0-0;0-0;0-0,3,SimpleHill,0-0,0,35,selected,5-4,12-1;8-10;10-4;5-9;1-7;7-6,8-10,0.37,32,15,1128.92467576
GEMS119,2018_Mar_06_1540,Kramer,GH,orientation,8,6,0,0-0;0-0;0-0;0-0,3,SimpleHill,0-0,0,36,selected,8-10,13-9;15-13;11-14;2-12;7-9;11-4,2-12,0.3,25,-7,1132.80550137
GEMS119,2018_Mar_06_1540,Kramer,GH,orientation,8,6,0,0-0;0-0;0-0;0-0,3,SimpleHill,0-0,0,37,selected,2-12,2-14;9-14;3-13;4-13;3-17;7-9,2-14,0.62,28,3,1136.98852403
GEMS119,2018_Mar_06_1540,Kramer,GH,orientation,8,6,0,0-0;0-0;0-0;0-0,3,SimpleHill,0-0,0,38,selected,2-14,1-16;4-13;3-21;0-9;8-13;3-15,4-13,0.3,30,2,1140.85930897
GEMS119,2018_Mar_06_1540,Kramer,GH,orientation,8,6,0,0-0;0-0;0-0;0-0,3,SimpleHill,0-0,0,39,selected,4-13,9-19;3-10;3-15;3-20;1-10;4-18,1-10,0.3,19,-11,1144.71214246
GEMS119,2018_Mar_06_1540,Kramer,GH,orientation,8,6,0,0-0;0-0;0-0;0-0,4,SimpleHill,0-0,0,0,selected,0-0,2-1;0-4;1-4;3-4;7-2;5-3,2-1,2.81,5,5,1156.28861263
GEMS119,2018_Mar_06_1540,Kramer,GH,orientation,8,6,0,0-0;0-0;0-0;0-0,4,SimpleHill,0-0,0,1,selected,2-1,9-3;3-5;6-5;0-5;2-6;2-7,6-5,1.34,20,15,1161.20306111
GEMS119,2018_Mar_06_1540,Kramer,GH,orientation,8,6,0,0-0;0-0;0-0;0-0,4,SimpleHill,0-0,0,2,selected,6-5,11-0;9-9;3-11;2-11;3-12;5-2,5-2,1.92,13,-7,1166.70175513
GEMS119,2018_Mar_06_1540,Kramer,GH,orientation,8,6,0,0-0;0-0;0-0;0-0,4,SimpleHill,0-0,0,3,selected,5-2,1-7;4-0;1-2;9-4;10-5;11-1,10-5,0.7,27,14,1170.97868534
GEMS119,2018_Mar_06_1540,Kramer,GH,orientation,8,6,0,0-0;0-0;0-0;0-0,4,SimpleHill,0-0,0,4,selected,10-5,16-4;10-5;8-12;8-11;16-5;7-6,16-5,3.31,36,9,1177.84971131
GEMS119,2018_Mar_06_1540,Kramer,GH,orientation,8,6,0,0-0;0-0;0-0;0-0,4,SimpleHill,0-0,0,5,selected,16-5,10-9;17-7;16-11;13-7;16-5;13-9,10-9,1.44,34,-2,1182.85995204
GEMS119,2018_Mar_06_1540,Kramer,GH,orientation,8,6,0,0-0;0-0;0-0;0-0,4,SimpleHill,0-0,0,6,selected,10-9,10-3;7-8;8-5;14-3;14-7;15-12,8-5,1.58,24,-10,1187.98362501
GEMS119,2018_Mar_06_1540,Kramer,GH,orientation,8,6,0,0-0;0-0;0-0;0-0,4,SimpleHill,0-0,0,7,selected,8-5,8-0;7-4;10-2;2-1;14-3;3-2,7-4,0.23,20,-4,1191.87653861
GEMS119,2018_Mar_06_1540,Kramer,GH,orientation,8,6,0,0-0;0-0;0-0;0-0,4,SimpleHill,0-0,0,8,selected,7-4,14-3;6-11;13-3;1-1;6-2;4-10,4-10,0.15,25,5,1195.60322961
GEMS119,2018_Mar_06_1540,Kramer,GH,orientation,8,6,0,0-0;0-0;0-0;0-0,4,SimpleHill,0-0,0,9,selected,4-10,4-16;9-13;2-17;1-16;0-13;9-14,9-14,5.47,40,15,1204.63427861
GEMS119,2018_Mar_06_1540,Kramer,GH,orientation,8,6,0,0-0;0-0;0-0;0-0,4,SimpleHill,0-0,0,10,selected,9-14,4-14;13-16;12-7;15-19;10-18;6-8,15-19,2.69,56,16,1210.88056345
GEMS119,2018_Mar_06_1540,Kramer,GH,orientation,8,6,0,0-0;0-0;0-0;0-0,4,SimpleHill,0-0,0,11,selected,15-19,22-19;10-19;16-22;15-16;11-21;18-18,22-19,1.7,65,9,1216.14325689
GEMS119,2018_Mar_06_1540,Kramer,GH,orientation,8,6,0,0-0;0-0;0-0;0-0,4,SimpleHill,0-0,0,12,selected,22-19,22-18;19-14;24-17;21-19;25-18;17-13,24-17,1.29,64,-1,1220.99647706
GEMS119,2018_Mar_06_1540,Kramer,GH,orientation,8,6,0,0-0;0-0;0-0;0-0,4,SimpleHill,0-0,0,13,selected,24-17,25-12;26-17;22-22;24-23;20-11;21-18,21-18,1.42,62,-2,1225.99650267
GEMS119,2018_Mar_06_1540,Kramer,GH,orientation,8,6,0,0-0;0-0;0-0;0-0,4,SimpleHill,0-0,0,14,selected,21-18,16-13;22-22;19-21;20-12;18-11;19-14,22-22,0.87,68,6,1230.4417111
GEMS119,2018_Mar_06_1540,Kramer,GH,orientation,8,6,0,0-0;0-0;0-0;0-0,4,SimpleHill,0-0,0,15,selected,22-22,23-26;18-28;21-15;16-25;26-24;28-24,16-25,0.69,64,-4,1234.68790472
GEMS119,2018_Mar_06_1540,Kramer,GH,orientation,8,6,0,0-0;0-0;0-0;0-0,4,SimpleHill,0-0,0,16,selected,16-25,20-28;19-25;16-25;21-31;9-24;12-29,9-24,1.63,52,-12,1239.89299458
GEMS119,2018_Mar_06_1540,Kramer,GH,orientation,8,6,0,0-0;0-0;0-0;0-0,4,SimpleHill,0-0,0,17,selected,9-24,4-23;15-28;9-25;7-24;11-30;7-19,4-23,0.23,43,-9,1243.70469903
GEMS119,2018_Mar_06_1540,Kramer,GH,orientation,8,6,0,0-0;0-0;0-0;0-0,4,SimpleHill,0-0,0,18,selected,4-23,1-20;7-23;2-26;2-18;8-29;2-29,2-26,0.19,42,-1,1247.45566267
GEMS119,2018_Mar_06_1540,Kramer,GH,orientation,8,6,0,0-0;0-0;0-0;0-0,4,SimpleHill,0-0,0,19,selected,2-26,3-28;7-20;2-24;7-31;3-30;2-25,2-25,0.17,41,-1,1251.19088702
GEMS119,2018_Mar_06_1540,Kramer,GH,orientation,8,6,0,0-0;0-0;0-0;0-0,4,SimpleHill,0-0,0,20,selected,2-25,8-21;0-26;9-24;2-20;5-22;4-31,2-20,0.43,35,-6,1255.18905481
GEMS119,2018_Mar_06_1540,Kramer,GH,orientation,8,6,0,0-0;0-0;0-0;0-0,4,SimpleHill,0-0,0,21,selected,2-20,7-23;0-22;5-24;0-23;8-17;5-16,0-22,1.62,34,-1,1260.39829019
GEMS119,2018_Mar_06_1540,Kramer,GH,orientation,8,6,0,0-0;0-0;0-0;0-0,4,SimpleHill,0-0,0,22,selected,0-22,1-18;7-24;0-18;6-18;5-22;3-18,5-22,0.74,43,9,1264.7027455
GEMS119,2018_Mar_06_1540,Kramer,GH,orientation,8,6,0,0-0;0-0;0-0;0-0,4,SimpleHill,0-0,0,23,selected,5-22,5-26;9-26;0-20;7-27;3-29;6-15,6-15,1.66,36,-7,1269.92487582
GEMS119,2018_Mar_06_1540,Kramer,GH,orientation,8,6,0,0-0;0-0;0-0;0-0,4,SimpleHill,0-0,0,24,selected,6-15,0-17;6-7;8-18;0-13;6-19;7-14,8-18,0.23,44,8,1273.75741479
GEMS119,2018_Mar_06_1540,Kramer,GH,orientation,8,6,0,0-0;0-0;0-0;0-0,4,SimpleHill,0-0,0,25,selected,8-18,10-20;9-22;6-24;7-18;8-17;0-18,7-18,0.84,42,-2,1278.16504913
GEMS119,2018_Mar_06_1540,Kramer,GH,orientation,8,6,0,0-0;0-0;0-0;0-0,4,SimpleHill,0-0,0,26,selected,7-18,4-17;8-23;9-22;8-11;8-13;13-20,8-23,0.35,50,8,1282.06365045
GEMS119,2018_Mar_06_1540,Kramer,GH,orientation,8,6,0,0-0;0-0;0-0;0-0,4,SimpleHill,0-0,0,27,selected,8-23,8-16;14-25;15-22;9-17;5-25;14-21,14-21,1.39,57,7,1287.02505462
GEMS119,2018_Mar_06_1540,Kramer,GH,orientation,8,6,0,0-0;0-0;0-0;0-0,4,SimpleHill,0-0,0,28,selected,14-21,13-15;7-19;17-17;12-26;11-17;17-20,17-20,3.14,60,3,1293.74755817
GEMS119,2018_Mar_06_1540,Kramer,GH,orientation,8,6,0,0-0;0-0;0-0;0-0,4,SimpleHill,0-0,0,29,selected,17-20,12-25;23-25;17-24;21-25;17-20;14-20,23-25,1.83,72,12,1299.13008924
GEMS119,2018_Mar_06_1540,Kramer,GH,orientation,8,6,0,0-0;0-0;0-0;0-0,4,SimpleHill,0-0,0,30,selected,23-25,15-25;25-31;27-25;27-26;29-29;17-25,15-25,1.03,63,-9,1303.7142061
GEMS119,2018_Mar_06_1540,Kramer,GH,orientation,8,6,0,0-0;0-0;0-0;0-0,4,SimpleHill,0-0,0,31,selected,15-25,17-31;10-20;18-26;11-19;17-21;16-20,18-26,0.43,68,5,1307.71837659
GEMS119,2018_Mar_06_1540,Kramer,GH,orientation,8,6,0,0-0;0-0;0-0;0-0,4,SimpleHill,0-0,0,32,selected,18-26,21-25;24-24;18-29;22-32;15-29;11-24,15-29,1.63,66,-2,1312.90039928
GEMS119,2018_Mar_06_1540,Kramer,GH,orientation,8,6,0,0-0;0-0;0-0;0-0,4,SimpleHill,0-0,0,33,selected,15-29,15-36;15-35;15-37;17-34;19-35;14-27,15-36,2.02,71,5,1318.48646007
GEMS119,2018_Mar_06_1540,Kramer,GH,orientation,8,6,0,0-0;0-0;0-0;0-0,4,SimpleHill,0-0,0,34,selected,15-36,22-34;18-43;10-37;11-38;11-39;22-35,22-34,1.29,79,8,1323.34610706
GEMS119,2018_Mar_06_1540,Kramer,GH,orientation,8,6,0,0-0;0-0;0-0;0-0,4,SimpleHill,0-0,0,35,selected,22-34,22-34;17-32;25-39;23-41;23-32;24-28,25-39,0.18,85,6,1327.14496331
GEMS119,2018_Mar_06_1540,Kramer,GH,orientation,8,6,0,0-0;0-0;0-0;0-0,4,SimpleHill,0-0,0,36,selected,25-39,20-41;27-45;25-44;29-36;27-43;24-39,27-43,0.65,88,3,1331.35395862
GEMS119,2018_Mar_06_1540,Kramer,GH,orientation,8,6,0,0-0;0-0;0-0;0-0,4,SimpleHill,0-0,0,37,selected,27-43,33-48;20-45;32-43;22-40;27-49;22-44,32-43,4.29,92,4,1339.2170322
GEMS119,2018_Mar_06_1540,Kramer,GH,orientation,8,6,0,0-0;0-0;0-0;0-0,4,SimpleHill,0-0,0,38,selected,32-43,27-41;26-48;34-40;28-39;37-40;27-37,27-41,0.85,87,-5,1343.64759575
GEMS119,2018_Mar_06_1540,Kramer,GH,orientation,8,6,0,0-0;0-0;0-0;0-0,4,SimpleHill,0-0,0,39,selected,27-41,29-44;34-40;33-38;21-37;22-47;29-46,29-46,2.13,90,3,1349.33103325
