subj_id,date,computer,experimenter,version,generation,inherit_from,sight_radius,n_gabors,block_ix,landscape_name,starting_pos,starting_score,trial,pos,stims,selected,rt,score,delta,exp_time,landscape_ix
GEMS108,2018_Sep_27_1120,Kramer,MP,1.1,2,GEMS101,10,6,1,SimpleHill,0-0,0,0,0-0,7-4;4-4;2-8;7-1;3-9;3-3,4-4,0.8,15,15,179.250161887,1
GEMS108,2018_Sep_27_1120,Kramer,MP,1.1,2,GEMS101,10,6,1,SimpleHill,0-0,0,1,4-4,8-5;7-6;11-3;2-2;0-1;12-0,0-1,0.66,1,-14,183.498545976,1
GEMS108,2018_Sep_27_1120,Kramer,MP,1.1,2,GEMS101,10,6,1,SimpleHill,0-0,0,2,0-1,6-1;4-5;5-1;6-7;8-1;6-3,6-1,0.7,13,12,187.779210195,1
GEMS108,2018_Sep_27_1120,Kramer,MP,1.1,2,GEMS101,10,6,1,SimpleHill,0-0,0,3,6-1,12-8;9-0;2-3;3-3;14-4;10-3,10-3,0.5,23,10,191.857631457,1
GEMS108,2018_Sep_27_1120,Kramer,MP,1.1,2,GEMS101,10,6,1,SimpleHill,0-0,0,4,10-3,4-9;8-0;11-12;15-0;14-4;5-0,8-0,0.75,14,-9,196.18599054,1
GEMS108,2018_Sep_27_1120,Kramer,MP,1.1,2,GEMS101,10,6,1,SimpleHill,0-0,0,5,8-0,4-0;5-8;7-5;11-7;13-0;16-4,7-5,0.65,22,8,200.383223717,1
GEMS108,2018_Sep_27_1120,Kramer,MP,1.1,2,GEMS101,10,6,1,SimpleHill,0-0,0,6,7-5,1-4;16-2;11-2;0-7;11-8;8-3,1-4,1.06,9,-13,205.028103873,1
GEMS108,2018_Sep_27_1120,Kramer,MP,1.1,2,GEMS101,10,6,1,SimpleHill,0-0,0,7,1-4,6-9;7-10;4-1;3-3;7-3;2-0,3-3,0.63,11,2,209.224739436,1
GEMS108,2018_Sep_27_1120,Kramer,MP,1.1,2,GEMS101,10,6,1,SimpleHill,0-0,0,8,3-3,12-5;1-5;10-10;4-1;5-2;10-1,5-2,0.34,13,2,213.134389257,1
GEMS108,2018_Sep_27_1120,Kramer,MP,1.1,2,GEMS101,10,6,1,SimpleHill,0-0,0,9,5-2,11-10;10-1;2-0;11-6;4-9;13-0,11-10,0.45,37,24,217.148649734,1
GEMS108,2018_Sep_27_1120,Kramer,MP,1.1,2,GEMS101,10,6,1,SimpleHill,0-0,0,10,11-10,8-19;7-11;13-5;16-7;15-8;6-10,7-11,0.61,32,-5,221.325356928,1
GEMS108,2018_Sep_27_1120,Kramer,MP,1.1,2,GEMS101,10,6,1,SimpleHill,0-0,0,11,7-11,12-17;12-9;3-15;15-7;12-7;15-14,3-15,0.69,31,-1,225.580078545,1
GEMS108,2018_Sep_27_1120,Kramer,MP,1.1,2,GEMS101,10,6,1,SimpleHill,0-0,0,12,3-15,9-17;4-12;9-11;0-20;11-20;7-14,7-14,0.46,37,6,229.664788039,1
GEMS108,2018_Sep_27_1120,Kramer,MP,1.1,2,GEMS101,10,6,1,SimpleHill,0-0,0,13,7-14,7-15;13-17;16-14;0-13;9-7;3-7,0-13,0.7,22,-15,233.912999598,1
GEMS108,2018_Sep_27_1120,Kramer,MP,1.1,2,GEMS101,10,6,1,SimpleHill,0-0,0,14,0-13,2-12;8-15;4-8;8-14;0-20;0-13,2-12,0.41,25,3,237.891667299,1
GEMS108,2018_Sep_27_1120,Kramer,MP,1.1,2,GEMS101,10,6,1,SimpleHill,0-0,0,15,2-12,3-16;10-16;0-4;8-7;0-20;7-17,0-20,0.72,32,7,242.176131026,1
GEMS108,2018_Sep_27_1120,Kramer,MP,1.1,2,GEMS101,10,6,1,SimpleHill,0-0,0,16,0-20,3-27;7-26;7-13;1-29;10-20;6-27,6-27,0.7,50,18,246.448708407,1
GEMS108,2018_Sep_27_1120,Kramer,MP,1.1,2,GEMS101,10,6,1,SimpleHill,0-0,0,17,6-27,2-25;12-27;5-33;7-28;4-26;12-24,12-27,0.62,60,10,250.634247296,1
GEMS108,2018_Sep_27_1120,Kramer,MP,1.1,2,GEMS101,10,6,1,SimpleHill,0-0,0,18,12-27,20-33;16-30;13-24;9-33;8-30;19-22,13-24,0.73,59,-1,254.944289999,1
GEMS108,2018_Sep_27_1120,Kramer,MP,1.1,2,GEMS101,10,6,1,SimpleHill,0-0,0,19,13-24,13-33;14-18;9-33;21-30;10-32;19-32,13-33,0.41,66,7,258.962307412,1
GEMS108,2018_Sep_27_1120,Kramer,MP,1.1,2,GEMS101,10,6,1,SimpleHill,0-0,0,20,13-33,17-32;19-38;5-33;19-26;12-25;8-28,19-38,0.69,77,11,263.220795246,1
GEMS108,2018_Sep_27_1120,Kramer,MP,1.1,2,GEMS101,10,6,1,SimpleHill,0-0,0,21,19-38,21-30;16-33;28-37;20-40;16-37;24-35,24-35,1.65,81,4,268.435872345,1
GEMS108,2018_Sep_27_1120,Kramer,MP,1.1,2,GEMS101,10,6,1,SimpleHill,0-0,0,22,24-35,33-35;25-29;25-38;23-35;20-30;22-42,25-29,0.77,78,-3,272.768529002,1
GEMS108,2018_Sep_27_1120,Kramer,MP,1.1,2,GEMS101,10,6,1,SimpleHill,0-0,0,23,25-29,30-36;19-29;29-30;23-38;24-24;27-28,23-38,0.7,82,4,277.025207989,1
GEMS108,2018_Sep_27_1120,Kramer,MP,1.1,2,GEMS101,10,6,1,SimpleHill,0-0,0,24,23-38,28-45;18-39;26-39;20-29;25-47;32-37,26-39,0.56,86,4,281.168378366,1
GEMS108,2018_Sep_27_1120,Kramer,MP,1.1,2,GEMS101,10,6,1,SimpleHill,0-0,0,25,26-39,27-45;21-42;28-32;33-39;26-49;25-40,25-40,0.68,85,-1,285.413266075,1
GEMS108,2018_Sep_27_1120,Kramer,MP,1.1,2,GEMS101,10,6,1,SimpleHill,0-0,0,26,25-40,19-34;30-37;23-34;20-34;33-41;17-46,33-41,0.73,92,7,289.718965113,1
GEMS108,2018_Sep_27_1120,Kramer,MP,1.1,2,GEMS101,10,6,1,SimpleHill,0-0,0,27,33-41,26-44;29-37;35-32;25-40;25-39;32-40,35-32,0.54,89,-3,293.837422045,1
GEMS108,2018_Sep_27_1120,Kramer,MP,1.1,2,GEMS101,10,6,1,SimpleHill,0-0,0,28,35-32,40-25;32-34;36-26;36-23;34-24;38-23,40-25,0.27,85,-4,297.664488112,1
GEMS108,2018_Sep_27_1120,Kramer,MP,1.1,2,GEMS101,10,6,1,SimpleHill,0-0,0,29,40-25,45-17;40-26;41-27;32-25;33-25;38-24,32-25,0.47,81,-4,301.698775227,1
GEMS108,2018_Sep_27_1120,Kramer,MP,1.1,2,GEMS101,10,6,1,SimpleHill,0-0,0,30,32-25,31-30;24-28;27-25;30-21;37-17;31-24,31-24,0.7,79,-2,305.972262314,1
GEMS108,2018_Sep_27_1120,Kramer,MP,1.1,2,GEMS101,10,6,1,SimpleHill,0-0,0,31,31-24,23-28;29-29;32-17;37-20;35-23;37-23,37-23,0.55,82,3,310.09402293,1
GEMS108,2018_Sep_27_1120,Kramer,MP,1.1,2,GEMS101,10,6,1,SimpleHill,0-0,0,32,37-23,42-22;31-25;45-26;39-16;42-31;38-18,31-25,0.41,80,-2,314.086412711,1
GEMS108,2018_Sep_27_1120,Kramer,MP,1.1,2,GEMS101,10,6,1,SimpleHill,0-0,0,33,31-25,27-16;24-21;33-18;29-30;31-33;31-22,29-30,1.05,83,3,318.7057491,1
GEMS108,2018_Sep_27_1120,Kramer,MP,1.1,2,GEMS101,10,6,1,SimpleHill,0-0,0,34,29-30,29-29;35-37;36-33;32-35;28-31;26-31,35-37,3.72,92,9,325.98144067,1
GEMS108,2018_Sep_27_1120,Kramer,MP,1.1,2,GEMS101,10,6,1,SimpleHill,0-0,0,35,35-37,37-42;41-40;31-30;37-37;43-40;28-43,28-43,0.52,89,-3,330.071530293,1
GEMS108,2018_Sep_27_1120,Kramer,MP,1.1,2,GEMS101,10,6,1,SimpleHill,0-0,0,36,28-43,36-41;36-43;36-37;22-42;34-42;30-49,22-42,0.54,83,-6,334.162954384,1
GEMS108,2018_Sep_27_1120,Kramer,MP,1.1,2,GEMS101,10,6,1,SimpleHill,0-0,0,37,22-42,21-35;25-42;13-38;24-36;24-35;19-35,24-35,0.77,81,-2,338.503295841,1
GEMS108,2018_Sep_27_1120,Kramer,MP,1.1,2,GEMS101,10,6,1,SimpleHill,0-0,0,38,24-35,20-36;22-39;26-27;23-40;27-35;33-33,22-39,0.76,81,0,342.832858475,1
GEMS108,2018_Sep_27_1120,Kramer,MP,1.1,2,GEMS101,10,6,1,SimpleHill,0-0,0,39,22-39,25-40;23-32;20-47;18-42;21-40;21-34,25-40,0.37,85,4,346.772219998,1
GEMS108,2018_Sep_27_1120,Kramer,MP,1.1,2,GEMS101,10,6,2,SimpleHill,0-0,0,0,0-0,1-9;9-1;6-3;3-7;6-6;8-5,9-1,0.96,18,18,361.382343141,1
GEMS108,2018_Sep_27_1120,Kramer,MP,1.1,2,GEMS101,10,6,2,SimpleHill,0-0,0,1,9-1,3-4;13-0;10-4;5-10;17-4;1-7,1-7,0.34,15,-3,365.273767809,1
GEMS108,2018_Sep_27_1120,Kramer,MP,1.1,2,GEMS101,10,6,2,SimpleHill,0-0,0,2,1-7,8-6;8-14;1-14;3-16;6-7;8-11,8-11,0.26,34,19,369.126634036,1
GEMS108,2018_Sep_27_1120,Kramer,MP,1.1,2,GEMS101,10,6,2,SimpleHill,0-0,0,3,8-11,1-8;11-20;6-9;9-11;15-11;13-6,1-8,0.63,16,-18,373.315764052,1
GEMS108,2018_Sep_27_1120,Kramer,MP,1.1,2,GEMS101,10,6,2,SimpleHill,0-0,0,4,1-8,4-17;3-10;5-17;0-14;2-17;0-17,4-17,0.55,35,19,377.41661105,1
GEMS108,2018_Sep_27_1120,Kramer,MP,1.1,2,GEMS101,10,6,2,SimpleHill,0-0,0,5,4-17,8-19;2-24;5-11;9-9;12-21;6-17,5-11,0.68,29,-6,381.672639608,1
GEMS108,2018_Sep_27_1120,Kramer,MP,1.1,2,GEMS101,10,6,2,SimpleHill,0-0,0,6,5-11,8-18;0-16;1-11;10-18;6-13;7-10,1-11,0.6,21,-8,385.836739286,1
GEMS108,2018_Sep_27_1120,Kramer,MP,1.1,2,GEMS101,10,6,2,SimpleHill,0-0,0,7,1-11,4-18;3-14;8-7;5-20;2-13;2-10,2-13,0.31,26,5,389.713219758,1
GEMS108,2018_Sep_27_1120,Kramer,MP,1.1,2,GEMS101,10,6,2,SimpleHill,0-0,0,8,2-13,5-12;2-5;6-21;4-12;6-17;0-21,5-12,0.71,30,4,394.004548206,1
GEMS108,2018_Sep_27_1120,Kramer,MP,1.1,2,GEMS101,10,6,2,SimpleHill,0-0,0,9,5-12,8-18;0-18;5-7;14-8;3-6;10-14,10-14,0.6,42,12,398.178485632,1
GEMS108,2018_Sep_27_1120,Kramer,MP,1.1,2,GEMS101,10,6,2,SimpleHill,0-0,0,10,10-14,18-9;11-21;15-13;18-12;17-9;11-17,11-21,0.55,52,10,402.293390489,1
GEMS108,2018_Sep_27_1120,Kramer,MP,1.1,2,GEMS101,10,6,2,SimpleHill,0-0,0,11,11-21,10-15;2-19;8-28;15-20;8-19;19-26,10-15,0.78,43,-9,406.656788587,1
GEMS108,2018_Sep_27_1120,Kramer,MP,1.1,2,GEMS101,10,6,2,SimpleHill,0-0,0,12,10-15,3-11;2-21;7-9;10-24;12-20;2-14,10-24,0.65,54,11,410.875211942,1
GEMS108,2018_Sep_27_1120,Kramer,MP,1.1,2,GEMS101,10,6,2,SimpleHill,0-0,0,13,10-24,12-27;14-24;9-24;12-33;5-20;4-29,9-24,0.99,52,-2,415.434178092,1
GEMS108,2018_Sep_27_1120,Kramer,MP,1.1,2,GEMS101,10,6,2,SimpleHill,0-0,0,14,9-24,7-15;11-27;2-24;14-27;6-20;11-33,11-33,0.83,63,11,419.824180425,1
GEMS108,2018_Sep_27_1120,Kramer,MP,1.1,2,GEMS101,10,6,2,SimpleHill,0-0,0,15,11-33,11-28;8-29;20-30;9-25;17-33;15-25,17-33,0.42,72,9,423.811194239,1
GEMS108,2018_Sep_27_1120,Kramer,MP,1.1,2,GEMS101,10,6,2,SimpleHill,0-0,0,16,17-33,15-28;17-37;19-28;23-27;13-33;10-38,17-37,0.71,74,2,428.09409335,1
GEMS108,2018_Sep_27_1120,Kramer,MP,1.1,2,GEMS101,10,6,2,SimpleHill,0-0,0,17,17-37,19-37;20-34;19-30;22-40;16-32;11-30,22-40,0.53,82,8,432.181769149,1
GEMS108,2018_Sep_27_1120,Kramer,MP,1.1,2,GEMS101,10,6,2,SimpleHill,0-0,0,18,22-40,28-33;31-37;25-46;23-46;23-39;16-46,25-46,0.37,87,5,436.131668784,1
GEMS108,2018_Sep_27_1120,Kramer,MP,1.1,2,GEMS101,10,6,2,SimpleHill,0-0,0,19,25-46,22-48;31-44;17-40;24-39;25-49;25-47,22-48,0.75,84,-3,440.468430317,1
GEMS108,2018_Sep_27_1120,Kramer,MP,1.1,2,GEMS101,10,6,2,SimpleHill,0-0,0,20,22-48,16-56;21-42;20-48;19-41;21-39;23-57,21-39,0.81,80,-4,444.855323904,1
GEMS108,2018_Sep_27_1120,Kramer,MP,1.1,2,GEMS101,10,6,2,SimpleHill,0-0,0,21,21-39,18-45;29-34;23-42;22-33;26-38;15-31,26-38,2.08,85,5,450.52164487,1
GEMS108,2018_Sep_27_1120,Kramer,MP,1.1,2,GEMS101,10,6,2,SimpleHill,0-0,0,22,26-38,34-43;20-32;33-31;23-40;23-36;26-28,34-43,0.78,93,8,454.874333286,1
GEMS108,2018_Sep_27_1120,Kramer,MP,1.1,2,GEMS101,10,6,2,SimpleHill,0-0,0,23,34-43,33-35;40-38;36-37;35-50;37-49;32-38,35-50,1.3,95,2,459.743907744,1
GEMS108,2018_Sep_27_1120,Kramer,MP,1.1,2,GEMS101,10,6,2,SimpleHill,0-0,0,24,35-50,36-46;37-57;40-58;29-49;42-46;42-51,40-58,1.89,96,1,465.183265906,1
GEMS108,2018_Sep_27_1120,Kramer,MP,1.1,2,GEMS101,10,6,2,SimpleHill,0-0,0,25,40-58,31-60;46-66;38-53;43-49;47-62;48-62,46-66,0.91,94,-2,469.674081948,1
GEMS108,2018_Sep_27_1120,Kramer,MP,1.1,2,GEMS101,10,6,2,SimpleHill,0-0,0,26,46-66,37-67;36-66;44-60;46-59;55-70;47-58,46-59,1.41,98,4,474.661501961,1
GEMS108,2018_Sep_27_1120,Kramer,MP,1.1,2,GEMS101,10,6,2,SimpleHill,0-0,0,27,46-59,53-61;41-55;46-56;46-61;41-59;44-52,44-52,1.42,99,1,479.646499508,1
GEMS108,2018_Sep_27_1120,Kramer,MP,1.1,2,GEMS101,10,6,2,SimpleHill,0-0,0,28,44-52,48-49;38-45;41-59;46-56;45-45;40-47,38-45,1.19,96,-3,484.398686465,1
GEMS108,2018_Sep_27_1120,Kramer,MP,1.1,2,GEMS101,10,6,2,SimpleHill,0-0,0,29,38-45,35-38;40-46;29-43;35-47;43-53;43-44,43-53,1.99,98,2,489.968110063,1
GEMS108,2018_Sep_27_1120,Kramer,MP,1.1,2,GEMS101,10,6,2,SimpleHill,0-0,0,30,43-53,40-47;51-48;41-46;50-47;43-62;50-55,40-47,0.99,97,-1,494.522576662,1
GEMS108,2018_Sep_27_1120,Kramer,MP,1.1,2,GEMS101,10,6,2,SimpleHill,0-0,0,31,40-47,37-54;35-46;43-42;34-48;46-52;34-51,43-42,2.36,97,0,500.448695924,1
GEMS108,2018_Sep_27_1120,Kramer,MP,1.1,2,GEMS101,10,6,2,SimpleHill,0-0,0,32,43-42,51-41;49-50;46-50;41-35;44-49;51-47,41-35,1.48,93,-4,505.497260801,1
GEMS108,2018_Sep_27_1120,Kramer,MP,1.1,2,GEMS101,10,6,2,SimpleHill,0-0,0,33,41-35,50-34;40-28;47-38;38-41;33-39;34-36,40-28,1.25,88,-5,510.31874316,1
GEMS108,2018_Sep_27_1120,Kramer,MP,1.1,2,GEMS101,10,6,2,SimpleHill,0-0,0,34,40-28,41-36;45-24;39-20;35-35;45-22;43-24,41-36,1.52,94,6,515.401838744,1
GEMS108,2018_Sep_27_1120,Kramer,MP,1.1,2,GEMS101,10,6,2,SimpleHill,0-0,0,35,41-36,41-42;35-34;48-41;35-40;41-34;46-34,48-41,1.56,98,4,520.530161273,1
GEMS108,2018_Sep_27_1120,Kramer,MP,1.1,2,GEMS101,10,6,2,SimpleHill,0-0,0,36,48-41,53-33;45-37;53-34;47-41;39-45;56-46,56-46,2.75,98,0,526.86405669,1
GEMS108,2018_Sep_27_1120,Kramer,MP,1.1,2,GEMS101,10,6,2,SimpleHill,0-0,0,37,56-46,52-42;60-53;63-44;54-49;62-54;57-39,62-54,0.77,96,-2,531.205691963,1
GEMS108,2018_Sep_27_1120,Kramer,MP,1.1,2,GEMS101,10,6,2,SimpleHill,0-0,0,38,62-54,59-51;55-51;62-57;65-60;66-56;65-54,59-51,2.45,98,2,537.20725722,1
GEMS108,2018_Sep_27_1120,Kramer,MP,1.1,2,GEMS101,10,6,2,SimpleHill,0-0,0,39,59-51,51-50;53-59;66-44;52-52;57-56;64-46,66-44,1.18,94,-4,541.96302218,1
GEMS108,2018_Sep_27_1120,Kramer,MP,1.1,2,GEMS101,10,6,3,SimpleHill,0-0,0,0,0-0,5-5;9-2;3-7;5-0;8-1;2-2,3-7,3.25,18,18,617.719575531,1
GEMS108,2018_Sep_27_1120,Kramer,MP,1.1,2,GEMS101,10,6,3,SimpleHill,0-0,0,1,3-7,7-1;8-5;0-9;7-16;2-8;7-13,7-1,2.13,15,-3,623.421843296,1
GEMS108,2018_Sep_27_1120,Kramer,MP,1.1,2,GEMS101,10,6,3,SimpleHill,0-0,0,2,7-1,11-10;8-8;11-7;0-5;4-5;15-0,15-0,1.14,25,10,628.130851586,1
GEMS108,2018_Sep_27_1120,Kramer,MP,1.1,2,GEMS101,10,6,3,SimpleHill,0-0,0,3,15-0,25-0;13-1;23-4;15-6;10-2;14-0,25-0,3.75,37,12,635.447148593,1
GEMS108,2018_Sep_27_1120,Kramer,MP,1.1,2,GEMS101,10,6,3,SimpleHill,0-0,0,4,25-0,31-6;20-8;25-0;31-1;28-8;24-8,20-8,2.83,46,9,641.857832795,1
GEMS108,2018_Sep_27_1120,Kramer,MP,1.1,2,GEMS101,10,6,3,SimpleHill,0-0,0,5,20-8,18-5;13-6;12-14;22-5;12-11;19-1,12-14,2.33,45,-1,647.773385777,1
GEMS108,2018_Sep_27_1120,Kramer,MP,1.1,2,GEMS101,10,6,3,SimpleHill,0-0,0,6,12-14,9-15;12-12;18-14;17-16;7-10;9-16,17-16,3.48,55,10,654.835799492,1
GEMS108,2018_Sep_27_1120,Kramer,MP,1.1,2,GEMS101,10,6,3,SimpleHill,0-0,0,7,17-16,15-17;10-20;19-7;25-10;12-12;17-15,19-7,1.8,43,-12,660.183391062,1
GEMS108,2018_Sep_27_1120,Kramer,MP,1.1,2,GEMS101,10,6,3,SimpleHill,0-0,0,8,19-7,21-4;11-7;10-3;23-13;23-6;15-16,15-16,2.96,52,9,666.722366744,1
GEMS108,2018_Sep_27_1120,Kramer,MP,1.1,2,GEMS101,10,6,3,SimpleHill,0-0,0,9,15-16,16-8;6-20;18-15;23-14;19-24;13-7,16-8,1.37,41,-11,671.658786289,1
GEMS108,2018_Sep_27_1120,Kramer,MP,1.1,2,GEMS101,10,6,3,SimpleHill,0-0,0,10,16-8,19-1;17-1;16-10;13-7;17-9;19-8,16-10,1.83,44,3,677.057519168,1
GEMS108,2018_Sep_27_1120,Kramer,MP,1.1,2,GEMS101,10,6,3,SimpleHill,0-0,0,11,16-10,16-13;8-14;22-6;21-7;12-4;11-6,8-14,2.82,38,-6,683.457697908,1
GEMS108,2018_Sep_27_1120,Kramer,MP,1.1,2,GEMS101,10,6,3,SimpleHill,0-0,0,12,8-14,0-20;14-22;11-22;10-16;8-13;7-14,8-13,2.44,37,-1,689.446263535,1
GEMS108,2018_Sep_27_1120,Kramer,MP,1.1,2,GEMS101,10,6,3,SimpleHill,0-0,0,13,8-13,12-10;0-7;4-10;2-13;3-12;17-11,2-13,3.3,26,-11,696.315167398,1
GEMS108,2018_Sep_27_1120,Kramer,MP,1.1,2,GEMS101,10,6,3,SimpleHill,0-0,0,14,2-13,8-18;8-5;7-11;12-13;2-22;9-15,8-5,1.42,24,-2,701.30440522,1
GEMS108,2018_Sep_27_1120,Kramer,MP,1.1,2,GEMS101,10,6,3,SimpleHill,0-0,0,15,8-5,13-11;12-14;17-4;7-6;14-7;17-8,12-14,1.48,45,21,706.346778853,1
GEMS108,2018_Sep_27_1120,Kramer,MP,1.1,2,GEMS101,10,6,3,SimpleHill,0-0,0,16,12-14,19-19;17-7;9-7;16-14;14-11;17-10,19-19,1.09,61,16,711.012783247,1
GEMS108,2018_Sep_27_1120,Kramer,MP,1.1,2,GEMS101,10,6,3,SimpleHill,0-0,0,17,19-19,17-27;24-16;22-10;14-14;22-21;14-16,17-27,0.97,67,6,715.562194931,1
GEMS108,2018_Sep_27_1120,Kramer,MP,1.1,2,GEMS101,10,6,3,SimpleHill,0-0,0,18,17-27,18-25;18-22;18-30;25-31;23-21;15-20,25-31,1.38,80,13,720.519522011,1
GEMS108,2018_Sep_27_1120,Kramer,MP,1.1,2,GEMS101,10,6,3,SimpleHill,0-0,0,19,25-31,23-27;24-35;17-37;31-32;17-30;20-35,17-37,1.01,74,-6,725.094000523,1
GEMS108,2018_Sep_27_1120,Kramer,MP,1.1,2,GEMS101,10,6,3,SimpleHill,0-0,0,20,17-37,12-32;18-33;17-31;12-35;9-43;25-32,18-33,2.21,73,-1,730.881265226,1
GEMS108,2018_Sep_27_1120,Kramer,MP,1.1,2,GEMS101,10,6,3,SimpleHill,0-0,0,21,18-33,22-29;14-39;16-26;17-30;27-30;21-41,21-41,0.76,81,8,735.223691771,1
GEMS108,2018_Sep_27_1120,Kramer,MP,1.1,2,GEMS101,10,6,3,SimpleHill,0-0,0,22,21-41,15-47;24-40;25-39;24-43;25-47;14-41,24-40,1.87,84,3,740.67144662,1
GEMS108,2018_Sep_27_1120,Kramer,MP,1.1,2,GEMS101,10,6,3,SimpleHill,0-0,0,23,24-40,15-37;21-36;17-34;22-47;27-35;25-33,27-35,1.26,84,0,745.494078434,1
GEMS108,2018_Sep_27_1120,Kramer,MP,1.1,2,GEMS101,10,6,3,SimpleHill,0-0,0,24,27-35,35-32;22-40;26-27;21-40;17-35;27-28,35-32,1.46,89,5,750.542659636,1
GEMS108,2018_Sep_27_1120,Kramer,MP,1.1,2,GEMS101,10,6,3,SimpleHill,0-0,0,25,35-32,41-28;31-29;30-28;38-34;27-26;35-22,35-22,0.92,79,-10,755.025408047,1
GEMS108,2018_Sep_27_1120,Kramer,MP,1.1,2,GEMS101,10,6,3,SimpleHill,0-0,0,26,35-22,31-18;31-26;26-21;42-17;39-17;34-19,26-21,0.48,71,-8,759.067453584,1
GEMS108,2018_Sep_27_1120,Kramer,MP,1.1,2,GEMS101,10,6,3,SimpleHill,0-0,0,27,26-21,26-22;20-14;23-13;22-17;31-16;33-17,22-17,1.9,62,-9,764.549982091,1
GEMS108,2018_Sep_27_1120,Kramer,MP,1.1,2,GEMS101,10,6,3,SimpleHill,0-0,0,28,22-17,25-24;24-11;32-17;29-22;20-19;25-11,25-11,2.68,57,-5,770.782919117,1
GEMS108,2018_Sep_27_1120,Kramer,MP,1.1,2,GEMS101,10,6,3,SimpleHill,0-0,0,29,25-11,23-2;20-8;33-13;21-13;28-12;20-11,20-11,1.96,51,-6,776.297928772,1
GEMS108,2018_Sep_27_1120,Kramer,MP,1.1,2,GEMS101,10,6,3,SimpleHill,0-0,0,30,20-11,17-18;19-15;19-13;22-4;23-8;12-16,17-18,1.93,57,6,781.798892093,1
GEMS108,2018_Sep_27_1120,Kramer,MP,1.1,2,GEMS101,10,6,3,SimpleHill,0-0,0,31,17-18,20-10;26-15;20-17;23-25;21-27;9-22,21-27,1.41,72,15,786.779241565,1
GEMS108,2018_Sep_27_1120,Kramer,MP,1.1,2,GEMS101,10,6,3,SimpleHill,0-0,0,32,21-27,26-25;22-30;22-24;24-19;17-30;12-23,22-30,1.13,76,4,791.461930182,1
GEMS108,2018_Sep_27_1120,Kramer,MP,1.1,2,GEMS101,10,6,3,SimpleHill,0-0,0,33,22-30,28-34;22-39;20-26;20-30;28-26;16-23,22-39,1.69,81,5,796.716560252,1
GEMS108,2018_Sep_27_1120,Kramer,MP,1.1,2,GEMS101,10,6,3,SimpleHill,0-0,0,34,22-39,19-34;19-38;17-37;16-41;23-32;28-43,23-32,1.43,78,-3,801.716797121,1
GEMS108,2018_Sep_27_1120,Kramer,MP,1.1,2,GEMS101,10,6,3,SimpleHill,0-0,0,35,23-32,18-32;31-29;18-35;27-26;28-24;31-30,18-35,0.96,75,-3,806.257112073,1
GEMS108,2018_Sep_27_1120,Kramer,MP,1.1,2,GEMS101,10,6,3,SimpleHill,0-0,0,36,18-35,16-41;26-32;21-39;23-34;18-37;13-38,16-41,2.13,75,0,811.969877939,1
GEMS108,2018_Sep_27_1120,Kramer,MP,1.1,2,GEMS101,10,6,3,SimpleHill,0-0,0,37,16-41,17-39;25-43;22-39;10-39;18-37;9-38,18-37,1.22,76,1,816.758084997,1
GEMS108,2018_Sep_27_1120,Kramer,MP,1.1,2,GEMS101,10,6,3,SimpleHill,0-0,0,38,18-37,16-41;22-45;11-43;11-37;11-44;16-38,16-38,3.79,74,-2,824.135638901,1
GEMS108,2018_Sep_27_1120,Kramer,MP,1.1,2,GEMS101,10,6,3,SimpleHill,0-0,0,39,16-38,13-32;11-44;18-45;12-35;10-30;8-41,18-45,1.16,79,5,828.861903422,1
GEMS108,2018_Sep_27_1120,Kramer,MP,1.1,2,GEMS101,10,6,4,SimpleHill,0-0,0,0,0-0,6-5;2-5;9-1;2-6;1-9;1-4,1-9,2.16,18,18,842.037033516,1
GEMS108,2018_Sep_27_1120,Kramer,MP,1.1,2,GEMS101,10,6,4,SimpleHill,0-0,0,1,1-9,1-15;0-5;7-11;4-18;5-6;1-4,4-18,1.01,37,19,846.621009837,1
GEMS108,2018_Sep_27_1120,Kramer,MP,1.1,2,GEMS101,10,6,4,SimpleHill,0-0,0,2,4-18,6-13;6-16;7-18;4-20;6-22;2-22,4-20,0.91,39,2,851.097090704,1
GEMS108,2018_Sep_27_1120,Kramer,MP,1.1,2,GEMS101,10,6,4,SimpleHill,0-0,0,3,4-20,11-23;12-22;4-20;0-17;2-16;8-18,4-20,1.64,39,0,856.299734098,1
GEMS108,2018_Sep_27_1120,Kramer,MP,1.1,2,GEMS101,10,6,4,SimpleHill,0-0,0,4,4-20,3-19;7-15;11-27;0-16;10-13;6-14,3-19,2.38,36,-3,862.226960884,1
GEMS108,2018_Sep_27_1120,Kramer,MP,1.1,2,GEMS101,10,6,4,SimpleHill,0-0,0,5,3-19,0-21;7-22;8-13;1-22;6-17;7-24,1-22,1.39,36,0,867.187151518,1
GEMS108,2018_Sep_27_1120,Kramer,MP,1.1,2,GEMS101,10,6,4,SimpleHill,0-0,0,6,1-22,7-18;3-27;6-27;0-15;2-28;0-30,3-27,0.92,45,9,871.675169625,1
GEMS108,2018_Sep_27_1120,Kramer,MP,1.1,2,GEMS101,10,6,4,SimpleHill,0-0,0,7,3-27,3-23;4-21;6-32;0-30;9-20;5-23,6-32,0.73,54,9,875.960120534,1
GEMS108,2018_Sep_27_1120,Kramer,MP,1.1,2,GEMS101,10,6,4,SimpleHill,0-0,0,8,6-32,4-38;3-33;3-30;12-30;15-35;9-26,3-30,0.87,47,-7,880.389864373,1
GEMS108,2018_Sep_27_1120,Kramer,MP,1.1,2,GEMS101,10,6,4,SimpleHill,0-0,0,9,3-30,10-26;1-29;12-27;2-35;3-39;9-37,3-39,1.48,53,6,885.432499522,1
GEMS108,2018_Sep_27_1120,Kramer,MP,1.1,2,GEMS101,10,6,4,SimpleHill,0-0,0,10,3-39,6-45;8-44;3-37;7-44;0-43;11-37,6-45,1.76,60,7,890.748128494,1
GEMS108,2018_Sep_27_1120,Kramer,MP,1.1,2,GEMS101,10,6,4,SimpleHill,0-0,0,11,6-45,15-45;12-40;13-46;10-49;11-51;3-40,13-46,0.86,72,12,895.162135586,1
GEMS108,2018_Sep_27_1120,Kramer,MP,1.1,2,GEMS101,10,6,4,SimpleHill,0-0,0,12,13-46,21-49;20-51;11-45;18-52;10-50;17-55,21-49,1.44,83,11,900.175065755,1
GEMS108,2018_Sep_27_1120,Kramer,MP,1.1,2,GEMS101,10,6,4,SimpleHill,0-0,0,13,21-49,19-44;27-44;25-46;30-52;24-51;20-47,24-51,1.45,86,3,905.178791321,1
GEMS108,2018_Sep_27_1120,Kramer,MP,1.1,2,GEMS101,10,6,4,SimpleHill,0-0,0,14,24-51,27-48;22-55;33-54;24-58;23-46;26-53,26-53,1.4,88,2,910.1522367,1
GEMS108,2018_Sep_27_1120,Kramer,MP,1.1,2,GEMS101,10,6,4,SimpleHill,0-0,0,15,26-53,19-59;26-50;22-45;20-60;21-49;33-51,22-45,1.75,83,-5,915.486810075,1
GEMS108,2018_Sep_27_1120,Kramer,MP,1.1,2,GEMS101,10,6,4,SimpleHill,0-0,0,16,22-45,18-53;16-41;19-54;28-51;24-50;28-38,18-53,1.14,79,-4,920.201404313,1
GEMS108,2018_Sep_27_1120,Kramer,MP,1.1,2,GEMS101,10,6,4,SimpleHill,0-0,0,17,18-53,22-62;15-50;15-61;10-54;10-51;19-55,15-50,1.24,75,-4,925.013427914,1
GEMS108,2018_Sep_27_1120,Kramer,MP,1.1,2,GEMS101,10,6,4,SimpleHill,0-0,0,18,15-50,8-44;10-52;22-48;21-52;6-54;8-53,8-53,1.53,64,-11,930.097443127,1
GEMS108,2018_Sep_27_1120,Kramer,MP,1.1,2,GEMS101,10,6,4,SimpleHill,0-0,0,19,8-53,15-50;15-53;4-47;12-50;12-61;14-54,12-61,1.01,68,4,934.678835974,1
GEMS108,2018_Sep_27_1120,Kramer,MP,1.1,2,GEMS101,10,6,4,SimpleHill,0-0,0,20,12-61,5-62;3-62;18-64;12-51;12-59;12-56,12-51,1.14,71,3,939.405783574,1
GEMS108,2018_Sep_27_1120,Kramer,MP,1.1,2,GEMS101,10,6,4,SimpleHill,0-0,0,21,12-51,9-57;11-45;16-42;11-47;11-60;12-52,12-52,0.98,71,0,943.949949249,1
GEMS108,2018_Sep_27_1120,Kramer,MP,1.1,2,GEMS101,10,6,4,SimpleHill,0-0,0,22,12-52,10-47;11-47;6-46;12-51;6-59;15-50,10-47,0.79,67,-4,948.321411138,1
GEMS108,2018_Sep_27_1120,Kramer,MP,1.1,2,GEMS101,10,6,4,SimpleHill,0-0,0,23,10-47,10-51;7-41;17-44;7-49;5-53;3-45,5-53,0.67,59,-8,952.556554567,1
GEMS108,2018_Sep_27_1120,Kramer,MP,1.1,2,GEMS101,10,6,4,SimpleHill,0-0,0,24,5-53,5-52;0-60;11-56;11-47;3-45;3-56,3-45,1.14,55,-4,957.279495559,1
GEMS108,2018_Sep_27_1120,Kramer,MP,1.1,2,GEMS101,10,6,4,SimpleHill,0-0,0,25,3-45,13-45;10-44;1-47;10-42;0-45;1-41,13-45,1.58,72,17,962.431006607,1
GEMS108,2018_Sep_27_1120,Kramer,MP,1.1,2,GEMS101,10,6,4,SimpleHill,0-0,0,26,13-45,14-51;7-38;5-40;9-43;11-36;21-41,14-51,1.19,74,2,967.19538944,1
GEMS108,2018_Sep_27_1120,Kramer,MP,1.1,2,GEMS101,10,6,4,SimpleHill,0-0,0,27,14-51,10-50;16-48;13-50;11-43;16-52;11-58,13-50,1.12,72,-2,971.868502786,1
GEMS108,2018_Sep_27_1120,Kramer,MP,1.1,2,GEMS101,10,6,4,SimpleHill,0-0,0,28,13-50,22-47;5-49;18-48;18-57;11-46;5-51,5-51,4.36,59,-13,979.797359806,1
GEMS108,2018_Sep_27_1120,Kramer,MP,1.1,2,GEMS101,10,6,4,SimpleHill,0-0,0,29,5-51,12-56;1-55;2-53;10-43;4-51;13-54,10-43,4.03,67,8,987.399016481,1
GEMS108,2018_Sep_27_1120,Kramer,MP,1.1,2,GEMS101,10,6,4,SimpleHill,0-0,0,30,10-43,12-46;18-44;19-40;3-40;7-39;8-41,7-39,2.01,60,-7,992.965723448,1
GEMS108,2018_Sep_27_1120,Kramer,MP,1.1,2,GEMS101,10,6,4,SimpleHill,0-0,0,31,7-39,6-41;11-48;16-39;13-47;6-46;6-32,6-32,2.24,54,-6,998.762184752,1
GEMS108,2018_Sep_27_1120,Kramer,MP,1.1,2,GEMS101,10,6,4,SimpleHill,0-0,0,32,6-32,16-32;4-30;14-27;7-29;4-29;1-33,16-32,2.05,70,16,1004.38278295,1
GEMS108,2018_Sep_27_1120,Kramer,MP,1.1,2,GEMS101,10,6,4,SimpleHill,0-0,0,33,16-32,18-38;7-34;15-32;12-39;23-27;25-28,18-38,2.56,76,6,1010.50285891,1
GEMS108,2018_Sep_27_1120,Kramer,MP,1.1,2,GEMS101,10,6,4,SimpleHill,0-0,0,34,18-38,9-42;14-39;22-37;12-33;11-45;19-43,11-45,1.46,69,-7,1015.54475529,1
GEMS108,2018_Sep_27_1120,Kramer,MP,1.1,2,GEMS101,10,6,4,SimpleHill,0-0,0,35,11-45,8-51;19-39;3-45;4-40;15-49;6-43,3-45,2.56,55,-14,1021.68274207,1
GEMS108,2018_Sep_27_1120,Kramer,MP,1.1,2,GEMS101,10,6,4,SimpleHill,0-0,0,36,3-45,1-42;4-37;8-51;3-38;8-37;8-50,8-50,0.69,64,9,1025.94692309,1
GEMS108,2018_Sep_27_1120,Kramer,MP,1.1,2,GEMS101,10,6,4,SimpleHill,0-0,0,37,8-50,5-49;4-53;3-42;13-49;7-57;7-47,5-49,0.8,59,-5,1030.30916405,1
GEMS108,2018_Sep_27_1120,Kramer,MP,1.1,2,GEMS101,10,6,4,SimpleHill,0-0,0,38,5-49,8-56;6-56;8-44;12-47;5-59;14-51,12-47,0.48,70,11,1034.36060144,1
GEMS108,2018_Sep_27_1120,Kramer,MP,1.1,2,GEMS101,10,6,4,SimpleHill,0-0,0,39,12-47,18-54;16-42;7-49;7-47;9-40;3-47,16-42,0.98,75,5,1038.91691242,1
