subj_id,date,computer,experimenter,instructions,sight_radius,n_gabors,start_pos_list_ix,start_pos_list,landscape_ix,landscape_name,starting_pos,starting_score,trial,feedback,pos,stims,selected,rt,score,delta,exp_time
GEMS206,2018_Mar_19_1542,George,PE,spatial_frequency,8,6,3,35-5;35-0;23-16;10-15,0,SpatialFrequencyBias,0-0,0,0,training,0-0,7-3;0-7;6-1;1-1;1-2;3-3,3-3,9.97,11,11,163.466041675
GEMS206,2018_Mar_19_1542,George,PE,spatial_frequency,8,6,3,35-5;35-0;23-16;10-15,0,SpatialFrequencyBias,0-0,0,1,training,3-3,6-5;2-1;0-0;0-9;6-0;7-7,6-5,6.71,19,8,188.449728145
GEMS206,2018_Mar_19_1542,George,PE,spatial_frequency,8,6,3,35-5;35-0;23-16;10-15,0,SpatialFrequencyBias,0-0,0,2,training,6-5,1-1;9-4;1-2;3-6;0-9;1-7,1-7,6.23,26,7,209.593010005
GEMS206,2018_Mar_19_1542,George,PE,spatial_frequency,8,6,3,35-5;35-0;23-16;10-15,0,SpatialFrequencyBias,0-0,0,3,training,1-7,3-2;0-9;5-1;7-3;8-4;5-7,5-7,5.33,26,0,220.684025193
GEMS206,2018_Mar_19_1542,George,PE,spatial_frequency,8,6,3,35-5;35-0;23-16;10-15,0,SpatialFrequencyBias,0-0,0,4,training,5-7,11-3;7-1;6-9;3-13;2-2;1-6,6-9,10.84,32,6,237.458360728
GEMS206,2018_Mar_19_1542,George,PE,spatial_frequency,8,6,3,35-5;35-0;23-16;10-15,0,SpatialFrequencyBias,0-0,0,5,training,6-9,11-12;6-9;6-7;7-15;3-16;12-14,11-12,10.84,42,10,257.104617851
GEMS206,2018_Mar_19_1542,George,PE,spatial_frequency,8,6,3,35-5;35-0;23-16;10-15,0,SpatialFrequencyBias,0-0,0,6,training,11-12,5-13;10-17;11-14;10-19;12-7;18-9,5-13,5.46,45,3,275.885647167
GEMS206,2018_Mar_19_1542,George,PE,spatial_frequency,8,6,3,35-5;35-0;23-16;10-15,0,SpatialFrequencyBias,0-0,0,7,training,5-13,1-10;11-10;9-7;4-10;2-8;2-13,2-13,2.16,45,0,282.479128989
GEMS206,2018_Mar_19_1542,George,PE,spatial_frequency,8,6,3,35-5;35-0;23-16;10-15,0,SpatialFrequencyBias,0-0,0,8,training,2-13,5-18;2-10;3-8;2-13;2-15;2-21,2-21,1.99,66,21,297.118450661
GEMS206,2018_Mar_19_1542,George,PE,spatial_frequency,8,6,3,35-5;35-0;23-16;10-15,0,SpatialFrequencyBias,0-0,0,9,training,2-21,3-23;1-24;5-23;3-21;2-28;2-27,2-27,3.26,78,12,304.961538609
GEMS206,2018_Mar_19_1542,George,PE,spatial_frequency,8,6,3,35-5;35-0;23-16;10-15,0,SpatialFrequencyBias,0-0,0,10,training,2-27,1-22;9-28;3-25;7-24;3-30;0-20,9-28,5.78,80,2,316.547827626
GEMS206,2018_Mar_19_1542,George,PE,spatial_frequency,8,6,3,35-5;35-0;23-16;10-15,0,SpatialFrequencyBias,0-0,0,11,training,9-28,9-28;13-25;15-27;5-32;9-35;15-28,9-35,2.54,91,11,322.370243661
GEMS206,2018_Mar_19_1542,George,PE,spatial_frequency,8,6,3,35-5;35-0;23-16;10-15,0,SpatialFrequencyBias,0-0,0,12,training,9-35,5-36;8-33;6-36;13-31;6-37;16-34,6-37,5.82,93,2,332.1988839
GEMS206,2018_Mar_19_1542,George,PE,spatial_frequency,8,6,3,35-5;35-0;23-16;10-15,0,SpatialFrequencyBias,0-0,0,13,training,6-37,8-39;8-30;10-31;7-33;1-36;8-34,8-39,2.13,95,2,338.505794
GEMS206,2018_Mar_19_1542,George,PE,spatial_frequency,8,6,3,35-5;35-0;23-16;10-15,0,SpatialFrequencyBias,0-0,0,14,training,8-39,12-35;11-43;5-34;2-34;8-43;10-38,11-43,4.08,98,3,346.768985184
GEMS206,2018_Mar_19_1542,George,PE,spatial_frequency,8,6,3,35-5;35-0;23-16;10-15,0,SpatialFrequencyBias,0-0,0,15,training,11-43,16-44;5-39;18-45;6-43;14-50;6-49,14-50,3.93,100,2,355.630809764
GEMS206,2018_Mar_19_1542,George,PE,spatial_frequency,8,6,3,35-5;35-0;23-16;10-15,0,SpatialFrequencyBias,0-0,0,16,training,14-50,19-44;21-53;13-46;20-49;16-43;17-44,21-53,2.65,99,-1,362.547028034
GEMS206,2018_Mar_19_1542,George,PE,spatial_frequency,8,6,3,35-5;35-0;23-16;10-15,0,SpatialFrequencyBias,0-0,0,17,training,21-53,17-50;26-49;22-50;19-58;16-49;20-46,19-58,2.89,97,-2,377.469364878
GEMS206,2018_Mar_19_1542,George,PE,spatial_frequency,8,6,3,35-5;35-0;23-16;10-15,0,SpatialFrequencyBias,0-0,0,18,training,19-58,17-61;19-63;17-65;16-54;20-59;21-65,16-54,1.53,99,2,387.583672258
GEMS206,2018_Mar_19_1542,George,PE,spatial_frequency,8,6,3,35-5;35-0;23-16;10-15,0,SpatialFrequencyBias,0-0,0,19,training,16-54,14-59;19-54;17-49;18-58;11-59;22-52,17-49,1.94,99,0,394.225788661
GEMS206,2018_Mar_19_1542,George,PE,spatial_frequency,8,6,3,35-5;35-0;23-16;10-15,0,SpatialFrequencyBias,0-0,0,20,training,17-49,12-43;16-49;18-42;23-52;17-41;21-47,16-49,2.87,99,0,400.550954293
GEMS206,2018_Mar_19_1542,George,PE,spatial_frequency,8,6,3,35-5;35-0;23-16;10-15,0,SpatialFrequencyBias,0-0,0,21,training,16-49,13-43;15-46;10-48;15-54;19-44;10-44,13-43,2.22,98,-1,410.187503001
GEMS206,2018_Mar_19_1542,George,PE,spatial_frequency,8,6,3,35-5;35-0;23-16;10-15,0,SpatialFrequencyBias,0-0,0,22,training,13-43,15-46;15-49;7-45;13-47;19-40;19-47,19-47,2.68,99,1,416.853329637
GEMS206,2018_Mar_19_1542,George,PE,spatial_frequency,8,6,3,35-5;35-0;23-16;10-15,0,SpatialFrequencyBias,0-0,0,23,training,19-47,23-53;13-50;24-44;16-54;16-51;15-50,13-50,3.35,100,1,424.845056839
GEMS206,2018_Mar_19_1542,George,PE,spatial_frequency,8,6,3,35-5;35-0;23-16;10-15,0,SpatialFrequencyBias,0-0,0,24,training,13-50,20-51;17-45;8-44;18-54;15-47;10-52,15-47,13.86,99,-1,442.899685157
GEMS206,2018_Mar_19_1542,George,PE,spatial_frequency,8,6,3,35-5;35-0;23-16;10-15,0,SpatialFrequencyBias,0-0,0,25,training,15-47,21-51;19-45;17-51;18-44;20-41;20-46,20-46,3.49,99,0,450.180069806
GEMS206,2018_Mar_19_1542,George,PE,spatial_frequency,8,6,3,35-5;35-0;23-16;10-15,0,SpatialFrequencyBias,0-0,0,26,training,20-46,19-53;18-48;23-49;26-51;17-39;13-49,18-48,3.06,99,0,496.257647177
GEMS206,2018_Mar_19_1542,George,PE,spatial_frequency,8,6,3,35-5;35-0;23-16;10-15,0,SpatialFrequencyBias,0-0,0,27,training,18-48,24-46;18-56;22-44;19-52;18-41;12-43,19-52,6.06,99,0,504.775965128
GEMS206,2018_Mar_19_1542,George,PE,spatial_frequency,8,6,3,35-5;35-0;23-16;10-15,0,SpatialFrequencyBias,0-0,0,28,training,19-52,15-52;15-56;24-52;23-56;15-54;15-57,15-52,1.46,99,0,509.489598264
GEMS206,2018_Mar_19_1542,George,PE,spatial_frequency,8,6,3,35-5;35-0;23-16;10-15,0,SpatialFrequencyBias,0-0,0,29,training,15-52,14-57;12-58;15-60;16-57;13-47;15-56,13-47,2.53,99,0,514.610489633
GEMS206,2018_Mar_19_1542,George,PE,spatial_frequency,8,6,3,35-5;35-0;23-16;10-15,1,SimpleHill,35-5,55,0,selected,35-5,35-0;32-12;32-2;42-6;35-1;29-3,32-12,3.08,64,9,542.116945265
GEMS206,2018_Mar_19_1542,George,PE,spatial_frequency,8,6,3,35-5;35-0;23-16;10-15,1,SimpleHill,35-5,55,1,selected,32-12,32-16;34-16;26-9;36-9;35-12;31-6,32-16,2.88,70,6,548.572490456
GEMS206,2018_Mar_19_1542,George,PE,spatial_frequency,8,6,3,35-5;35-0;23-16;10-15,1,SimpleHill,35-5,55,2,selected,32-16,28-18;34-23;33-22;37-15;27-12;40-16,40-16,3.24,74,4,555.357264858
GEMS206,2018_Mar_19_1542,George,PE,spatial_frequency,8,6,3,35-5;35-0;23-16;10-15,1,SimpleHill,35-5,55,3,selected,40-16,33-19;44-22;45-15;46-21;37-19;40-22,44-22,3.47,83,9,562.398616687
GEMS206,2018_Mar_19_1542,George,PE,spatial_frequency,8,6,3,35-5;35-0;23-16;10-15,1,SimpleHill,35-5,55,4,selected,44-22,47-28;50-24;46-20;41-19;47-20;40-28,47-28,3.26,90,7,569.216588553
GEMS206,2018_Mar_19_1542,George,PE,spatial_frequency,8,6,3,35-5;35-0;23-16;10-15,1,SimpleHill,35-5,55,5,selected,47-28,42-25;45-33;50-27;48-32;47-20;39-28,48-32,2.12,93,3,574.884862939
GEMS206,2018_Mar_19_1542,George,PE,spatial_frequency,8,6,3,35-5;35-0;23-16;10-15,1,SimpleHill,35-5,55,6,selected,48-32,44-27;48-40;44-28;51-29;52-28;42-35,48-40,1.79,97,4,580.251167539
GEMS206,2018_Mar_19_1542,George,PE,spatial_frequency,8,6,3,35-5;35-0;23-16;10-15,1,SimpleHill,35-5,55,7,selected,48-40,54-41;42-35;41-39;50-43;54-44;53-37,54-44,3.73,98,1,587.562920642
GEMS206,2018_Mar_19_1542,George,PE,spatial_frequency,8,6,3,35-5;35-0;23-16;10-15,1,SimpleHill,35-5,55,8,selected,54-44,55-48;51-46;53-42;58-40;48-47;51-40,58-40,1.74,96,-2,592.864462785
GEMS206,2018_Mar_19_1542,George,PE,spatial_frequency,8,6,3,35-5;35-0;23-16;10-15,1,SimpleHill,35-5,55,9,selected,58-40,58-42;66-40;51-43;53-41;63-36;58-33,51-43,5.0,99,3,601.424582615
GEMS206,2018_Mar_19_1542,George,PE,spatial_frequency,8,6,3,35-5;35-0;23-16;10-15,1,SimpleHill,35-5,55,10,selected,51-43,45-39;45-41;56-49;56-45;54-48;50-49,50-49,2.27,99,0,607.271634912
GEMS206,2018_Mar_19_1542,George,PE,spatial_frequency,8,6,3,35-5;35-0;23-16;10-15,1,SimpleHill,35-5,55,11,selected,50-49,53-50;50-48;48-49;51-46;46-47;54-44,48-49,3.98,99,0,614.830295759
GEMS206,2018_Mar_19_1542,George,PE,spatial_frequency,8,6,3,35-5;35-0;23-16;10-15,1,SimpleHill,35-5,55,12,selected,48-49,44-53;50-49;44-55;50-48;49-53;46-46,44-55,9.76,98,-1,628.14893918
GEMS206,2018_Mar_19_1542,George,PE,spatial_frequency,8,6,3,35-5;35-0;23-16;10-15,1,SimpleHill,35-5,55,13,selected,44-55,44-47;42-51;41-49;50-54;48-57;42-62,50-54,3.37,99,1,635.080696996
GEMS206,2018_Mar_19_1542,George,PE,spatial_frequency,8,6,3,35-5;35-0;23-16;10-15,1,SimpleHill,35-5,55,14,selected,50-54,55-57;46-50;47-48;54-56;52-48;51-59,54-56,6.91,98,-1,645.560277636
GEMS206,2018_Mar_19_1542,George,PE,spatial_frequency,8,6,3,35-5;35-0;23-16;10-15,1,SimpleHill,35-5,55,15,selected,54-56,54-50;59-55;59-54;55-58;54-51;48-54,54-50,2.27,99,1,651.40400897
GEMS206,2018_Mar_19_1542,George,PE,spatial_frequency,8,6,3,35-5;35-0;23-16;10-15,1,SimpleHill,35-5,55,16,selected,54-50,50-44;56-47;56-51;60-47;55-43;58-52,56-51,2.66,99,0,657.642439696
GEMS206,2018_Mar_19_1542,George,PE,spatial_frequency,8,6,3,35-5;35-0;23-16;10-15,1,SimpleHill,35-5,55,17,selected,56-51,62-46;53-55;50-56;52-54;53-48;53-57,53-48,1.68,99,0,662.894990676
GEMS206,2018_Mar_19_1542,George,PE,spatial_frequency,8,6,3,35-5;35-0;23-16;10-15,1,SimpleHill,35-5,55,18,selected,53-48,57-46;54-50;55-55;48-47;58-46;54-45,55-55,2.2,99,0,668.674473943
GEMS206,2018_Mar_19_1542,George,PE,spatial_frequency,8,6,3,35-5;35-0;23-16;10-15,1,SimpleHill,35-5,55,19,selected,55-55,54-54;54-59;50-49;53-56;51-53;51-51,54-59,2.44,98,-1,674.68070455
GEMS206,2018_Mar_19_1542,George,PE,spatial_frequency,8,6,3,35-5;35-0;23-16;10-15,1,SimpleHill,35-5,55,20,selected,54-59,52-63;54-52;57-58;55-57;49-53;58-60,55-57,2.51,98,0,680.762833001
GEMS206,2018_Mar_19_1542,George,PE,spatial_frequency,8,6,3,35-5;35-0;23-16;10-15,1,SimpleHill,35-5,55,21,selected,55-57,52-62;48-56;56-51;58-64;58-54;52-59,52-62,3.47,97,-1,687.81363749
GEMS206,2018_Mar_19_1542,George,PE,spatial_frequency,8,6,3,35-5;35-0;23-16;10-15,1,SimpleHill,35-5,55,22,selected,52-62,49-62;48-58;54-66;53-65;52-67;47-59,49-62,3.63,97,0,695.027631051
GEMS206,2018_Mar_19_1542,George,PE,spatial_frequency,8,6,3,35-5;35-0;23-16;10-15,1,SimpleHill,35-5,55,23,selected,49-62,51-57;51-64;46-56;49-62;54-56;51-61,46-56,2.11,98,1,700.709207854
GEMS206,2018_Mar_19_1542,George,PE,spatial_frequency,8,6,3,35-5;35-0;23-16;10-15,1,SimpleHill,35-5,55,24,selected,46-56,43-57;41-61;41-62;51-56;51-52;52-59,51-52,1.56,99,1,705.833048878
GEMS206,2018_Mar_19_1542,George,PE,spatial_frequency,8,6,3,35-5;35-0;23-16;10-15,1,SimpleHill,35-5,55,25,selected,51-52,45-56;49-52;51-52;55-47;45-57;52-59,45-56,4.21,98,-1,713.613606057
GEMS206,2018_Mar_19_1542,George,PE,spatial_frequency,8,6,3,35-5;35-0;23-16;10-15,1,SimpleHill,35-5,55,26,selected,45-56,39-55;38-57;45-61;37-56;47-53;46-49,39-55,2.41,97,-1,719.590449583
GEMS206,2018_Mar_19_1542,George,PE,spatial_frequency,8,6,3,35-5;35-0;23-16;10-15,1,SimpleHill,35-5,55,27,selected,39-55,38-57;37-59;40-56;39-52;41-52;32-52,37-59,3.33,95,-2,726.483137831
GEMS206,2018_Mar_19_1542,George,PE,spatial_frequency,8,6,3,35-5;35-0;23-16;10-15,1,SimpleHill,35-5,55,28,selected,37-59,38-57;41-63;37-62;43-62;37-58;34-53,38-57,1.52,96,1,731.577604579
GEMS206,2018_Mar_19_1542,George,PE,spatial_frequency,8,6,3,35-5;35-0;23-16;10-15,1,SimpleHill,35-5,55,29,selected,38-57,39-64;39-56;35-63;41-64;36-50;32-62,36-50,1.35,96,0,736.482109373
GEMS206,2018_Mar_19_1542,George,PE,spatial_frequency,8,6,3,35-5;35-0;23-16;10-15,1,SimpleHill,35-5,55,30,selected,36-50,36-49;42-51;37-54;37-52;32-50;41-55,37-52,2.33,96,0,742.376295015
GEMS206,2018_Mar_19_1542,George,PE,spatial_frequency,8,6,3,35-5;35-0;23-16;10-15,1,SimpleHill,35-5,55,31,selected,37-52,32-54;38-51;33-48;34-56;42-55;36-48,34-56,2.26,94,-2,748.207755913
GEMS206,2018_Mar_19_1542,George,PE,spatial_frequency,8,6,3,35-5;35-0;23-16;10-15,1,SimpleHill,35-5,55,32,selected,34-56,38-54;34-54;30-52;37-58;29-61;31-59,29-61,2.35,88,-6,754.118864541
GEMS206,2018_Mar_19_1542,George,PE,spatial_frequency,8,6,3,35-5;35-0;23-16;10-15,1,SimpleHill,35-5,55,33,selected,29-61,31-62;33-62;37-61;31-58;22-64;27-56,27-56,2.19,88,0,759.873945214
GEMS206,2018_Mar_19_1542,George,PE,spatial_frequency,8,6,3,35-5;35-0;23-16;10-15,1,SimpleHill,35-5,55,34,selected,27-56,28-60;25-62;33-52;29-53;25-59;31-52,29-53,1.69,91,3,765.139100168
GEMS206,2018_Mar_19_1542,George,PE,spatial_frequency,8,6,3,35-5;35-0;23-16;10-15,1,SimpleHill,35-5,55,35,selected,29-53,24-53;25-57;28-54;33-51;33-53;30-60,28-54,2.52,90,-1,771.221361457
GEMS206,2018_Mar_19_1542,George,PE,spatial_frequency,8,6,3,35-5;35-0;23-16;10-15,1,SimpleHill,35-5,55,36,selected,28-54,25-48;23-55;29-60;22-54;25-49;35-56,23-55,1.81,84,-6,776.583688263
GEMS206,2018_Mar_19_1542,George,PE,spatial_frequency,8,6,3,35-5;35-0;23-16;10-15,1,SimpleHill,35-5,55,37,selected,23-55,29-58;24-54;27-55;24-50;25-50;29-56,24-54,0.99,86,2,781.142063587
GEMS206,2018_Mar_19_1542,George,PE,spatial_frequency,8,6,3,35-5;35-0;23-16;10-15,1,SimpleHill,35-5,55,38,selected,24-54,24-56;25-47;22-53;20-49;23-58;22-57,22-57,2.42,83,-3,787.123254614
GEMS206,2018_Mar_19_1542,George,PE,spatial_frequency,8,6,3,35-5;35-0;23-16;10-15,1,SimpleHill,35-5,55,39,selected,22-57,26-56;20-58;23-53;26-54;19-63;23-60,23-53,6.16,85,2,796.852896232
GEMS206,2018_Mar_19_1542,George,PE,spatial_frequency,8,6,3,35-5;35-0;23-16;10-15,2,SimpleHill,35-0,45,0,selected,35-0,41-4;30-0;35-6;42-3;31-5;32-3,41-4,3.4,56,11,876.029617547
GEMS206,2018_Mar_19_1542,George,PE,spatial_frequency,8,6,3,35-5;35-0;23-16;10-15,2,SimpleHill,35-0,45,1,selected,41-4,46-8;47-0;43-7;35-0;38-1;38-10,38-10,2.0,65,9,881.604348653
GEMS206,2018_Mar_19_1542,George,PE,spatial_frequency,8,6,3,35-5;35-0;23-16;10-15,2,SimpleHill,35-0,45,2,selected,38-10,37-10;44-13;39-17;44-7;34-14;45-11,39-17,2.27,75,10,887.469281334
GEMS206,2018_Mar_19_1542,George,PE,spatial_frequency,8,6,3,35-5;35-0;23-16;10-15,2,SimpleHill,35-0,45,3,selected,39-17,36-17;37-15;44-17;41-14;44-15;34-22,34-22,1.71,79,4,892.750036331
GEMS206,2018_Mar_19_1542,George,PE,spatial_frequency,8,6,3,35-5;35-0;23-16;10-15,2,SimpleHill,35-0,45,4,selected,34-22,31-21;33-25;33-19;35-22;34-25;31-23,34-25,1.58,82,3,897.893370366
GEMS206,2018_Mar_19_1542,George,PE,spatial_frequency,8,6,3,35-5;35-0;23-16;10-15,2,SimpleHill,35-0,45,5,selected,34-25,27-22;30-31;31-26;37-18;37-28;35-31,35-31,1.62,88,6,903.078700897
GEMS206,2018_Mar_19_1542,George,PE,spatial_frequency,8,6,3,35-5;35-0;23-16;10-15,2,SimpleHill,35-0,45,6,selected,35-31,37-26;30-36;34-28;34-35;29-27;38-32,30-36,2.86,88,0,909.505999819
GEMS206,2018_Mar_19_1542,George,PE,spatial_frequency,8,6,3,35-5;35-0;23-16;10-15,2,SimpleHill,35-0,45,7,selected,30-36,27-41;34-30;25-36;35-38;36-39;27-33,27-41,3.65,87,-1,916.715457025
GEMS206,2018_Mar_19_1542,George,PE,spatial_frequency,8,6,3,35-5;35-0;23-16;10-15,2,SimpleHill,35-0,45,8,selected,27-41,27-40;20-43;25-38;29-44;24-35;24-42,29-44,7.81,90,3,928.096568477
GEMS206,2018_Mar_19_1542,George,PE,spatial_frequency,8,6,3,35-5;35-0;23-16;10-15,2,SimpleHill,35-0,45,9,selected,29-44,36-41;25-45;25-48;31-50;33-50;23-49,36-41,2.09,94,4,933.758306888
GEMS206,2018_Mar_19_1542,George,PE,spatial_frequency,8,6,3,35-5;35-0;23-16;10-15,2,SimpleHill,35-0,45,10,selected,36-41,39-47;32-43;35-41;35-35;43-42;34-34,35-35,2.2,91,-3,939.523778734
GEMS206,2018_Mar_19_1542,George,PE,spatial_frequency,8,6,3,35-5;35-0;23-16;10-15,2,SimpleHill,35-0,45,11,selected,35-35,32-37;40-32;31-35;35-34;33-38;32-31,33-38,3.64,91,0,946.725585402
GEMS206,2018_Mar_19_1542,George,PE,spatial_frequency,8,6,3,35-5;35-0;23-16;10-15,2,SimpleHill,35-0,45,12,selected,33-38,29-34;37-35;36-34;27-42;27-34;40-41,40-41,3.89,96,5,954.178298092
GEMS206,2018_Mar_19_1542,George,PE,spatial_frequency,8,6,3,35-5;35-0;23-16;10-15,2,SimpleHill,35-0,45,13,selected,40-41,46-44;45-39;39-36;39-37;42-36;36-40,46-44,3.14,98,2,960.884880545
GEMS206,2018_Mar_19_1542,George,PE,spatial_frequency,8,6,3,35-5;35-0;23-16;10-15,2,SimpleHill,35-0,45,14,selected,46-44,50-47;39-45;43-38;46-37;45-44;49-38,50-47,2.46,99,1,966.899995647
GEMS206,2018_Mar_19_1542,George,PE,spatial_frequency,8,6,3,35-5;35-0;23-16;10-15,2,SimpleHill,35-0,45,15,selected,50-47,52-42;48-51;49-50;45-52;46-42;56-43,48-51,3.48,99,0,973.953931604
GEMS206,2018_Mar_19_1542,George,PE,spatial_frequency,8,6,3,35-5;35-0;23-16;10-15,2,SimpleHill,35-0,45,16,selected,48-51,49-51;44-45;50-50;47-51;42-53;52-47,49-51,1.97,99,0,979.495678747
GEMS206,2018_Mar_19_1542,George,PE,spatial_frequency,8,6,3,35-5;35-0;23-16;10-15,2,SimpleHill,35-0,45,17,selected,49-51,45-54;50-58;49-49;41-51;55-54;47-45,49-49,2.1,99,0,985.146646676
GEMS206,2018_Mar_19_1542,George,PE,spatial_frequency,8,6,3,35-5;35-0;23-16;10-15,2,SimpleHill,35-0,45,18,selected,49-49,47-46;44-44;47-52;50-51;53-48;53-45,44-44,1.81,98,-1,990.536300124
GEMS206,2018_Mar_19_1542,George,PE,spatial_frequency,8,6,3,35-5;35-0;23-16;10-15,2,SimpleHill,35-0,45,19,selected,44-44,44-36;47-44;42-44;47-43;49-50;47-51,47-51,1.86,99,1,995.966237892
GEMS206,2018_Mar_19_1542,George,PE,spatial_frequency,8,6,3,35-5;35-0;23-16;10-15,2,SimpleHill,35-0,45,20,selected,47-51,50-44;46-50;42-49;50-49;47-53;42-55,42-55,1.34,98,-1,1000.87907406
GEMS206,2018_Mar_19_1542,George,PE,spatial_frequency,8,6,3,35-5;35-0;23-16;10-15,2,SimpleHill,35-0,45,21,selected,42-55,39-48;39-53;40-60;43-51;44-50;38-58,38-58,5.05,95,-3,1009.50545502
GEMS206,2018_Mar_19_1542,George,PE,spatial_frequency,8,6,3,35-5;35-0;23-16;10-15,2,SimpleHill,35-0,45,22,selected,38-58,32-54;39-61;38-54;36-51;36-62;45-57,32-54,1.7,93,-2,1014.75834498
GEMS206,2018_Mar_19_1542,George,PE,spatial_frequency,8,6,3,35-5;35-0;23-16;10-15,2,SimpleHill,35-0,45,23,selected,32-54,30-50;37-53;39-52;35-51;34-60;40-54,34-60,1.34,92,-1,1019.66754585
GEMS206,2018_Mar_19_1542,George,PE,spatial_frequency,8,6,3,35-5;35-0;23-16;10-15,2,SimpleHill,35-0,45,24,selected,34-60,37-57;41-63;28-58;36-63;33-58;37-61,33-58,1.41,92,0,1024.64338877
GEMS206,2018_Mar_19_1542,George,PE,spatial_frequency,8,6,3,35-5;35-0;23-16;10-15,2,SimpleHill,35-0,45,25,selected,33-58,30-60;38-59;27-61;31-52;38-56;33-51,33-51,1.65,94,2,1029.86263089
GEMS206,2018_Mar_19_1542,George,PE,spatial_frequency,8,6,3,35-5;35-0;23-16;10-15,2,SimpleHill,35-0,45,26,selected,33-51,33-43;39-48;34-44;38-54;26-51;33-51,38-54,99.36,96,2,1132.80590405
GEMS206,2018_Mar_19_1542,George,PE,spatial_frequency,8,6,3,35-5;35-0;23-16;10-15,2,SimpleHill,35-0,45,27,selected,38-54,37-61;35-54;33-52;39-58;42-51;41-52,35-54,2.26,95,-1,1138.64993339
GEMS206,2018_Mar_19_1542,George,PE,spatial_frequency,8,6,3,35-5;35-0;23-16;10-15,2,SimpleHill,35-0,45,28,selected,35-54,39-48;36-48;29-50;33-54;32-54;30-56,30-56,1.53,91,-4,1143.72693235
GEMS206,2018_Mar_19_1542,George,PE,spatial_frequency,8,6,3,35-5;35-0;23-16;10-15,2,SimpleHill,35-0,45,29,selected,30-56,29-50;27-54;30-62;37-59;28-63;24-57,27-54,0.76,89,-2,1148.06087333
GEMS206,2018_Mar_19_1542,George,PE,spatial_frequency,8,6,3,35-5;35-0;23-16;10-15,2,SimpleHill,35-0,45,30,selected,27-54,33-56;25-51;33-54;30-49;24-52;31-51,33-56,1.31,93,4,1152.95009337
GEMS206,2018_Mar_19_1542,George,PE,spatial_frequency,8,6,3,35-5;35-0;23-16;10-15,2,SimpleHill,35-0,45,31,selected,33-56,33-57;33-56;39-55;38-57;35-53;39-57,33-57,1.88,93,0,1158.38959455
GEMS206,2018_Mar_19_1542,George,PE,spatial_frequency,8,6,3,35-5;35-0;23-16;10-15,2,SimpleHill,35-0,45,32,selected,33-57,27-55;38-52;28-54;28-56;32-64;32-51,38-52,2.23,97,4,1164.20137006
GEMS206,2018_Mar_19_1542,George,PE,spatial_frequency,8,6,3,35-5;35-0;23-16;10-15,2,SimpleHill,35-0,45,33,selected,38-52,36-47;38-60;43-50;45-49;31-52;38-51,31-52,2.07,92,-5,1169.84357481
GEMS206,2018_Mar_19_1542,George,PE,spatial_frequency,8,6,3,35-5;35-0;23-16;10-15,2,SimpleHill,35-0,45,34,selected,31-52,38-53;28-59;30-52;36-52;35-55;34-55,28-59,2.07,88,-4,1175.49297268
GEMS206,2018_Mar_19_1542,George,PE,spatial_frequency,8,6,3,35-5;35-0;23-16;10-15,2,SimpleHill,35-0,45,35,selected,28-59,23-54;31-63;28-53;28-56;28-64;30-53,28-53,1.43,90,2,1180.50050607
GEMS206,2018_Mar_19_1542,George,PE,spatial_frequency,8,6,3,35-5;35-0;23-16;10-15,2,SimpleHill,35-0,45,36,selected,28-53,34-55;28-52;23-50;25-46;22-58;24-51,24-51,1.31,86,-4,1185.38205637
GEMS206,2018_Mar_19_1542,George,PE,spatial_frequency,8,6,3,35-5;35-0;23-16;10-15,2,SimpleHill,35-0,45,37,selected,24-51,22-54;23-57;22-52;27-55;25-57;17-54,17-54,1.82,77,-9,1190.78449848
GEMS206,2018_Mar_19_1542,George,PE,spatial_frequency,8,6,3,35-5;35-0;23-16;10-15,2,SimpleHill,35-0,45,38,selected,17-54,19-58;22-56;15-52;11-56;20-61;17-50,20-61,1.65,79,2,1196.01027466
GEMS206,2018_Mar_19_1542,George,PE,spatial_frequency,8,6,3,35-5;35-0;23-16;10-15,2,SimpleHill,35-0,45,39,selected,20-61,24-67;17-60;19-56;23-58;23-61;23-67,23-61,1.38,83,4,1200.96599334
GEMS206,2018_Mar_19_1542,George,PE,spatial_frequency,8,6,3,35-5;35-0;23-16;10-15,3,SimpleHill,23-16,62,0,selected,23-16,22-18;25-17;20-22;26-9;27-21;28-20,22-18,1.92,63,1,1214.09082697
GEMS206,2018_Mar_19_1542,George,PE,spatial_frequency,8,6,3,35-5;35-0;23-16;10-15,3,SimpleHill,23-16,62,1,selected,22-18,29-17;20-25;20-18;22-14;16-13;21-13,29-17,1.72,69,6,1219.38484533
GEMS206,2018_Mar_19_1542,George,PE,spatial_frequency,8,6,3,35-5;35-0;23-16;10-15,3,SimpleHill,23-16,62,2,selected,29-17,26-11;23-12;30-20;32-13;31-20;26-14,31-20,1.72,74,5,1224.65132227
GEMS206,2018_Mar_19_1542,George,PE,spatial_frequency,8,6,3,35-5;35-0;23-16;10-15,3,SimpleHill,23-16,62,3,selected,31-20,28-19;33-23;24-17;37-17;32-15;37-21,28-19,1.56,71,-3,1229.76076616
GEMS206,2018_Mar_19_1542,George,PE,spatial_frequency,8,6,3,35-5;35-0;23-16;10-15,3,SimpleHill,23-16,62,4,selected,28-19,28-13;24-22;26-12;22-22;27-25;30-22,27-25,1.05,76,5,1234.3833521
GEMS206,2018_Mar_19_1542,George,PE,spatial_frequency,8,6,3,35-5;35-0;23-16;10-15,3,SimpleHill,23-16,62,5,selected,27-25,21-20;27-21;24-26;21-26;21-27;24-20,21-26,1.74,71,-5,1239.67187895
GEMS206,2018_Mar_19_1542,George,PE,spatial_frequency,8,6,3,35-5;35-0;23-16;10-15,3,SimpleHill,23-16,62,6,selected,21-26,22-33;28-25;24-19;27-30;19-32;22-31,22-33,1.2,78,7,1244.44772725
GEMS206,2018_Mar_19_1542,George,PE,spatial_frequency,8,6,3,35-5;35-0;23-16;10-15,3,SimpleHill,23-16,62,7,selected,22-33,18-38;26-33;27-33;29-32;24-28;29-33,18-38,1.51,76,-2,1249.5360703
GEMS206,2018_Mar_19_1542,George,PE,spatial_frequency,8,6,3,35-5;35-0;23-16;10-15,3,SimpleHill,23-16,62,8,selected,18-38,19-38;14-38;13-32;25-39;11-41;23-40,11-41,2.87,67,-9,1255.97160393
GEMS206,2018_Mar_19_1542,George,PE,spatial_frequency,8,6,3,35-5;35-0;23-16;10-15,3,SimpleHill,23-16,62,9,selected,11-41,11-40;15-40;12-47;11-42;12-42;12-37,12-47,2.51,70,3,1262.04207844
GEMS206,2018_Mar_19_1542,George,PE,spatial_frequency,8,6,3,35-5;35-0;23-16;10-15,3,SimpleHill,23-16,62,10,selected,12-47,5-48;10-44;10-42;12-44;13-51;16-43,13-51,2.32,72,2,1267.92749898
GEMS206,2018_Mar_19_1542,George,PE,spatial_frequency,8,6,3,35-5;35-0;23-16;10-15,3,SimpleHill,23-16,62,11,selected,13-51,8-46;12-53;17-57;18-49;18-47;9-49,9-49,4.14,66,-6,1275.64791136
GEMS206,2018_Mar_19_1542,George,PE,spatial_frequency,8,6,3,35-5;35-0;23-16;10-15,3,SimpleHill,23-16,62,12,selected,9-49,12-51;11-44;7-55;13-44;7-52;3-44,7-55,1.51,62,-4,1280.73633028
GEMS206,2018_Mar_19_1542,George,PE,spatial_frequency,8,6,3,35-5;35-0;23-16;10-15,3,SimpleHill,23-16,62,13,selected,7-55,14-58;1-57;6-56;6-62;11-56;1-58,1-57,1.69,51,-11,1285.99159852
GEMS206,2018_Mar_19_1542,George,PE,spatial_frequency,8,6,3,35-5;35-0;23-16;10-15,3,SimpleHill,23-16,62,14,selected,1-57,5-51;4-55;4-57;4-54;2-58;5-58,5-51,1.89,59,8,1291.4208116
GEMS206,2018_Mar_19_1542,George,PE,spatial_frequency,8,6,3,35-5;35-0;23-16;10-15,3,SimpleHill,23-16,62,15,selected,5-51,0-57;6-45;3-58;1-54;11-55;11-54,6-45,1.1,60,1,1296.09634729
GEMS206,2018_Mar_19_1542,George,PE,spatial_frequency,8,6,3,35-5;35-0;23-16;10-15,3,SimpleHill,23-16,62,16,selected,6-45,10-51;12-45;3-47;1-39;11-40;11-49,11-40,1.4,67,7,1301.06507679
GEMS206,2018_Mar_19_1542,George,PE,spatial_frequency,8,6,3,35-5;35-0;23-16;10-15,3,SimpleHill,23-16,62,17,selected,11-40,11-36;12-36;7-41;6-37;11-44;12-44,12-44,1.98,70,3,1306.60696029
GEMS206,2018_Mar_19_1542,George,PE,spatial_frequency,8,6,3,35-5;35-0;23-16;10-15,3,SimpleHill,23-16,62,18,selected,12-44,9-38;18-43;15-37;7-40;12-46;16-45,16-45,2.84,76,6,1313.02472621
GEMS206,2018_Mar_19_1542,George,PE,spatial_frequency,8,6,3,35-5;35-0;23-16;10-15,3,SimpleHill,23-16,62,19,selected,16-45,22-42;18-39;19-49;11-49;22-45;19-46,19-46,1.67,80,4,1318.27370623
GEMS206,2018_Mar_19_1542,George,PE,spatial_frequency,8,6,3,35-5;35-0;23-16;10-15,3,SimpleHill,23-16,62,20,selected,19-46,20-49;22-48;25-47;20-39;26-46;26-43,20-49,6.51,81,1,1328.3614219
GEMS206,2018_Mar_19_1542,George,PE,spatial_frequency,8,6,3,35-5;35-0;23-16;10-15,3,SimpleHill,23-16,62,21,selected,20-49,19-46;26-45;14-49;16-46;19-53;18-44,19-53,1.34,80,-1,1333.25384768
GEMS206,2018_Mar_19_1542,George,PE,spatial_frequency,8,6,3,35-5;35-0;23-16;10-15,3,SimpleHill,23-16,62,22,selected,19-53,15-57;22-48;14-52;22-51;25-51;15-56,14-52,1.67,74,-6,1338.49322492
GEMS206,2018_Mar_19_1542,George,PE,spatial_frequency,8,6,3,35-5;35-0;23-16;10-15,3,SimpleHill,23-16,62,23,selected,14-52,13-54;21-55;18-53;11-55;10-46;15-54,10-46,1.11,67,-7,1343.200332
GEMS206,2018_Mar_19_1542,George,PE,spatial_frequency,8,6,3,35-5;35-0;23-16;10-15,3,SimpleHill,23-16,62,24,selected,10-46,11-41;15-44;3-49;12-45;12-44;15-51,15-44,1.02,74,7,1347.78041954
GEMS206,2018_Mar_19_1542,George,PE,spatial_frequency,8,6,3,35-5;35-0;23-16;10-15,3,SimpleHill,23-16,62,25,selected,15-44,20-43;14-37;20-40;11-46;9-46;19-43,9-46,1.56,66,-8,1352.9040986
GEMS206,2018_Mar_19_1542,George,PE,spatial_frequency,8,6,3,35-5;35-0;23-16;10-15,3,SimpleHill,23-16,62,26,selected,9-46,9-52;2-46;9-42;9-49;11-41;10-42,9-52,1.12,66,0,1357.59413353
GEMS206,2018_Mar_19_1542,George,PE,spatial_frequency,8,6,3,35-5;35-0;23-16;10-15,3,SimpleHill,23-16,62,27,selected,9-52,4-51;13-56;11-47;5-50;10-50;10-54,13-56,1.47,71,5,1362.62960173
GEMS206,2018_Mar_19_1542,George,PE,spatial_frequency,8,6,3,35-5;35-0;23-16;10-15,3,SimpleHill,23-16,62,28,selected,13-56,13-61;19-55;16-50;18-59;19-60;19-56,19-55,1.6,80,9,1367.80344574
GEMS206,2018_Mar_19_1542,George,PE,spatial_frequency,8,6,3,35-5;35-0;23-16;10-15,3,SimpleHill,23-16,62,29,selected,19-55,22-56;21-54;16-59;23-56;24-57;15-59,15-59,2.18,73,-7,1373.566514
GEMS206,2018_Mar_19_1542,George,PE,spatial_frequency,8,6,3,35-5;35-0;23-16;10-15,3,SimpleHill,23-16,62,30,selected,15-59,22-57;14-64;17-64;21-62;15-65;15-52,15-52,1.23,75,2,1378.3630531
GEMS206,2018_Mar_19_1542,George,PE,spatial_frequency,8,6,3,35-5;35-0;23-16;10-15,3,SimpleHill,23-16,62,31,selected,15-52,12-50;21-48;11-54;14-47;17-54;21-51,17-54,1.92,77,2,1383.85966844
GEMS206,2018_Mar_19_1542,George,PE,spatial_frequency,8,6,3,35-5;35-0;23-16;10-15,3,SimpleHill,23-16,62,32,selected,17-54,13-50;19-48;16-59;17-49;22-56;14-58,14-58,1.67,72,-5,1389.07059135
GEMS206,2018_Mar_19_1542,George,PE,spatial_frequency,8,6,3,35-5;35-0;23-16;10-15,3,SimpleHill,23-16,62,33,selected,14-58,8-61;14-53;17-59;10-57;16-57;13-51,17-59,1.39,76,4,1394.02776645
GEMS206,2018_Mar_19_1542,George,PE,spatial_frequency,8,6,3,35-5;35-0;23-16;10-15,3,SimpleHill,23-16,62,34,selected,17-59,24-59;21-58;19-57;17-52;15-59;20-64,19-57,0.97,79,3,1398.56191747
GEMS206,2018_Mar_19_1542,George,PE,spatial_frequency,8,6,3,35-5;35-0;23-16;10-15,3,SimpleHill,23-16,62,35,selected,19-57,20-58;20-54;24-56;23-53;13-52;23-57,24-56,3.08,85,6,1405.21729564
GEMS206,2018_Mar_19_1542,George,PE,spatial_frequency,8,6,3,35-5;35-0;23-16;10-15,3,SimpleHill,23-16,62,36,selected,24-56,24-53;18-51;20-53;24-60;21-55;26-53,26-53,1.79,88,3,1410.57905556
GEMS206,2018_Mar_19_1542,George,PE,spatial_frequency,8,6,3,35-5;35-0;23-16;10-15,3,SimpleHill,23-16,62,37,selected,26-53,27-60;25-46;26-59;20-56;19-53;23-56,23-56,1.29,84,-4,1415.43717763
GEMS206,2018_Mar_19_1542,George,PE,spatial_frequency,8,6,3,35-5;35-0;23-16;10-15,3,SimpleHill,23-16,62,38,selected,23-56,25-51;29-51;17-52;29-56;29-57;18-54,25-51,0.81,87,3,1419.82424697
GEMS206,2018_Mar_19_1542,George,PE,spatial_frequency,8,6,3,35-5;35-0;23-16;10-15,3,SimpleHill,23-16,62,39,selected,25-51,26-48;22-54;20-55;24-47;25-43;23-54,20-55,1.6,81,-6,1425.00323582
GEMS206,2018_Mar_19_1542,George,PE,spatial_frequency,8,6,3,35-5;35-0;23-16;10-15,4,SimpleHill,10-15,43,0,selected,10-15,15-20;8-9;6-21;5-16;16-12;8-10,15-20,2.98,57,14,1599.74454482
GEMS206,2018_Mar_19_1542,George,PE,spatial_frequency,8,6,3,35-5;35-0;23-16;10-15,4,SimpleHill,10-15,43,1,selected,15-20,12-19;23-20;21-25;18-13;13-18;11-20,21-25,1.77,70,13,1605.09419819
GEMS206,2018_Mar_19_1542,George,PE,spatial_frequency,8,6,3,35-5;35-0;23-16;10-15,4,SimpleHill,10-15,43,2,selected,21-25,16-29;15-28;20-24;20-26;16-19;16-23,16-29,0.97,68,-2,1609.65288913
GEMS206,2018_Mar_19_1542,George,PE,spatial_frequency,8,6,3,35-5;35-0;23-16;10-15,4,SimpleHill,10-15,43,3,selected,16-29,13-31;19-25;17-30;11-31;20-35;22-25,20-35,1.31,77,9,1614.53431395
GEMS206,2018_Mar_19_1542,George,PE,spatial_frequency,8,6,3,35-5;35-0;23-16;10-15,4,SimpleHill,10-15,43,4,selected,20-35,22-30;28-35;24-30;22-42;13-35;16-32,22-42,2.16,83,6,1620.25164896
GEMS206,2018_Mar_19_1542,George,PE,spatial_frequency,8,6,3,35-5;35-0;23-16;10-15,4,SimpleHill,10-15,43,5,selected,22-42,24-45;27-41;29-45;16-38;17-36;20-41,29-45,2.62,90,7,1626.43666388
GEMS206,2018_Mar_19_1542,George,PE,spatial_frequency,8,6,3,35-5;35-0;23-16;10-15,4,SimpleHill,10-15,43,6,selected,29-45,22-48;28-45;25-42;32-46;29-38;26-48,22-48,2.12,84,-6,1632.117701
GEMS206,2018_Mar_19_1542,George,PE,spatial_frequency,8,6,3,35-5;35-0;23-16;10-15,4,SimpleHill,10-15,43,7,selected,22-48,20-43;17-42;25-45;19-45;19-44;19-54,19-45,2.33,80,-4,1638.01781989
GEMS206,2018_Mar_19_1542,George,PE,spatial_frequency,8,6,3,35-5;35-0;23-16;10-15,4,SimpleHill,10-15,43,8,selected,19-45,12-44;19-40;26-47;22-44;19-39;16-42,16-42,2.68,75,-5,1644.26265087
GEMS206,2018_Mar_19_1542,George,PE,spatial_frequency,8,6,3,35-5;35-0;23-16;10-15,4,SimpleHill,10-15,43,9,selected,16-42,13-39;21-42;14-35;22-40;15-43;10-45,10-45,1.09,67,-8,1648.91574549
GEMS206,2018_Mar_19_1542,George,PE,spatial_frequency,8,6,3,35-5;35-0;23-16;10-15,4,SimpleHill,10-15,43,10,selected,10-45,14-39;13-39;6-50;10-47;3-48;16-41,6-50,1.33,61,-6,1653.81438619
GEMS206,2018_Mar_19_1542,George,PE,spatial_frequency,8,6,3,35-5;35-0;23-16;10-15,4,SimpleHill,10-15,43,11,selected,6-50,7-54;7-57;4-49;5-47;10-44;11-48,7-54,1.42,62,1,1658.7924896
GEMS206,2018_Mar_19_1542,George,PE,spatial_frequency,8,6,3,35-5;35-0;23-16;10-15,4,SimpleHill,10-15,43,12,selected,7-54,8-49;9-57;7-58;0-55;11-51;11-53,9-57,2.46,65,3,1664.81837966
GEMS206,2018_Mar_19_1542,George,PE,spatial_frequency,8,6,3,35-5;35-0;23-16;10-15,4,SimpleHill,10-15,43,13,selected,9-57,8-60;5-62;16-56;16-54;7-56;16-59,7-56,1.23,62,-3,1669.6149991
GEMS206,2018_Mar_19_1542,George,PE,spatial_frequency,8,6,3,35-5;35-0;23-16;10-15,4,SimpleHill,10-15,43,14,selected,7-56,8-54;5-58;13-57;7-53;9-56;2-50,13-57,0.98,71,9,1674.18275186
GEMS206,2018_Mar_19_1542,George,PE,spatial_frequency,8,6,3,35-5;35-0;23-16;10-15,4,SimpleHill,10-15,43,15,selected,13-57,14-51;13-58;13-55;13-53;17-60;10-64,13-58,0.64,71,0,1678.38788302
GEMS206,2018_Mar_19_1542,George,PE,spatial_frequency,8,6,3,35-5;35-0;23-16;10-15,4,SimpleHill,10-15,43,16,selected,13-58,16-52;14-56;7-57;18-55;12-56;14-63,14-56,0.67,73,2,1682.63555162
GEMS206,2018_Mar_19_1542,George,PE,spatial_frequency,8,6,3,35-5;35-0;23-16;10-15,4,SimpleHill,10-15,43,17,selected,14-56,13-56;14-57;17-49;19-61;17-51;10-61,10-61,1.65,65,-8,1687.8536747
GEMS206,2018_Mar_19_1542,George,PE,spatial_frequency,8,6,3,35-5;35-0;23-16;10-15,4,SimpleHill,10-15,43,18,selected,10-61,4-57;5-59;12-60;8-67;13-58;9-60,5-59,0.59,57,-8,1692.02677832
GEMS206,2018_Mar_19_1542,George,PE,spatial_frequency,8,6,3,35-5;35-0;23-16;10-15,4,SimpleHill,10-15,43,19,selected,5-59,7-52;1-64;8-55;1-65;9-54;9-59,9-59,1.62,64,7,1697.22093701
GEMS206,2018_Mar_19_1542,George,PE,spatial_frequency,8,6,3,35-5;35-0;23-16;10-15,4,SimpleHill,10-15,43,20,selected,9-59,5-56;13-60;13-59;3-64;13-53;13-56,13-56,0.71,71,7,1701.50604559
GEMS206,2018_Mar_19_1542,George,PE,spatial_frequency,8,6,3,35-5;35-0;23-16;10-15,4,SimpleHill,10-15,43,21,selected,13-56,17-54;20-57;16-50;14-59;15-49;7-56,16-50,0.75,76,5,1705.81442044
GEMS206,2018_Mar_19_1542,George,PE,spatial_frequency,8,6,3,35-5;35-0;23-16;10-15,4,SimpleHill,10-15,43,22,selected,16-50,16-52;21-55;17-50;17-45;20-52;12-52,21-55,0.63,82,6,1710.01187352
GEMS206,2018_Mar_19_1542,George,PE,spatial_frequency,8,6,3,35-5;35-0;23-16;10-15,4,SimpleHill,10-15,43,23,selected,21-55,26-59;14-53;14-57;26-58;21-57;16-55,26-59,0.87,86,4,1714.4391398
GEMS206,2018_Mar_19_1542,George,PE,spatial_frequency,8,6,3,35-5;35-0;23-16;10-15,4,SimpleHill,10-15,43,24,selected,26-59,21-54;28-64;33-57;25-53;22-58;28-66,28-64,0.71,86,0,1718.73523716
GEMS206,2018_Mar_19_1542,George,PE,spatial_frequency,8,6,3,35-5;35-0;23-16;10-15,4,SimpleHill,10-15,43,25,selected,28-64,34-68;29-59;32-64;32-68;22-59;31-59,34-68,0.61,88,2,1722.90243027
GEMS206,2018_Mar_19_1542,George,PE,spatial_frequency,8,6,3,35-5;35-0;23-16;10-15,4,SimpleHill,10-15,43,26,selected,34-68,35-66;38-67;31-66;33-68;34-67;33-63,35-66,0.66,90,2,1727.13089971
GEMS206,2018_Mar_19_1542,George,PE,spatial_frequency,8,6,3,35-5;35-0;23-16;10-15,4,SimpleHill,10-15,43,27,selected,35-66,40-63;38-69;34-67;33-70;34-64;29-66,33-70,0.82,86,-4,1731.51188985
GEMS206,2018_Mar_19_1542,George,PE,spatial_frequency,8,6,3,35-5;35-0;23-16;10-15,4,SimpleHill,10-15,43,28,selected,33-70,35-66;32-67;35-64;30-67;40-70;39-69,32-67,0.43,87,1,1735.51228132
GEMS206,2018_Mar_19_1542,George,PE,spatial_frequency,8,6,3,35-5;35-0;23-16;10-15,4,SimpleHill,10-15,43,29,selected,32-67,33-62;34-62;33-66;37-68;37-61;37-64,33-66,0.47,89,2,1739.56677776
GEMS206,2018_Mar_19_1542,George,PE,spatial_frequency,8,6,3,35-5;35-0;23-16;10-15,4,SimpleHill,10-15,43,30,selected,33-66,34-70;34-68;32-63;26-63;33-62;30-68,32-63,1.13,90,1,1744.27730696
GEMS206,2018_Mar_19_1542,George,PE,spatial_frequency,8,6,3,35-5;35-0;23-16;10-15,4,SimpleHill,10-15,43,31,selected,32-63,38-58;37-57;27-67;29-67;27-58;34-66,38-58,0.67,95,5,1748.50261132
GEMS206,2018_Mar_19_1542,George,PE,spatial_frequency,8,6,3,35-5;35-0;23-16;10-15,4,SimpleHill,10-15,43,32,selected,38-58,39-62;36-56;40-53;32-62;36-54;36-61,39-62,0.52,94,-1,1752.59186631
GEMS206,2018_Mar_19_1542,George,PE,spatial_frequency,8,6,3,35-5;35-0;23-16;10-15,4,SimpleHill,10-15,43,33,selected,39-62,40-58;42-60;39-59;37-69;36-65;37-67,39-59,0.65,95,1,1756.79791549
GEMS206,2018_Mar_19_1542,George,PE,spatial_frequency,8,6,3,35-5;35-0;23-16;10-15,4,SimpleHill,10-15,43,34,selected,39-59,46-60;35-55;43-57;43-64;39-59;33-64,35-55,0.47,95,0,1760.83805097
GEMS206,2018_Mar_19_1542,George,PE,spatial_frequency,8,6,3,35-5;35-0;23-16;10-15,4,SimpleHill,10-15,43,35,selected,35-55,30-59;36-51;42-58;33-62;30-55;32-48,42-58,1.48,97,2,1765.90633861
GEMS206,2018_Mar_19_1542,George,PE,spatial_frequency,8,6,3,35-5;35-0;23-16;10-15,4,SimpleHill,10-15,43,36,selected,42-58,43-63;48-56;41-61;43-65;44-51;39-64,43-65,2.52,94,-3,1772.00007106
GEMS206,2018_Mar_19_1542,George,PE,spatial_frequency,8,6,3,35-5;35-0;23-16;10-15,4,SimpleHill,10-15,43,37,selected,43-65,42-60;44-68;39-65;36-65;43-67;48-59,44-68,0.84,92,-2,1776.41363128
GEMS206,2018_Mar_19_1542,George,PE,spatial_frequency,8,6,3,35-5;35-0;23-16;10-15,4,SimpleHill,10-15,43,38,selected,44-68,41-65;41-61;50-64;45-68;44-60;42-63,41-61,0.88,95,3,1780.85449317
GEMS206,2018_Mar_19_1542,George,PE,spatial_frequency,8,6,3,35-5;35-0;23-16;10-15,4,SimpleHill,10-15,43,39,selected,41-61,45-59;43-56;39-67;40-64;42-68;44-56,39-67,1.05,91,-4,1785.46438199
