subj_id,date,computer,experimenter,version,generation,inherit_from,sight_radius,n_gabors,block_ix,landscape_name,starting_pos,starting_score,trial,pos,stims,selected,rt,score,delta,exp_time
GEMS211,2018_Oct_24_1708,George,VC,1.3,1,,10,6,1,SimpleHill,0-0,0,0,0-0,0-7;7-0;4-4;9-4;1-6;3-5,9-4,6.22,24,24,166.315511768
GEMS211,2018_Oct_24_1708,George,VC,1.3,1,,10,6,1,SimpleHill,0-0,0,1,9-4,13-8;9-4;1-5;12-9;13-7;6-11,13-7,14.6,35,11,185.006192185
GEMS211,2018_Oct_24_1708,George,VC,1.3,1,,10,6,1,SimpleHill,0-0,0,2,13-7,11-16;17-11;9-2;12-13;13-15;8-15,9-2,3.24,20,-15,192.31125326
GEMS211,2018_Oct_24_1708,George,VC,1.3,1,,10,6,1,SimpleHill,0-0,0,3,9-2,11-1;10-3;11-4;11-11;10-2;14-8,11-11,3.66,39,19,200.04706573
GEMS211,2018_Oct_24_1708,George,VC,1.3,1,,10,6,1,SimpleHill,0-0,0,4,11-11,15-2;5-8;16-11;10-13;12-18;20-10,12-18,4.32,50,11,208.430415297
GEMS211,2018_Oct_24_1708,George,VC,1.3,1,,10,6,1,SimpleHill,0-0,0,5,12-18,11-11;12-13;14-15;13-17;21-21;10-13,14-15,5.14,49,-1,217.657347606
GEMS211,2018_Oct_24_1708,George,VC,1.3,1,,10,6,1,SimpleHill,0-0,0,6,14-15,19-7;19-22;10-12;12-17;10-11;10-15,12-17,1.83,49,0,223.556381856
GEMS211,2018_Oct_24_1708,George,VC,1.3,1,,10,6,1,SimpleHill,0-0,0,7,12-17,11-8;19-18;20-20;16-21;5-19;6-11,19-18,2.69,60,11,230.319665926
GEMS211,2018_Oct_24_1708,George,VC,1.3,1,,10,6,1,SimpleHill,0-0,0,8,19-18,16-20;20-18;15-24;20-20;14-26;20-26,20-20,10.11,64,4,244.490421078
GEMS211,2018_Oct_24_1708,George,VC,1.3,1,,10,6,1,SimpleHill,0-0,0,9,20-20,23-13;26-12;25-28;28-17;19-15;23-17,23-17,5.27,63,-1,253.839478838
GEMS211,2018_Oct_24_1708,George,VC,1.3,1,,10,6,1,SimpleHill,0-0,0,10,23-17,22-10;22-22;15-13;18-14;24-22;15-16,24-22,4.06,70,7,261.949695576
GEMS211,2018_Oct_24_1708,George,VC,1.3,1,,10,6,1,SimpleHill,0-0,0,11,24-22,29-23;31-17;29-24;21-14;19-27;23-29,19-27,6.84,70,0,272.848921561
GEMS211,2018_Oct_24_1708,George,VC,1.3,1,,10,6,1,SimpleHill,0-0,0,12,19-27,15-35;27-31;16-23;22-21;25-28;12-24,27-31,2.91,82,12,279.838490714
GEMS211,2018_Oct_24_1708,George,VC,1.3,1,,10,6,1,SimpleHill,0-0,0,13,27-31,22-34;29-39;26-26;29-31;20-33;24-22,24-22,5.11,70,-12,289.024177531
GEMS211,2018_Oct_24_1708,George,VC,1.3,1,,10,6,1,SimpleHill,0-0,0,14,24-22,25-13;33-24;21-16;26-17;21-26;23-22,33-24,0.94,80,10,294.036285662
GEMS211,2018_Oct_24_1708,George,VC,1.3,1,,10,6,1,SimpleHill,0-0,0,15,33-24,26-17;27-29;26-22;37-20;42-23;41-27,27-29,1.48,80,0,299.575663895
GEMS211,2018_Oct_24_1708,George,VC,1.3,1,,10,6,1,SimpleHill,0-0,0,16,27-29,22-21;24-35;29-27;30-36;21-37;32-36,29-27,3.98,80,0,307.634396349
GEMS211,2018_Oct_24_1708,George,VC,1.3,1,,10,6,1,SimpleHill,0-0,0,17,29-27,28-36;30-29;26-30;30-21;29-32;35-25,30-21,3.68,75,-5,315.364154273
GEMS211,2018_Oct_24_1708,George,VC,1.3,1,,10,6,1,SimpleHill,0-0,0,18,30-21,24-23;27-21;26-14;35-28;30-14;26-17,27-21,4.39,72,-3,323.846229265
GEMS211,2018_Oct_24_1708,George,VC,1.3,1,,10,6,1,SimpleHill,0-0,0,19,27-21,29-12;28-25;35-27;30-14;23-28;30-28,23-28,5.49,75,3,333.399613136
GEMS211,2018_Oct_24_1708,George,VC,1.3,1,,10,6,1,SimpleHill,0-0,0,20,23-28,28-28;15-32;14-28;14-24;17-29;26-30,26-30,2.14,80,5,339.631018095
GEMS211,2018_Oct_24_1708,George,VC,1.3,1,,10,6,1,SimpleHill,0-0,0,21,26-30,28-32;29-35;32-29;29-38;27-32;30-32,32-29,3.2,84,4,346.887925126
GEMS211,2018_Oct_24_1708,George,VC,1.3,1,,10,6,1,SimpleHill,0-0,0,22,32-29,39-33;32-26;40-27;24-34;34-21;34-29,24-34,2.61,81,-3,353.570086607
GEMS211,2018_Oct_24_1708,George,VC,1.3,1,,10,6,1,SimpleHill,0-0,0,23,24-34,24-41;29-27;33-33;32-33;15-37;30-32,24-41,2.02,84,3,359.649773903
GEMS211,2018_Oct_24_1708,George,VC,1.3,1,,10,6,1,SimpleHill,0-0,0,24,24-41,17-38;25-47;19-38;15-37;31-45;24-50,31-45,1.52,92,8,365.255251194
GEMS211,2018_Oct_24_1708,George,VC,1.3,1,,10,6,1,SimpleHill,0-0,0,25,31-45,38-43;39-47;24-40;37-50;34-46;38-42,37-50,1.11,96,4,370.436275547
GEMS211,2018_Oct_24_1708,George,VC,1.3,1,,10,6,1,SimpleHill,0-0,0,26,37-50,40-52;39-53;46-47;33-43;44-44;42-55,42-55,3.19,98,2,377.691831149
GEMS211,2018_Oct_24_1708,George,VC,1.3,1,,10,6,1,SimpleHill,0-0,0,27,42-55,41-52;38-51;44-47;43-55;51-52;35-51,41-52,3.55,98,0,385.320353804
GEMS211,2018_Oct_24_1708,George,VC,1.3,1,,10,6,1,SimpleHill,0-0,0,28,41-52,46-56;47-60;34-50;42-49;45-55;41-57,47-60,0.76,97,-1,390.14109316
GEMS211,2018_Oct_24_1708,George,VC,1.3,1,,10,6,1,SimpleHill,0-0,0,29,47-60,53-68;40-58;52-52;45-52;54-54;53-63,52-52,0.71,99,2,394.934539846
GEMS211,2018_Oct_24_1708,George,VC,1.3,1,,10,6,1,SimpleHill,0-0,0,30,52-52,53-44;58-49;58-47;45-45;57-57;46-52,45-45,0.91,99,0,399.905582698
GEMS211,2018_Oct_24_1708,George,VC,1.3,1,,10,6,1,SimpleHill,0-0,0,31,45-45,49-37;45-39;39-52;45-53;54-48;44-39,39-52,0.99,97,-2,404.953901909
GEMS211,2018_Oct_24_1708,George,VC,1.3,1,,10,6,1,SimpleHill,0-0,0,32,39-52,42-53;31-56;36-43;32-50;47-46;33-57,33-57,1.72,93,-4,410.743817017
GEMS211,2018_Oct_24_1708,George,VC,1.3,1,,10,6,1,SimpleHill,0-0,0,33,33-57,41-63;37-66;25-52;39-60;25-54;27-54,37-66,1.55,91,-2,416.368648369
GEMS211,2018_Oct_24_1708,George,VC,1.3,1,,10,6,1,SimpleHill,0-0,0,34,37-66,38-67;45-65;46-62;42-62;40-69;28-66,42-62,3.29,95,4,423.730294718
GEMS211,2018_Oct_24_1708,George,VC,1.3,1,,10,6,1,SimpleHill,0-0,0,35,42-62,43-54;45-56;46-67;50-59;42-62;49-65,42-62,2.38,95,0,430.186003068
GEMS211,2018_Oct_24_1708,George,VC,1.3,1,,10,6,1,SimpleHill,0-0,0,36,42-62,43-58;37-66;35-66;47-61;36-63;49-63,49-63,2.86,96,1,437.094893279
GEMS211,2018_Oct_24_1708,George,VC,1.3,1,,10,6,1,SimpleHill,0-0,0,37,49-63,50-61;40-61;48-63;54-66;48-60;45-56,40-61,0.88,95,-1,442.046572788
GEMS211,2018_Oct_24_1708,George,VC,1.3,1,,10,6,1,SimpleHill,0-0,0,38,40-61,32-60;46-54;38-57;48-67;46-67;40-61,38-57,2.56,96,1,448.669658996
GEMS211,2018_Oct_24_1708,George,VC,1.3,1,,10,6,1,SimpleHill,0-0,0,39,38-57,35-48;35-63;38-62;42-60;33-63;31-59,35-48,1.89,95,-1,454.634996202
GEMS211,2018_Oct_24_1708,George,VC,1.3,1,,10,6,1,SimpleHill,0-0,0,40,35-48,31-57;30-49;44-50;32-50;36-49;35-49,32-50,5.28,93,-2,463.961017881
GEMS211,2018_Oct_24_1708,George,VC,1.3,1,,10,6,1,SimpleHill,0-0,0,41,32-50,30-52;41-48;33-54;36-54;30-41;23-50,23-50,8.36,85,-8,476.393281391
GEMS211,2018_Oct_24_1708,George,VC,1.3,1,,10,6,1,SimpleHill,0-0,0,42,23-50,17-48;14-53;27-42;28-53;23-57;15-45,27-42,0.85,88,3,481.312922862
GEMS211,2018_Oct_24_1708,George,VC,1.3,1,,10,6,1,SimpleHill,0-0,0,43,27-42,28-36;21-45;29-41;25-36;24-37;28-34,28-36,1.09,86,-2,486.475753809
GEMS211,2018_Oct_24_1708,George,VC,1.3,1,,10,6,1,SimpleHill,0-0,0,44,28-36,28-26;31-43;31-40;36-33;22-44;26-28,26-28,2.2,78,-8,492.763074409
GEMS211,2018_Oct_24_1708,George,VC,1.3,1,,10,6,1,SimpleHill,0-0,0,45,26-28,25-35;25-23;35-26;32-25;25-30;31-21,25-35,2.79,83,5,499.614083613
GEMS211,2018_Oct_24_1708,George,VC,1.3,1,,10,6,1,SimpleHill,0-0,0,46,25-35,22-33;25-39;28-39;21-30;32-42;18-37,28-39,2.58,87,4,506.263064647
GEMS211,2018_Oct_24_1708,George,VC,1.3,1,,10,6,1,SimpleHill,0-0,0,47,28-39,26-48;27-48;34-43;25-37;24-40;34-44,27-48,1.63,89,2,511.946633253
GEMS211,2018_Oct_24_1708,George,VC,1.3,1,,10,6,1,SimpleHill,0-0,0,48,27-48,27-42;30-48;23-39;20-41;18-47;31-49,31-49,3.02,92,3,519.044964644
GEMS211,2018_Oct_24_1708,George,VC,1.3,1,,10,6,1,SimpleHill,0-0,0,49,31-49,27-45;36-53;31-45;37-47;34-50;24-45,36-53,3.41,95,3,526.515258639
GEMS211,2018_Oct_24_1708,George,VC,1.3,1,,10,6,1,SimpleHill,0-0,0,50,36-53,40-52;27-56;27-52;29-58;41-55;32-51,27-56,4.01,88,-7,534.5912191
GEMS211,2018_Oct_24_1708,George,VC,1.3,1,,10,6,1,SimpleHill,0-0,0,51,27-56,30-54;36-53;32-52;33-54;28-51;34-63,34-63,2.93,91,3,541.583807363
GEMS211,2018_Oct_24_1708,George,VC,1.3,1,,10,6,1,SimpleHill,0-0,0,52,34-63,32-66;37-59;27-57;35-54;28-70;31-65,28-70,1.78,82,-9,547.436696468
GEMS211,2018_Oct_24_1708,George,VC,1.3,1,,10,6,1,SimpleHill,0-0,0,53,28-70,30-70;25-64;21-65;27-62;22-64;29-64,25-64,2.0,83,1,553.50104174
GEMS211,2018_Oct_24_1708,George,VC,1.3,1,,10,6,1,SimpleHill,0-0,0,54,25-64,23-58;19-59;25-63;20-67;16-65;20-56,20-67,3.94,76,-7,561.578498953
GEMS211,2018_Oct_24_1708,George,VC,1.3,1,,10,6,1,SimpleHill,0-0,0,55,20-67,12-63;15-63;24-58;23-65;18-62;23-61,18-62,4.29,76,0,569.94395184
GEMS211,2018_Oct_24_1708,George,VC,1.3,1,,10,6,1,SimpleHill,0-0,0,56,18-62,27-59;24-55;26-61;22-53;18-65;16-64,18-65,2.49,75,-1,576.523318563
GEMS211,2018_Oct_24_1708,George,VC,1.3,1,,10,6,1,SimpleHill,0-0,0,57,18-65,20-70;21-57;14-56;12-69;22-63;24-64,24-64,0.93,82,7,581.518615127
GEMS211,2018_Oct_24_1708,George,VC,1.3,1,,10,6,1,SimpleHill,0-0,0,58,24-64,28-70;18-66;21-70;29-65;28-59;16-62,21-70,2.6,75,-7,588.210887683
GEMS211,2018_Oct_24_1708,George,VC,1.3,1,,10,6,1,SimpleHill,0-0,0,59,21-70,17-61;16-66;17-67;13-64;20-63;23-62,20-63,3.14,78,3,595.4055899
GEMS211,2018_Oct_24_1708,George,VC,1.3,1,,10,6,1,SimpleHill,0-0,0,60,20-63,24-60;16-61;12-59;28-63;16-60;21-62,16-61,8.63,74,-4,608.113957656
GEMS211,2018_Oct_24_1708,George,VC,1.3,1,,10,6,1,SimpleHill,0-0,0,61,16-61,22-55;10-66;18-53;8-55;23-54;24-61,8-55,0.91,64,-10,613.071301518
GEMS211,2018_Oct_24_1708,George,VC,1.3,1,,10,6,1,SimpleHill,0-0,0,62,8-55,1-55;10-46;10-61;12-51;15-54;4-53,10-46,1.93,67,3,619.043552077
GEMS211,2018_Oct_24_1708,George,VC,1.3,1,,10,6,1,SimpleHill,0-0,0,63,10-46,11-53;18-43;16-53;17-52;11-39;19-42,18-43,1.18,78,11,624.292540345
GEMS211,2018_Oct_24_1708,George,VC,1.3,1,,10,6,1,SimpleHill,0-0,0,64,18-43,20-35;17-44;21-50;24-51;19-42;20-40,20-35,3.05,77,-1,631.41061919
GEMS211,2018_Oct_24_1708,George,VC,1.3,1,,10,6,1,SimpleHill,0-0,0,65,20-35,17-34;21-39;14-42;26-35;26-30;23-27,14-42,5.66,72,-5,641.137229326
GEMS211,2018_Oct_24_1708,George,VC,1.3,1,,10,6,1,SimpleHill,0-0,0,66,14-42,18-33;9-35;20-42;20-44;22-42;13-33,13-33,1.09,66,-6,646.289072145
GEMS211,2018_Oct_24_1708,George,VC,1.3,1,,10,6,1,SimpleHill,0-0,0,67,13-33,15-31;20-40;18-31;13-40;14-33;18-36,18-31,2.18,72,6,652.539939675
GEMS211,2018_Oct_24_1708,George,VC,1.3,1,,10,6,1,SimpleHill,0-0,0,68,18-31,26-37;12-32;13-32;17-29;16-23;19-25,17-29,7.36,69,-3,663.983158984
GEMS211,2018_Oct_24_1708,George,VC,1.3,1,,10,6,1,SimpleHill,0-0,0,69,17-29,21-20;12-34;19-36;13-33;13-25;24-29,21-20,17.94,65,-4,685.985255269
GEMS211,2018_Oct_24_1708,George,VC,1.3,1,,10,6,1,SimpleHill,0-0,0,70,21-20,19-20;25-12;26-26;24-17;18-28;29-25,25-12,1.3,58,-7,691.352579736
GEMS211,2018_Oct_24_1708,George,VC,1.3,1,,10,6,1,SimpleHill,0-0,0,71,25-12,21-18;22-21;24-19;18-8;32-11;19-8,24-19,1.3,67,9,696.708579017
GEMS211,2018_Oct_24_1708,George,VC,1.3,1,,10,6,1,SimpleHill,0-0,0,72,24-19,19-16;27-16;28-19;18-23;15-21;20-26,20-26,3.94,70,3,704.719487443
GEMS211,2018_Oct_24_1708,George,VC,1.3,1,,10,6,1,SimpleHill,0-0,0,73,20-26,26-21;10-26;17-35;14-33;17-18;17-26,17-18,3.81,57,-13,712.599371851
GEMS211,2018_Oct_24_1708,George,VC,1.3,1,,10,6,1,SimpleHill,0-0,0,74,17-18,22-17;15-16;17-28;11-10;17-14;8-21,17-14,3.45,52,-5,720.089447229
GEMS211,2018_Oct_24_1708,George,VC,1.3,1,,10,6,1,SimpleHill,0-0,0,75,17-14,22-20;15-20;21-14;8-14;26-18;16-10,15-20,2.6,57,5,726.757221842
GEMS211,2018_Oct_24_1708,George,VC,1.3,1,,10,6,1,SimpleHill,0-0,0,76,15-20,23-16;12-29;22-26;21-16;11-22;21-14,21-16,1.51,60,3,732.350669745
GEMS211,2018_Oct_24_1708,George,VC,1.3,1,,10,6,1,SimpleHill,0-0,0,77,21-16,29-22;28-11;16-24;14-20;30-13;13-16,29-22,2.33,75,15,738.764622376
GEMS211,2018_Oct_24_1708,George,VC,1.3,1,,10,6,1,SimpleHill,0-0,0,78,29-22,32-16;38-26;36-18;34-19;26-20;24-26,32-16,8.82,70,-5,751.665914556
GEMS211,2018_Oct_24_1708,George,VC,1.3,1,,10,6,1,SimpleHill,0-0,0,79,32-16,33-16;25-13;32-22;30-22;31-17;27-9,25-13,1.07,60,-10,756.806105376
GEMS211,2018_Oct_24_1708,George,VC,1.3,1,,10,6,2,SimpleHill,0-0,0,0,0-0,6-4;6-6;6-8;10-0;3-4;3-8,3-4,5.66,13,13,868.574097364
GEMS211,2018_Oct_24_1708,George,VC,1.3,1,,10,6,2,SimpleHill,0-0,0,1,3-4,1-6;8-11;7-7;6-4;3-7;0-8,7-7,16.19,26,13,888.83098775
GEMS211,2018_Oct_24_1708,George,VC,1.3,1,,10,6,2,SimpleHill,0-0,0,2,7-7,14-11;3-1;6-9;1-7;11-15;10-0,6-9,3.52,27,1,896.420691214
GEMS211,2018_Oct_24_1708,George,VC,1.3,1,,10,6,2,SimpleHill,0-0,0,3,6-9,5-10;8-1;7-6;4-5;12-11;7-4,5-10,3.16,27,0,903.664730855
GEMS211,2018_Oct_24_1708,George,VC,1.3,1,,10,6,2,SimpleHill,0-0,0,4,5-10,2-8;1-9;1-12;12-12;10-7;9-16,2-8,2.64,18,-9,910.368040833
GEMS211,2018_Oct_24_1708,George,VC,1.3,1,,10,6,2,SimpleHill,0-0,0,5,2-8,9-3;5-2;3-10;4-4;3-7;9-12,3-7,3.64,18,0,918.083628912
GEMS211,2018_Oct_24_1708,George,VC,1.3,1,,10,6,2,SimpleHill,0-0,0,6,3-7,0-11;3-6;4-9;9-7;1-16;9-14,3-6,3.78,17,-1,925.942414437
GEMS211,2018_Oct_24_1708,George,VC,1.3,1,,10,6,2,SimpleHill,0-0,0,7,3-6,8-5;9-5;9-1;6-3;2-13;6-7,6-7,4.32,24,7,934.334464753
GEMS211,2018_Oct_24_1708,George,VC,1.3,1,,10,6,2,SimpleHill,0-0,0,8,6-7,8-0;15-10;2-16;4-14;3-15;4-3,4-3,10.77,13,-11,949.153095981
GEMS211,2018_Oct_24_1708,George,VC,1.3,1,,10,6,2,SimpleHill,0-0,0,9,4-3,2-1;9-11;12-7;2-5;7-3;2-12,2-1,0.39,5,-8,953.629352335
GEMS211,2018_Oct_24_1708,George,VC,1.3,1,,10,6,2,SimpleHill,0-0,0,10,2-1,5-1;6-9;6-10;0-3;6-7;10-5,6-9,0.93,27,22,958.629975555
GEMS211,2018_Oct_24_1708,George,VC,1.3,1,,10,6,2,SimpleHill,0-0,0,11,6-9,9-10;3-4;2-18;14-3;0-16;8-10,8-10,7.85,32,5,970.529406078
GEMS211,2018_Oct_24_1708,George,VC,1.3,1,,10,6,2,SimpleHill,0-0,0,12,8-10,17-8;1-14;14-10;13-13;16-9;10-4,10-4,9.69,25,-7,984.286434905
GEMS211,2018_Oct_24_1708,George,VC,1.3,1,,10,6,2,SimpleHill,0-0,0,13,10-4,17-5;18-2;14-3;9-1;15-7;16-3,17-5,1.7,37,12,990.047050365
GEMS211,2018_Oct_24_1708,George,VC,1.3,1,,10,6,2,SimpleHill,0-0,0,14,17-5,22-6;21-10;22-10;17-0;15-0;26-2,21-10,9.37,51,14,1003.49622915
GEMS211,2018_Oct_24_1708,George,VC,1.3,1,,10,6,2,SimpleHill,0-0,0,15,21-10,17-18;24-15;18-8;24-17;21-11;16-7,18-8,1.05,44,-7,1008.61131097
GEMS211,2018_Oct_24_1708,George,VC,1.3,1,,10,6,2,SimpleHill,0-0,0,16,18-8,16-3;20-9;21-9;20-3;12-11;17-10,21-9,4.33,49,5,1017.00350565
GEMS211,2018_Oct_24_1708,George,VC,1.3,1,,10,6,2,SimpleHill,0-0,0,17,21-9,19-13;17-14;14-12;28-8;23-16;24-8,14-12,0.81,45,-4,1021.88309557
GEMS211,2018_Oct_24_1708,George,VC,1.3,1,,10,6,2,SimpleHill,0-0,0,18,14-12,14-21;18-14;5-11;23-14;6-16;16-18,16-18,1.45,56,11,1027.40035927
GEMS211,2018_Oct_24_1708,George,VC,1.3,1,,10,6,2,SimpleHill,0-0,0,19,16-18,15-18;10-17;14-19;21-25;10-10;23-17,15-18,5.25,55,-1,1036.72975952
GEMS211,2018_Oct_24_1708,George,VC,1.3,1,,10,6,2,SimpleHill,0-0,0,20,15-18,21-25;11-27;20-20;20-12;20-23;8-12,20-20,0.75,64,9,1041.54160031
GEMS211,2018_Oct_24_1708,George,VC,1.3,1,,10,6,2,SimpleHill,0-0,0,21,20-20,27-22;17-14;14-13;26-22;18-27;21-11,21-11,1.03,52,-12,1046.65061126
GEMS211,2018_Oct_24_1708,George,VC,1.3,1,,10,6,2,SimpleHill,0-0,0,22,21-11,28-4;18-7;28-15;30-15;23-5;21-8,18-7,4.38,42,-10,1055.09743865
GEMS211,2018_Oct_24_1708,George,VC,1.3,1,,10,6,2,SimpleHill,0-0,0,23,18-7,8-7;22-11;23-14;20-12;11-4;22-15,23-14,1.75,59,17,1060.93504175
GEMS211,2018_Oct_24_1708,George,VC,1.3,1,,10,6,2,SimpleHill,0-0,0,24,23-14,21-11;17-13;27-20;25-17;21-19;17-21,17-21,2.16,61,2,1067.15100514
GEMS211,2018_Oct_24_1708,George,VC,1.3,1,,10,6,2,SimpleHill,0-0,0,25,17-21,15-29;15-15;15-25;21-15;9-26;19-14,15-25,1.34,63,2,1072.57536941
GEMS211,2018_Oct_24_1708,George,VC,1.3,1,,10,6,2,SimpleHill,0-0,0,26,15-25,20-18;11-21;14-31;18-33;24-28;12-26,12-26,1.42,59,-4,1078.04649501
GEMS211,2018_Oct_24_1708,George,VC,1.3,1,,10,6,2,SimpleHill,0-0,0,27,12-26,15-19;18-27;7-20;11-19;15-31;3-24,7-20,2.92,45,-14,1085.01567076
GEMS211,2018_Oct_24_1708,George,VC,1.3,1,,10,6,2,SimpleHill,0-0,0,28,7-20,12-14;3-23;3-14;9-26;12-24;6-20,6-20,1.32,43,-2,1090.41170686
GEMS211,2018_Oct_24_1708,George,VC,1.3,1,,10,6,2,SimpleHill,0-0,0,29,6-20,6-22;7-27;7-18;9-17;5-17;5-15,5-17,0.47,37,-6,1094.95287057
GEMS211,2018_Oct_24_1708,George,VC,1.3,1,,10,6,2,SimpleHill,0-0,0,30,5-17,3-11;12-21;6-18;6-20;8-13;6-23,6-20,0.93,43,6,1099.95315545
GEMS211,2018_Oct_24_1708,George,VC,1.3,1,,10,6,2,SimpleHill,0-0,0,31,6-20,11-16;0-24;6-15;4-28;14-15;2-12,11-16,2.35,46,3,1106.36260535
GEMS211,2018_Oct_24_1708,George,VC,1.3,1,,10,6,2,SimpleHill,0-0,0,32,11-16,19-15;9-15;19-13;14-9;11-16;7-7,19-13,0.88,53,7,1111.32563757
GEMS211,2018_Oct_24_1708,George,VC,1.3,1,,10,6,2,SimpleHill,0-0,0,33,19-13,20-22;25-19;21-10;24-7;14-20;24-19,24-19,3.4,67,14,1118.80077008
GEMS211,2018_Oct_24_1708,George,VC,1.3,1,,10,6,2,SimpleHill,0-0,0,34,24-19,29-17;22-13;21-20;22-21;21-25;26-19,29-17,0.52,69,2,1123.38349937
GEMS211,2018_Oct_24_1708,George,VC,1.3,1,,10,6,2,SimpleHill,0-0,0,35,29-17,37-18;27-25;29-18;24-11;25-10;35-23,29-18,0.5,70,1,1127.95057167
GEMS211,2018_Oct_24_1708,George,VC,1.3,1,,10,6,2,SimpleHill,0-0,0,36,29-18,27-14;37-16;22-24;23-26;37-17;26-26,26-26,0.41,76,6,1132.4356885
GEMS211,2018_Oct_24_1708,George,VC,1.3,1,,10,6,2,SimpleHill,0-0,0,37,26-26,28-26;24-23;26-23;22-35;33-25;27-24,28-26,1.16,78,2,1137.66008568
GEMS211,2018_Oct_24_1708,George,VC,1.3,1,,10,6,2,SimpleHill,0-0,0,38,28-26,21-30;31-20;31-33;31-17;27-17;26-27,31-33,0.46,87,9,1142.18563848
GEMS211,2018_Oct_24_1708,George,VC,1.3,1,,10,6,2,SimpleHill,0-0,0,39,31-33,35-32;26-34;27-30;23-31;36-31;26-33,26-33,0.33,82,-5,1146.59539086
GEMS211,2018_Oct_24_1708,George,VC,1.3,1,,10,6,2,SimpleHill,0-0,0,40,26-33,26-31;18-31;27-35;27-25;23-25;24-29,26-31,2.03,81,-1,1152.70477664
GEMS211,2018_Oct_24_1708,George,VC,1.3,1,,10,6,2,SimpleHill,0-0,0,41,26-31,28-36;27-24;19-31;24-40;21-35;23-23,19-31,2.11,73,-8,1158.89579203
GEMS211,2018_Oct_24_1708,George,VC,1.3,1,,10,6,2,SimpleHill,0-0,0,42,19-31,21-26;15-35;16-22;26-37;17-37;28-32,21-26,6.6,71,-2,1169.55585626
GEMS211,2018_Oct_24_1708,George,VC,1.3,1,,10,6,2,SimpleHill,0-0,0,43,21-26,26-31;17-21;18-26;26-25;27-23;12-23,18-26,1.01,68,-3,1174.62205263
GEMS211,2018_Oct_24_1708,George,VC,1.3,1,,10,6,2,SimpleHill,0-0,0,44,18-26,17-28;23-28;18-22;9-26;14-32;19-20,14-32,1.22,67,-1,1179.88782014
GEMS211,2018_Oct_24_1708,George,VC,1.3,1,,10,6,2,SimpleHill,0-0,0,45,14-32,20-25;8-37;6-31;17-36;7-33;6-27,7-33,3.48,57,-10,1187.44444334
GEMS211,2018_Oct_24_1708,George,VC,1.3,1,,10,6,2,SimpleHill,0-0,0,46,7-33,1-26;14-27;6-36;12-33;3-27;15-27,3-27,0.39,45,-12,1191.91445918
GEMS211,2018_Oct_24_1708,George,VC,1.3,1,,10,6,2,SimpleHill,0-0,0,47,3-27,5-27;1-35;3-18;2-25;5-20;4-22,5-20,0.45,41,-4,1196.45352724
GEMS211,2018_Oct_24_1708,George,VC,1.3,1,,10,6,2,SimpleHill,0-0,0,48,5-20,2-21;7-13;11-13;0-20;9-11;5-20,7-13,0.12,35,-6,1200.64642286
GEMS211,2018_Oct_24_1708,George,VC,1.3,1,,10,6,2,SimpleHill,0-0,0,49,7-13,2-20;1-16;7-14;10-12;12-13;0-17,10-12,4.31,39,4,1209.00837393
GEMS211,2018_Oct_24_1708,George,VC,1.3,1,,10,6,2,SimpleHill,0-0,0,50,10-12,14-9;4-14;1-14;6-21;4-4;10-15,4-14,3.23,31,-8,1216.31964128
GEMS211,2018_Oct_24_1708,George,VC,1.3,1,,10,6,2,SimpleHill,0-0,0,51,4-14,8-13;9-11;8-16;10-14;4-13;8-17,8-16,0.79,41,10,1221.17630299
GEMS211,2018_Oct_24_1708,George,VC,1.3,1,,10,6,2,SimpleHill,0-0,0,52,8-16,10-12;5-21;11-25;5-13;15-20;7-19,7-19,2.91,43,2,1228.16105668
GEMS211,2018_Oct_24_1708,George,VC,1.3,1,,10,6,2,SimpleHill,0-0,0,53,7-19,11-12;5-16;2-13;9-16;1-17;9-22,11-12,0.5,40,-3,1232.72773622
GEMS211,2018_Oct_24_1708,George,VC,1.3,1,,10,6,2,SimpleHill,0-0,0,54,11-12,9-16;8-14;19-11;13-16;4-7;10-9,19-11,0.78,50,10,1237.58469722
GEMS211,2018_Oct_24_1708,George,VC,1.3,1,,10,6,2,SimpleHill,0-0,0,55,19-11,20-20;14-9;23-16;25-13;25-3;17-2,17-2,1.19,32,-18,1242.8480253
GEMS211,2018_Oct_24_1708,George,VC,1.3,1,,10,6,2,SimpleHill,0-0,0,56,17-2,26-2;8-4;11-5;19-9;14-6;9-3,26-2,0.98,42,10,1247.90348545
GEMS211,2018_Oct_24_1708,George,VC,1.3,1,,10,6,2,SimpleHill,0-0,0,57,26-2,31-1;19-9;31-7;23-10;27-6;24-4,31-7,0.9,55,13,1252.89386732
GEMS211,2018_Oct_24_1708,George,VC,1.3,1,,10,6,2,SimpleHill,0-0,0,58,31-7,23-1;24-13;29-8;27-7;32-11;27-14,27-14,3.67,63,8,1260.62527628
GEMS211,2018_Oct_24_1708,George,VC,1.3,1,,10,6,2,SimpleHill,0-0,0,59,27-14,35-18;24-12;31-9;27-22;27-5;25-13,24-12,1.04,57,-6,1265.71656596
GEMS211,2018_Oct_24_1708,George,VC,1.3,1,,10,6,2,SimpleHill,0-0,0,60,24-12,22-21;22-9;22-3;19-20;26-13;18-4,22-3,0.29,40,-17,1270.06858425
GEMS211,2018_Oct_24_1708,George,VC,1.3,1,,10,6,2,SimpleHill,0-0,0,61,22-3,31-3;22-5;14-2;26-0;20-12;25-2,25-2,2.94,41,1,1277.06487054
GEMS211,2018_Oct_24_1708,George,VC,1.3,1,,10,6,2,SimpleHill,0-0,0,62,25-2,24-0;34-4;22-2;21-4;19-5;30-2,24-0,3.66,36,-5,1284.78088434
GEMS211,2018_Oct_24_1708,George,VC,1.3,1,,10,6,2,SimpleHill,0-0,0,63,24-0,30-4;32-6;33-2;31-6;22-3;26-0,22-3,4.35,40,4,1293.19253647
GEMS211,2018_Oct_24_1708,George,VC,1.3,1,,10,6,2,SimpleHill,0-0,0,64,22-3,25-6;24-1;23-0;23-9;21-5;26-10,23-9,5.88,51,11,1303.1634356
GEMS211,2018_Oct_24_1708,George,VC,1.3,1,,10,6,2,SimpleHill,0-0,0,65,23-9,20-15;17-13;31-7;27-4;18-8;28-3,17-13,3.22,50,-1,1310.46685908
GEMS211,2018_Oct_24_1708,George,VC,1.3,1,,10,6,2,SimpleHill,0-0,0,66,17-13,17-22;23-10;22-16;19-9;8-10;12-9,17-22,4.2,62,12,1318.74949097
GEMS211,2018_Oct_24_1708,George,VC,1.3,1,,10,6,2,SimpleHill,0-0,0,67,17-22,16-21;17-19;14-26;17-14;15-31;10-28,14-26,0.79,62,0,1323.61894613
GEMS211,2018_Oct_24_1708,George,VC,1.3,1,,10,6,2,SimpleHill,0-0,0,68,14-26,22-23;18-27;13-34;15-28;16-22;18-18,16-22,0.44,61,-1,1328.11000548
GEMS211,2018_Oct_24_1708,George,VC,1.3,1,,10,6,2,SimpleHill,0-0,0,69,16-22,13-21;12-21;17-19;23-15;22-14;23-19,17-19,0.84,59,-2,1333.02769118
GEMS211,2018_Oct_24_1708,George,VC,1.3,1,,10,6,2,SimpleHill,0-0,0,70,17-19,11-26;13-11;25-22;13-25;19-12;21-12,25-22,0.31,71,12,1337.41752518
GEMS211,2018_Oct_24_1708,George,VC,1.3,1,,10,6,2,SimpleHill,0-0,0,71,25-22,31-30;29-31;29-28;22-28;29-22;21-31,21-31,1.85,75,4,1343.35037238
GEMS211,2018_Oct_24_1708,George,VC,1.3,1,,10,6,2,SimpleHill,0-0,0,72,21-31,25-24;15-30;17-35;29-31;13-25;27-26,17-35,1.48,73,-2,1348.90509072
GEMS211,2018_Oct_24_1708,George,VC,1.3,1,,10,6,2,SimpleHill,0-0,0,73,17-35,17-33;12-42;15-30;8-32;20-28;24-30,15-30,0.7,67,-6,1353.66666133
GEMS211,2018_Oct_24_1708,George,VC,1.3,1,,10,6,2,SimpleHill,0-0,0,74,15-30,15-27;22-35;24-30;20-38;8-26;13-26,24-30,0.83,78,11,1358.57032188
GEMS211,2018_Oct_24_1708,George,VC,1.3,1,,10,6,2,SimpleHill,0-0,0,75,24-30,17-27;17-23;18-34;28-24;22-33;25-25,22-33,3.09,78,0,1365.74496679
GEMS211,2018_Oct_24_1708,George,VC,1.3,1,,10,6,2,SimpleHill,0-0,0,76,22-33,22-24;25-27;15-29;15-27;21-42;17-37,21-42,1.71,81,3,1371.52010004
GEMS211,2018_Oct_24_1708,George,VC,1.3,1,,10,6,2,SimpleHill,0-0,0,77,21-42,20-48;20-43;16-34;23-40;23-39;24-37,20-48,3.12,81,0,1378.6912998
GEMS211,2018_Oct_24_1708,George,VC,1.3,1,,10,6,2,SimpleHill,0-0,0,78,20-48,28-44;17-48;26-48;28-42;13-44;26-54,17-48,4.69,78,-3,1387.46061536
GEMS211,2018_Oct_24_1708,George,VC,1.3,1,,10,6,2,SimpleHill,0-0,0,79,17-48,20-43;10-49;14-53;9-50;21-52;18-48,14-53,4.3,73,-5,1395.81090484
