subj_id,date,computer,experimenter,instructions,sight_radius,n_gabors,start_pos_list_ix,start_pos_list,landscape_ix,landscape_name,starting_pos,starting_score,trial,feedback,pos,stims,selected,rt,score,delta,exp_time
GEMS126,2018_Mar_07_1228,Elaine,sf,spatial_frequency,8,6,0,0-0;0-0;0-0;0-0,0,SpatialFrequencyBias,0-0,0,0,training,0-0,3-0;5-5;6-0;4-6;0-0;0-2,5-5,15.26,19,19,353.169246666
GEMS126,2018_Mar_07_1228,Elaine,sf,spatial_frequency,8,6,0,0-0;0-0;0-0;0-0,0,SpatialFrequencyBias,0-0,0,1,training,5-5,4-7;9-4;4-0;13-5;0-3;0-0,0-3,8.13,11,-8,379.895369446
GEMS126,2018_Mar_07_1228,Elaine,sf,spatial_frequency,8,6,0,0-0;0-0;0-0;0-0,0,SpatialFrequencyBias,0-0,0,2,training,0-3,0-10;6-7;5-8;7-0;3-6;7-2,3-6,9.74,22,11,403.094283244
GEMS126,2018_Mar_07_1228,Elaine,sf,spatial_frequency,8,6,0,0-0;0-0;0-0;0-0,0,SpatialFrequencyBias,0-0,0,3,training,3-6,6-8;1-4;3-3;4-2;11-6;0-3,4-2,7.41,7,-15,417.429894462
GEMS126,2018_Mar_07_1228,Elaine,sf,spatial_frequency,8,6,0,0-0;0-0;0-0;0-0,0,SpatialFrequencyBias,0-0,0,4,training,4-2,8-8;0-1;1-1;4-4;4-0;6-3,8-8,7.19,29,22,432.030914533
GEMS126,2018_Mar_07_1228,Elaine,sf,spatial_frequency,8,6,0,0-0;0-0;0-0;0-0,0,SpatialFrequencyBias,0-0,0,5,training,8-8,14-10;2-11;8-13;12-14;3-6;5-14,3-6,7.62,22,-7,445.104934322
GEMS126,2018_Mar_07_1228,Elaine,sf,spatial_frequency,8,6,0,0-0;0-0;0-0;0-0,0,SpatialFrequencyBias,0-0,0,6,training,3-6,3-7;6-4;8-11;7-12;5-11;4-2,6-4,4.74,15,-7,456.026988919
GEMS126,2018_Mar_07_1228,Elaine,sf,spatial_frequency,8,6,0,0-0;0-0;0-0;0-0,0,SpatialFrequencyBias,0-0,0,7,training,6-4,3-8;5-5;8-11;10-10;11-7;7-1,8-11,4.18,39,24,466.43922964
GEMS126,2018_Mar_07_1228,Elaine,sf,spatial_frequency,8,6,0,0-0;0-0;0-0;0-0,0,SpatialFrequencyBias,0-0,0,8,training,8-11,7-17;8-17;14-7;12-11;5-10;4-17,12-11,9.8,39,0,480.263402833
GEMS126,2018_Mar_07_1228,Elaine,sf,spatial_frequency,8,6,0,0-0;0-0;0-0;0-0,0,SpatialFrequencyBias,0-0,0,9,training,12-11,12-15;12-16;18-15;8-15;7-17;16-6,16-6,8.77,22,-17,494.278663563
GEMS126,2018_Mar_07_1228,Elaine,sf,spatial_frequency,8,6,0,0-0;0-0;0-0;0-0,0,SpatialFrequencyBias,0-0,0,10,training,16-6,20-9;10-8;19-10;13-12;10-10;10-5,10-10,4.94,36,14,508.75138512
GEMS126,2018_Mar_07_1228,Elaine,sf,spatial_frequency,8,6,0,0-0;0-0;0-0;0-0,0,SpatialFrequencyBias,0-0,0,11,training,10-10,14-8;4-13;12-6;9-17;11-10;3-8,9-17,6.57,56,20,520.203777604
GEMS126,2018_Mar_07_1228,Elaine,sf,spatial_frequency,8,6,0,0-0;0-0;0-0;0-0,0,SpatialFrequencyBias,0-0,0,12,training,9-17,6-12;8-10;4-12;2-16;5-13;9-17,9-17,4.73,56,0,528.761825257
GEMS126,2018_Mar_07_1228,Elaine,sf,spatial_frequency,8,6,0,0-0;0-0;0-0;0-0,0,SpatialFrequencyBias,0-0,0,13,training,9-17,13-23;14-13;12-22;11-19;5-21;6-13,14-13,8.97,45,-11,542.097034439
GEMS126,2018_Mar_07_1228,Elaine,sf,spatial_frequency,8,6,0,0-0;0-0;0-0;0-0,0,SpatialFrequencyBias,0-0,0,14,training,14-13,16-10;7-15;13-10;17-13;16-17;12-8,16-17,4.54,56,11,551.816519461
GEMS126,2018_Mar_07_1228,Elaine,sf,spatial_frequency,8,6,0,0-0;0-0;0-0;0-0,0,SpatialFrequencyBias,0-0,0,15,training,16-17,12-15;22-21;23-19;19-22;18-24;13-16,22-21,6.24,66,10,562.078872391
GEMS126,2018_Mar_07_1228,Elaine,sf,spatial_frequency,8,6,0,0-0;0-0;0-0;0-0,0,SpatialFrequencyBias,0-0,0,16,training,22-21,27-20;27-23;29-24;25-16;22-14;28-22,29-24,5.14,72,6,571.617363353
GEMS126,2018_Mar_07_1228,Elaine,sf,spatial_frequency,8,6,0,0-0;0-0;0-0;0-0,0,SpatialFrequencyBias,0-0,0,17,training,29-24,26-25;31-23;33-25;23-22;28-24;23-21,28-24,6.15,72,0,581.977167802
GEMS126,2018_Mar_07_1228,Elaine,sf,spatial_frequency,8,6,0,0-0;0-0;0-0;0-0,0,SpatialFrequencyBias,0-0,0,18,training,28-24,25-21;32-26;27-24;25-23;30-30;33-24,25-21,3.63,66,-6,592.393170571
GEMS126,2018_Mar_07_1228,Elaine,sf,spatial_frequency,8,6,0,0-0;0-0;0-0;0-0,0,SpatialFrequencyBias,0-0,0,19,training,25-21,25-20;24-16;22-22;20-15;20-19;25-22,22-22,4.07,68,2,603.248607838
GEMS126,2018_Mar_07_1228,Elaine,sf,spatial_frequency,8,6,0,0-0;0-0;0-0;0-0,0,SpatialFrequencyBias,0-0,0,20,training,22-22,25-15;18-16;25-25;27-23;22-14;18-22,27-23,4.66,70,2,612.625731851
GEMS126,2018_Mar_07_1228,Elaine,sf,spatial_frequency,8,6,0,0-0;0-0;0-0;0-0,0,SpatialFrequencyBias,0-0,0,21,training,27-23,28-21;20-20;24-16;28-24;34-26;31-26,31-26,3.56,76,6,620.855370688
GEMS126,2018_Mar_07_1228,Elaine,sf,spatial_frequency,8,6,0,0-0;0-0;0-0;0-0,0,SpatialFrequencyBias,0-0,0,22,training,31-26,28-19;32-19;34-23;39-26;30-29;33-32,39-26,6.21,76,0,631.015286657
GEMS126,2018_Mar_07_1228,Elaine,sf,spatial_frequency,8,6,0,0-0;0-0;0-0;0-0,0,SpatialFrequencyBias,0-0,0,23,training,39-26,36-24;41-25;42-28;43-32;39-26;38-20,43-32,2.62,87,11,638.156858126
GEMS126,2018_Mar_07_1228,Elaine,sf,spatial_frequency,8,6,0,0-0;0-0;0-0;0-0,0,SpatialFrequencyBias,0-0,0,24,training,43-32,47-36;42-26;39-34;42-25;40-33;46-25,39-34,4.78,89,2,646.576473778
GEMS126,2018_Mar_07_1228,Elaine,sf,spatial_frequency,8,6,0,0-0;0-0;0-0;0-0,0,SpatialFrequencyBias,0-0,0,25,training,39-34,44-29;42-40;33-38;42-35;41-34;35-28,42-35,3.64,91,2,655.822961003
GEMS126,2018_Mar_07_1228,Elaine,sf,spatial_frequency,8,6,0,0-0;0-0;0-0;0-0,0,SpatialFrequencyBias,0-0,0,26,training,42-35,45-36;36-38;38-31;40-39;36-32;37-38,45-36,7.5,92,1,667.360212247
GEMS126,2018_Mar_07_1228,Elaine,sf,spatial_frequency,8,6,0,0-0;0-0;0-0;0-0,0,SpatialFrequencyBias,0-0,0,27,training,45-36,45-38;46-35;50-30;43-31;37-36;48-39,48-39,6.15,95,3,678.535043246
GEMS126,2018_Mar_07_1228,Elaine,sf,spatial_frequency,8,6,0,0-0;0-0;0-0;0-0,0,SpatialFrequencyBias,0-0,0,28,training,48-39,43-43;54-36;53-33;50-32;53-34;53-41,53-41,6.9,96,1,689.757678139
GEMS126,2018_Mar_07_1228,Elaine,sf,spatial_frequency,8,6,0,0-0;0-0;0-0;0-0,0,SpatialFrequencyBias,0-0,0,29,training,53-41,48-44;55-44;57-40;50-45;48-39;52-48,52-48,7.81,99,3,702.346988586
GEMS126,2018_Mar_07_1228,Elaine,sf,spatial_frequency,8,6,0,0-0;0-0;0-0;0-0,1,SimpleHill,0-0,0,0,selected,0-0,0-0;5-1;3-3;0-7;4-6;1-0,0-7,3.05,13,13,743.259683358
GEMS126,2018_Mar_07_1228,Elaine,sf,spatial_frequency,8,6,0,0-0;0-0;0-0;0-0,1,SimpleHill,0-0,0,1,selected,0-7,7-8;8-7;4-9;0-2;0-10;6-7,0-10,2.05,18,5,748.85336915
GEMS126,2018_Mar_07_1228,Elaine,sf,spatial_frequency,8,6,0,0-0;0-0;0-0;0-0,1,SimpleHill,0-0,0,2,selected,0-10,0-7;5-5;6-11;2-12;2-13;6-8,2-13,2.79,26,8,755.21106579
GEMS126,2018_Mar_07_1228,Elaine,sf,spatial_frequency,8,6,0,0-0;0-0;0-0;0-0,1,SimpleHill,0-0,0,3,selected,2-13,5-8;8-9;7-11;1-14;3-16;1-17,1-17,1.96,30,4,760.726465279
GEMS126,2018_Mar_07_1228,Elaine,sf,spatial_frequency,8,6,0,0-0;0-0;0-0;0-0,1,SimpleHill,0-0,0,4,selected,1-17,2-20;2-11;6-18;8-19;7-21;2-19,7-21,2.91,46,16,767.23269668
GEMS126,2018_Mar_07_1228,Elaine,sf,spatial_frequency,8,6,0,0-0;0-0;0-0;0-0,1,SimpleHill,0-0,0,5,selected,7-21,6-20;2-20;10-26;6-25;9-20;9-14,10-26,1.99,56,10,772.792070157
GEMS126,2018_Mar_07_1228,Elaine,sf,spatial_frequency,8,6,0,0-0;0-0;0-0;0-0,1,SimpleHill,0-0,0,6,selected,10-26,10-33;16-28;2-26;5-29;11-25;17-24,16-28,3.18,67,11,779.533146058
GEMS126,2018_Mar_07_1228,Elaine,sf,spatial_frequency,8,6,0,0-0;0-0;0-0;0-0,1,SimpleHill,0-0,0,7,selected,16-28,13-31;14-35;11-33;9-27;12-24;9-29,11-33,2.38,63,-4,785.476176316
GEMS126,2018_Mar_07_1228,Elaine,sf,spatial_frequency,8,6,0,0-0;0-0;0-0;0-0,1,SimpleHill,0-0,0,8,selected,11-33,10-40;9-31;9-37;13-31;14-34;16-33,9-31,4.53,59,-4,793.555119127
GEMS126,2018_Mar_07_1228,Elaine,sf,spatial_frequency,8,6,0,0-0;0-0;0-0;0-0,1,SimpleHill,0-0,0,9,selected,9-31,12-24;12-25;11-32;3-32;14-25;14-29,14-29,2.52,65,6,799.640645601
GEMS126,2018_Mar_07_1228,Elaine,sf,spatial_frequency,8,6,0,0-0;0-0;0-0;0-0,1,SimpleHill,0-0,0,10,selected,14-29,11-24;10-31;13-29;13-26;9-31;16-23,9-31,2.91,59,-6,806.136231045
GEMS126,2018_Mar_07_1228,Elaine,sf,spatial_frequency,8,6,0,0-0;0-0;0-0;0-0,1,SimpleHill,0-0,0,11,selected,9-31,10-30;13-28;8-25;12-26;2-31;14-33,14-33,2.6,68,9,812.328709064
GEMS126,2018_Mar_07_1228,Elaine,sf,spatial_frequency,8,6,0,0-0;0-0;0-0;0-0,1,SimpleHill,0-0,0,12,selected,14-33,19-36;16-28;16-33;15-26;20-38;8-34,16-28,2.79,67,-1,818.694219482
GEMS126,2018_Mar_07_1228,Elaine,sf,spatial_frequency,8,6,0,0-0;0-0;0-0;0-0,1,SimpleHill,0-0,0,13,selected,16-28,16-22;22-23;13-35;15-35;14-27;13-21,13-35,3.65,68,1,825.916462901
GEMS126,2018_Mar_07_1228,Elaine,sf,spatial_frequency,8,6,0,0-0;0-0;0-0;0-0,1,SimpleHill,0-0,0,14,selected,13-35,11-34;14-29;15-37;11-28;6-33;11-37,11-37,3.54,66,-2,833.024989941
GEMS126,2018_Mar_07_1228,Elaine,sf,spatial_frequency,8,6,0,0-0;0-0;0-0;0-0,1,SimpleHill,0-0,0,15,selected,11-37,13-30;5-32;14-43;17-34;7-43;10-44,5-32,5.99,53,-13,842.591040227
GEMS126,2018_Mar_07_1228,Elaine,sf,spatial_frequency,8,6,0,0-0;0-0;0-0;0-0,1,SimpleHill,0-0,0,16,selected,5-32,6-32;2-31;4-34;2-30;11-29;6-37,6-37,4.91,57,4,851.071377425
GEMS126,2018_Mar_07_1228,Elaine,sf,spatial_frequency,8,6,0,0-0;0-0;0-0;0-0,1,SimpleHill,0-0,0,17,selected,6-37,5-32;11-41;0-37;7-37;10-39;8-36,8-36,5.68,60,3,860.320312718
GEMS126,2018_Mar_07_1228,Elaine,sf,spatial_frequency,8,6,0,0-0;0-0;0-0;0-0,1,SimpleHill,0-0,0,18,selected,8-36,10-33;8-31;8-39;10-29;15-36;7-32,15-36,3.26,71,11,867.149857063
GEMS126,2018_Mar_07_1228,Elaine,sf,spatial_frequency,8,6,0,0-0;0-0;0-0;0-0,1,SimpleHill,0-0,0,19,selected,15-36,18-29;18-30;15-36;17-31;14-42;13-43,13-43,4.55,71,0,875.274152179
GEMS126,2018_Mar_07_1228,Elaine,sf,spatial_frequency,8,6,0,0-0;0-0;0-0;0-0,1,SimpleHill,0-0,0,20,selected,13-43,8-49;19-45;15-36;16-41;21-43;16-40,16-40,2.58,74,3,881.435221442
GEMS126,2018_Mar_07_1228,Elaine,sf,spatial_frequency,8,6,0,0-0;0-0;0-0;0-0,1,SimpleHill,0-0,0,21,selected,16-40,13-44;9-38;20-39;19-42;13-36;17-44,17-44,6.16,77,3,891.176168986
GEMS126,2018_Mar_07_1228,Elaine,sf,spatial_frequency,8,6,0,0-0;0-0;0-0;0-0,1,SimpleHill,0-0,0,22,selected,17-44,14-41;16-43;22-49;23-49;18-37;17-51,17-51,5.08,78,1,899.837475277
GEMS126,2018_Mar_07_1228,Elaine,sf,spatial_frequency,8,6,0,0-0;0-0;0-0;0-0,1,SimpleHill,0-0,0,23,selected,17-51,18-48;16-50;18-49;20-47;19-56;24-49,18-49,1.74,79,1,905.164125506
GEMS126,2018_Mar_07_1228,Elaine,sf,spatial_frequency,8,6,0,0-0;0-0;0-0;0-0,1,SimpleHill,0-0,0,24,selected,18-49,20-44;15-56;23-43;12-44;15-46;24-50,15-56,3.24,74,-5,911.988343512
GEMS126,2018_Mar_07_1228,Elaine,sf,spatial_frequency,8,6,0,0-0;0-0;0-0;0-0,1,SimpleHill,0-0,0,25,selected,15-56,22-59;12-52;10-52;16-55;20-58;21-58,21-58,3.09,81,7,918.649935645
GEMS126,2018_Mar_07_1228,Elaine,sf,spatial_frequency,8,6,0,0-0;0-0;0-0;0-0,1,SimpleHill,0-0,0,26,selected,21-58,19-64;24-61;15-53;20-56;21-61;15-57,20-56,4.02,81,0,926.240950265
GEMS126,2018_Mar_07_1228,Elaine,sf,spatial_frequency,8,6,0,0-0;0-0;0-0;0-0,1,SimpleHill,0-0,0,27,selected,20-56,23-58;14-57;17-50;25-52;23-50;15-56,23-50,3.45,85,4,933.261431063
GEMS126,2018_Mar_07_1228,Elaine,sf,spatial_frequency,8,6,0,0-0;0-0;0-0;0-0,1,SimpleHill,0-0,0,28,selected,23-50,27-54;23-53;24-52;20-50;22-50;28-50,27-54,4.1,89,4,940.920014327
GEMS126,2018_Mar_07_1228,Elaine,sf,spatial_frequency,8,6,0,0-0;0-0;0-0;0-0,1,SimpleHill,0-0,0,29,selected,27-54,27-50;29-61;25-51;21-53;33-55;25-53,25-53,3.48,87,-2,947.978986248
GEMS126,2018_Mar_07_1228,Elaine,sf,spatial_frequency,8,6,0,0-0;0-0;0-0;0-0,1,SimpleHill,0-0,0,30,selected,25-53,18-50;26-49;30-51;26-51;26-54;28-57,30-51,3.36,91,4,954.923018075
GEMS126,2018_Mar_07_1228,Elaine,sf,spatial_frequency,8,6,0,0-0;0-0;0-0;0-0,1,SimpleHill,0-0,0,31,selected,30-51,36-55;29-47;37-54;31-44;23-50;35-56,35-56,2.88,94,3,961.364145223
GEMS126,2018_Mar_07_1228,Elaine,sf,spatial_frequency,8,6,0,0-0;0-0;0-0;0-0,1,SimpleHill,0-0,0,32,selected,35-56,34-63;31-50;35-57;32-51;40-61;29-54,34-63,4.18,91,-3,969.112821401
GEMS126,2018_Mar_07_1228,Elaine,sf,spatial_frequency,8,6,0,0-0;0-0;0-0;0-0,1,SimpleHill,0-0,0,33,selected,34-63,36-65;29-67;28-59;39-63;29-60;35-67,35-67,2.47,89,-2,975.158608391
GEMS126,2018_Mar_07_1228,Elaine,sf,spatial_frequency,8,6,0,0-0;0-0;0-0;0-0,1,SimpleHill,0-0,0,34,selected,35-67,32-64;31-63;40-62;39-69;34-64;36-64,32-64,2.42,89,0,981.145691379
GEMS126,2018_Mar_07_1228,Elaine,sf,spatial_frequency,8,6,0,0-0;0-0;0-0;0-0,1,SimpleHill,0-0,0,35,selected,32-64,34-70;36-67;38-62;26-69;29-65;39-64,34-70,1.91,86,-3,986.628118141
GEMS126,2018_Mar_07_1228,Elaine,sf,spatial_frequency,8,6,0,0-0;0-0;0-0;0-0,1,SimpleHill,0-0,0,36,selected,34-70,33-65;36-69;31-68;31-65;31-64;28-69,31-64,2.17,88,2,992.368962295
GEMS126,2018_Mar_07_1228,Elaine,sf,spatial_frequency,8,6,0,0-0;0-0;0-0;0-0,1,SimpleHill,0-0,0,37,selected,31-64,35-61;32-64;32-66;33-64;33-58;28-66,32-64,2.17,89,1,998.120104785
GEMS126,2018_Mar_07_1228,Elaine,sf,spatial_frequency,8,6,0,0-0;0-0;0-0;0-0,1,SimpleHill,0-0,0,38,selected,32-64,34-67;30-70;31-68;31-64;25-63;34-60,34-60,2.61,92,3,1004.31867128
GEMS126,2018_Mar_07_1228,Elaine,sf,spatial_frequency,8,6,0,0-0;0-0;0-0;0-0,1,SimpleHill,0-0,0,39,selected,34-60,38-56;33-64;32-58;39-56;35-53;36-59,38-56,3.42,96,4,1011.31041098
GEMS126,2018_Mar_07_1228,Elaine,sf,spatial_frequency,8,6,0,0-0;0-0;0-0;0-0,2,SimpleHill,0-0,0,0,selected,0-0,1-0;2-2;7-2;0-4;2-3;7-0,2-3,6.49,9,9,1037.45909618
GEMS126,2018_Mar_07_1228,Elaine,sf,spatial_frequency,8,6,0,0-0;0-0;0-0;0-0,2,SimpleHill,0-0,0,1,selected,2-3,7-1;7-4;6-8;7-9;8-6;10-3,8-6,4.48,26,17,1045.49805944
GEMS126,2018_Mar_07_1228,Elaine,sf,spatial_frequency,8,6,0,0-0;0-0;0-0;0-0,2,SimpleHill,0-0,0,2,selected,8-6,14-3;3-9;13-2;9-0;15-5;10-3,3-9,5.48,22,-4,1054.53891893
GEMS126,2018_Mar_07_1228,Elaine,sf,spatial_frequency,8,6,0,0-0;0-0;0-0;0-0,2,SimpleHill,0-0,0,3,selected,3-9,6-10;6-12;2-7;4-3;8-15;7-12,7-12,2.76,34,12,1060.86564758
GEMS126,2018_Mar_07_1228,Elaine,sf,spatial_frequency,8,6,0,0-0;0-0;0-0;0-0,2,SimpleHill,0-0,0,4,selected,7-12,8-6;12-8;1-8;14-9;4-5;5-12,8-6,4.62,26,-8,1069.05776069
GEMS126,2018_Mar_07_1228,Elaine,sf,spatial_frequency,8,6,0,0-0;0-0;0-0;0-0,2,SimpleHill,0-0,0,5,selected,8-6,5-11;9-13;12-5;4-4;8-0;9-11,9-13,4.15,39,13,1076.77946363
GEMS126,2018_Mar_07_1228,Elaine,sf,spatial_frequency,8,6,0,0-0;0-0;0-0;0-0,2,SimpleHill,0-0,0,6,selected,9-13,5-15;16-15;11-17;13-11;8-19;6-10,16-15,4.43,52,13,1084.79371799
GEMS126,2018_Mar_07_1228,Elaine,sf,spatial_frequency,8,6,0,0-0;0-0;0-0;0-0,2,SimpleHill,0-0,0,7,selected,16-15,22-10;21-18;11-20;18-14;13-22;18-16,18-14,5.04,53,1,1093.42394714
GEMS126,2018_Mar_07_1228,Elaine,sf,spatial_frequency,8,6,0,0-0;0-0;0-0;0-0,2,SimpleHill,0-0,0,8,selected,18-14,24-18;17-10;19-15;14-20;13-18;11-14,13-18,7.83,52,-1,1104.82968038
GEMS126,2018_Mar_07_1228,Elaine,sf,spatial_frequency,8,6,0,0-0;0-0;0-0;0-0,2,SimpleHill,0-0,0,9,selected,13-18,17-18;10-22;7-16;14-18;16-12;17-16,10-22,5.15,52,0,1113.54655121
GEMS126,2018_Mar_07_1228,Elaine,sf,spatial_frequency,8,6,0,0-0;0-0;0-0;0-0,2,SimpleHill,0-0,0,10,selected,10-22,5-21;3-21;2-22;14-28;7-17;15-23,14-28,4.65,64,12,1121.76968577
GEMS126,2018_Mar_07_1228,Elaine,sf,spatial_frequency,8,6,0,0-0;0-0;0-0;0-0,2,SimpleHill,0-0,0,11,selected,14-28,14-24;14-30;20-23;9-23;11-23;8-33,20-23,3.6,67,3,1128.92868435
GEMS126,2018_Mar_07_1228,Elaine,sf,spatial_frequency,8,6,0,0-0;0-0;0-0;0-0,2,SimpleHill,0-0,0,12,selected,20-23,21-26;19-18;20-18;18-24;21-28;23-16,21-28,2.79,73,6,1135.28075921
GEMS126,2018_Mar_07_1228,Elaine,sf,spatial_frequency,8,6,0,0-0;0-0;0-0;0-0,2,SimpleHill,0-0,0,13,selected,21-28,21-32;14-29;19-35;18-22;27-32;27-23,19-35,2.38,76,3,1141.21787064
GEMS126,2018_Mar_07_1228,Elaine,sf,spatial_frequency,8,6,0,0-0;0-0;0-0;0-0,2,SimpleHill,0-0,0,14,selected,19-35,22-36;12-35;15-30;19-27;20-42;25-31,15-30,2.93,67,-9,1147.72427265
GEMS126,2018_Mar_07_1228,Elaine,sf,spatial_frequency,8,6,0,0-0;0-0;0-0;0-0,2,SimpleHill,0-0,0,15,selected,15-30,12-26;12-36;18-34;17-34;20-34;8-31,12-36,2.19,67,0,1153.48051453
GEMS126,2018_Mar_07_1228,Elaine,sf,spatial_frequency,8,6,0,0-0;0-0;0-0;0-0,2,SimpleHill,0-0,0,16,selected,12-36,14-32;6-34;11-36;12-38;7-41;9-35,9-35,3.68,61,-6,1160.74257169
GEMS126,2018_Mar_07_1228,Elaine,sf,spatial_frequency,8,6,0,0-0;0-0;0-0;0-0,2,SimpleHill,0-0,0,17,selected,9-35,3-30;9-33;8-42;3-38;8-33;6-37,3-38,3.4,52,-9,1167.73767172
GEMS126,2018_Mar_07_1228,Elaine,sf,spatial_frequency,8,6,0,0-0;0-0;0-0;0-0,2,SimpleHill,0-0,0,18,selected,3-38,7-42;0-41;9-34;1-33;0-34;8-43,9-34,2.41,61,9,1173.72919247
GEMS126,2018_Mar_07_1228,Elaine,sf,spatial_frequency,8,6,0,0-0;0-0;0-0;0-0,2,SimpleHill,0-0,0,19,selected,9-34,12-36;13-34;7-33;12-34;14-32;8-29,12-34,3.41,66,5,1180.72127082
GEMS126,2018_Mar_07_1228,Elaine,sf,spatial_frequency,8,6,0,0-0;0-0;0-0;0-0,2,SimpleHill,0-0,0,20,selected,12-34,16-38;15-32;15-40;12-27;15-38;6-29,16-38,3.88,74,8,1188.1632142
GEMS126,2018_Mar_07_1228,Elaine,sf,spatial_frequency,8,6,0,0-0;0-0;0-0;0-0,2,SimpleHill,0-0,0,21,selected,16-38,21-38;12-40;23-37;10-40;18-38;22-37,10-40,3.21,66,-8,1194.93687232
GEMS126,2018_Mar_07_1228,Elaine,sf,spatial_frequency,8,6,0,0-0;0-0;0-0;0-0,2,SimpleHill,0-0,0,22,selected,10-40,17-37;6-39;9-34;13-35;3-38;15-41,6-39,4.73,58,-8,1203.22609029
GEMS126,2018_Mar_07_1228,Elaine,sf,spatial_frequency,8,6,0,0-0;0-0;0-0;0-0,2,SimpleHill,0-0,0,23,selected,6-39,8-36;7-42;0-36;7-45;1-40;0-44,7-45,2.5,62,4,1209.30476967
GEMS126,2018_Mar_07_1228,Elaine,sf,spatial_frequency,8,6,0,0-0;0-0;0-0;0-0,2,SimpleHill,0-0,0,24,selected,7-45,11-42;2-45;9-47;12-50;2-50;9-41,9-41,2.55,64,2,1215.43210982
GEMS126,2018_Mar_07_1228,Elaine,sf,spatial_frequency,8,6,0,0-0;0-0;0-0;0-0,2,SimpleHill,0-0,0,25,selected,9-41,9-42;16-41;5-37;7-44;4-45;3-42,16-41,3.39,75,11,1222.39833942
GEMS126,2018_Mar_07_1228,Elaine,sf,spatial_frequency,8,6,0,0-0;0-0;0-0;0-0,2,SimpleHill,0-0,0,26,selected,16-41,14-45;15-35;18-45;12-41;22-43;17-42,17-42,2.29,76,1,1228.24930372
GEMS126,2018_Mar_07_1228,Elaine,sf,spatial_frequency,8,6,0,0-0;0-0;0-0;0-0,2,SimpleHill,0-0,0,27,selected,17-42,14-47;21-48;20-36;15-39;14-39;21-38,21-38,2.43,80,4,1234.26494632
GEMS126,2018_Mar_07_1228,Elaine,sf,spatial_frequency,8,6,0,0-0;0-0;0-0;0-0,2,SimpleHill,0-0,0,28,selected,21-38,22-37;22-42;18-38;14-36;20-34;21-45,18-38,1.92,76,-4,1239.75191679
GEMS126,2018_Mar_07_1228,Elaine,sf,spatial_frequency,8,6,0,0-0;0-0;0-0;0-0,2,SimpleHill,0-0,0,29,selected,18-38,23-39;19-32;25-38;17-39;13-36;26-38,13-36,7.09,68,-8,1250.43091428
GEMS126,2018_Mar_07_1228,Elaine,sf,spatial_frequency,8,6,0,0-0;0-0;0-0;0-0,2,SimpleHill,0-0,0,30,selected,13-36,8-40;7-40;19-36;19-41;7-37;12-43,19-41,2.31,79,11,1256.31363623
GEMS126,2018_Mar_07_1228,Elaine,sf,spatial_frequency,8,6,0,0-0;0-0;0-0;0-0,2,SimpleHill,0-0,0,31,selected,19-41,21-36;21-40;22-43;20-35;20-42;18-43,20-42,3.72,80,1,1263.59733869
GEMS126,2018_Mar_07_1228,Elaine,sf,spatial_frequency,8,6,0,0-0;0-0;0-0;0-0,2,SimpleHill,0-0,0,32,selected,20-42,25-48;26-39;19-44;14-41;14-44;27-45,14-41,5.73,72,-8,1272.89228728
GEMS126,2018_Mar_07_1228,Elaine,sf,spatial_frequency,8,6,0,0-0;0-0;0-0;0-0,2,SimpleHill,0-0,0,33,selected,14-41,18-41;19-40;13-47;8-46;10-46;18-44,10-46,8.17,67,-5,1284.64739731
GEMS126,2018_Mar_07_1228,Elaine,sf,spatial_frequency,8,6,0,0-0;0-0;0-0;0-0,2,SimpleHill,0-0,0,34,selected,10-46,11-40;13-49;9-45;13-44;14-52;14-49,11-40,2.4,67,0,1290.60104632
GEMS126,2018_Mar_07_1228,Elaine,sf,spatial_frequency,8,6,0,0-0;0-0;0-0;0-0,2,SimpleHill,0-0,0,35,selected,11-40,18-37;9-38;8-44;11-40;15-38;6-41,15-38,2.49,72,5,1296.64297203
GEMS126,2018_Mar_07_1228,Elaine,sf,spatial_frequency,8,6,0,0-0;0-0;0-0;0-0,2,SimpleHill,0-0,0,36,selected,15-38,9-40;15-40;9-42;17-45;13-37;9-36,13-37,1.19,69,-3,1301.41021358
GEMS126,2018_Mar_07_1228,Elaine,sf,spatial_frequency,8,6,0,0-0;0-0;0-0;0-0,2,SimpleHill,0-0,0,37,selected,13-37,18-40;9-39;17-34;13-32;6-38;7-35,17-34,2.88,73,4,1307.87275459
GEMS126,2018_Mar_07_1228,Elaine,sf,spatial_frequency,8,6,0,0-0;0-0;0-0;0-0,2,SimpleHill,0-0,0,38,selected,17-34,15-32;17-39;16-27;19-33;16-33;15-41,17-39,2.97,75,2,1314.40961916
GEMS126,2018_Mar_07_1228,Elaine,sf,spatial_frequency,8,6,0,0-0;0-0;0-0;0-0,2,SimpleHill,0-0,0,39,selected,17-39,21-38;14-40;13-36;17-47;16-34;14-42,14-40,3.67,72,-3,1321.64136005
GEMS126,2018_Mar_07_1228,Elaine,sf,spatial_frequency,8,6,0,0-0;0-0;0-0;0-0,3,SimpleHill,0-0,0,0,selected,0-0,0-4;5-0;1-3;6-0;0-0;7-0,0-0,13.49,0,0,1366.47556014
GEMS126,2018_Mar_07_1228,Elaine,sf,spatial_frequency,8,6,0,0-0;0-0;0-0;0-0,3,SimpleHill,0-0,0,1,selected,0-0,4-6;2-5;1-2;0-3;7-3;1-4,4-6,6.34,18,18,1376.38772132
GEMS126,2018_Mar_07_1228,Elaine,sf,spatial_frequency,8,6,0,0-0;0-0;0-0;0-0,3,SimpleHill,0-0,0,2,selected,4-6,8-7;7-6;5-1;2-2;10-7;1-11,10-7,5.51,31,13,1385.45191971
GEMS126,2018_Mar_07_1228,Elaine,sf,spatial_frequency,8,6,0,0-0;0-0;0-0;0-0,3,SimpleHill,0-0,0,3,selected,10-7,8-10;7-7;6-1;8-0;8-11;16-11,8-10,4.4,32,1,1393.42447049
GEMS126,2018_Mar_07_1228,Elaine,sf,spatial_frequency,8,6,0,0-0;0-0;0-0;0-0,3,SimpleHill,0-0,0,4,selected,8-10,10-17;10-13;7-6;6-5;4-14;7-16,10-13,3.68,40,8,1400.6700637
GEMS126,2018_Mar_07_1228,Elaine,sf,spatial_frequency,8,6,0,0-0;0-0;0-0;0-0,3,SimpleHill,0-0,0,5,selected,10-13,4-12;11-9;13-10;8-8;15-11;5-15,4-12,7.02,28,-12,1411.26436887
GEMS126,2018_Mar_07_1228,Elaine,sf,spatial_frequency,8,6,0,0-0;0-0;0-0;0-0,3,SimpleHill,0-0,0,6,selected,4-12,7-19;11-10;9-11;2-10;1-16;6-5,7-19,6.45,43,15,1421.27916579
GEMS126,2018_Mar_07_1228,Elaine,sf,spatial_frequency,8,6,0,0-0;0-0;0-0;0-0,3,SimpleHill,0-0,0,7,selected,7-19,13-19;5-15;12-21;7-26;10-18;12-18,7-26,6.03,51,8,1430.88047106
GEMS126,2018_Mar_07_1228,Elaine,sf,spatial_frequency,8,6,0,0-0;0-0;0-0;0-0,3,SimpleHill,0-0,0,8,selected,7-26,11-21;4-24;9-20;3-23;14-27;10-19,10-19,3.12,48,-3,1437.56063176
GEMS126,2018_Mar_07_1228,Elaine,sf,spatial_frequency,8,6,0,0-0;0-0;0-0;0-0,3,SimpleHill,0-0,0,9,selected,10-19,12-24;16-20;17-16;6-14;6-21;8-20,12-24,5.24,57,9,1446.38410747
GEMS126,2018_Mar_07_1228,Elaine,sf,spatial_frequency,8,6,0,0-0;0-0;0-0;0-0,3,SimpleHill,0-0,0,10,selected,12-24,12-16;4-24;18-22;15-22;14-28;13-21,4-24,3.71,44,-13,1453.6487958
GEMS126,2018_Mar_07_1228,Elaine,sf,spatial_frequency,8,6,0,0-0;0-0;0-0;0-0,3,SimpleHill,0-0,0,11,selected,4-24,4-27;2-23;7-25;11-23;3-27;10-28,3-27,2.87,45,1,1460.10247409
GEMS126,2018_Mar_07_1228,Elaine,sf,spatial_frequency,8,6,0,0-0;0-0;0-0;0-0,3,SimpleHill,0-0,0,12,selected,3-27,6-23;8-24;8-29;7-27;6-33;8-30,8-30,2.65,56,11,1466.3240005
GEMS126,2018_Mar_07_1228,Elaine,sf,spatial_frequency,8,6,0,0-0;0-0;0-0;0-0,3,SimpleHill,0-0,0,13,selected,8-30,10-28;2-25;1-29;1-33;2-35;8-34,1-29,6.13,43,-13,1476.00434045
GEMS126,2018_Mar_07_1228,Elaine,sf,spatial_frequency,8,6,0,0-0;0-0;0-0;0-0,3,SimpleHill,0-0,0,14,selected,1-29,2-35;3-34;7-30;1-29;0-30;0-31,2-35,3.19,49,6,1482.7672361
GEMS126,2018_Mar_07_1228,Elaine,sf,spatial_frequency,8,6,0,0-0;0-0;0-0;0-0,3,SimpleHill,0-0,0,15,selected,2-35,5-35;8-39;5-29;8-38;1-32;5-28,1-32,2.59,45,-4,1488.93083281
GEMS126,2018_Mar_07_1228,Elaine,sf,spatial_frequency,8,6,0,0-0;0-0;0-0;0-0,3,SimpleHill,0-0,0,16,selected,1-32,6-28;1-39;3-25;3-33;0-30;2-36,6-28,3.35,51,6,1495.8640692
GEMS126,2018_Mar_07_1228,Elaine,sf,spatial_frequency,8,6,0,0-0;0-0;0-0;0-0,3,SimpleHill,0-0,0,17,selected,6-28,13-26;4-28;6-21;3-29;1-30;10-30,1-30,1.25,43,-8,1500.6791332
GEMS126,2018_Mar_07_1228,Elaine,sf,spatial_frequency,8,6,0,0-0;0-0;0-0;0-0,3,SimpleHill,0-0,0,18,selected,1-30,3-23;0-28;5-31;5-35;7-31;7-28,7-31,1.79,55,12,1506.04244458
GEMS126,2018_Mar_07_1228,Elaine,sf,spatial_frequency,8,6,0,0-0;0-0;0-0;0-0,3,SimpleHill,0-0,0,19,selected,7-31,2-35;10-33;9-37;7-24;12-26;9-33,2-35,3.71,49,-6,1513.3148561
GEMS126,2018_Mar_07_1228,Elaine,sf,spatial_frequency,8,6,0,0-0;0-0;0-0;0-0,3,SimpleHill,0-0,0,20,selected,2-35,7-30;4-36;4-34;7-35;5-28;6-31,7-35,6.22,58,9,1523.09754787
GEMS126,2018_Mar_07_1228,Elaine,sf,spatial_frequency,8,6,0,0-0;0-0;0-0;0-0,3,SimpleHill,0-0,0,21,selected,7-35,5-40;12-32;4-28;3-40;10-31;9-30,10-31,3.68,60,2,1530.34014149
GEMS126,2018_Mar_07_1228,Elaine,sf,spatial_frequency,8,6,0,0-0;0-0;0-0;0-0,3,SimpleHill,0-0,0,22,selected,10-31,11-32;13-26;9-33;6-36;8-37;15-29,11-32,6.76,63,3,1540.67324446
GEMS126,2018_Mar_07_1228,Elaine,sf,spatial_frequency,8,6,0,0-0;0-0;0-0;0-0,3,SimpleHill,0-0,0,23,selected,11-32,16-33;11-33;8-29;7-37;16-35;15-35,15-35,2.47,71,8,1546.72582541
GEMS126,2018_Mar_07_1228,Elaine,sf,spatial_frequency,8,6,0,0-0;0-0;0-0;0-0,3,SimpleHill,0-0,0,24,selected,15-35,20-31;16-35;17-40;20-37;19-30;11-40,20-31,1.86,74,3,1552.15330894
GEMS126,2018_Mar_07_1228,Elaine,sf,spatial_frequency,8,6,0,0-0;0-0;0-0;0-0,3,SimpleHill,0-0,0,25,selected,20-31,15-25;22-27;22-30;22-31;26-34;14-28,14-28,1.22,64,-10,1556.9568733
GEMS126,2018_Mar_07_1228,Elaine,sf,spatial_frequency,8,6,0,0-0;0-0;0-0;0-0,3,SimpleHill,0-0,0,26,selected,14-28,9-28;21-31;20-25;14-29;19-29;17-31,20-25,1.97,69,5,1562.49618434
GEMS126,2018_Mar_07_1228,Elaine,sf,spatial_frequency,8,6,0,0-0;0-0;0-0;0-0,3,SimpleHill,0-0,0,27,selected,20-25,18-21;15-29;21-28;18-22;25-30;14-23,15-29,1.85,66,-3,1567.93189008
GEMS126,2018_Mar_07_1228,Elaine,sf,spatial_frequency,8,6,0,0-0;0-0;0-0;0-0,3,SimpleHill,0-0,0,28,selected,15-29,19-25;10-25;17-35;10-30;15-37;17-25,17-25,2.46,65,-1,1573.96416565
GEMS126,2018_Mar_07_1228,Elaine,sf,spatial_frequency,8,6,0,0-0;0-0;0-0;0-0,3,SimpleHill,0-0,0,29,selected,17-25,22-19;20-21;22-22;13-28;14-21;22-24,13-28,3.22,62,-3,1580.75839803
GEMS126,2018_Mar_07_1228,Elaine,sf,spatial_frequency,8,6,0,0-0;0-0;0-0;0-0,3,SimpleHill,0-0,0,30,selected,13-28,10-29;13-28;7-25;17-33;12-22;10-30,13-28,2.22,62,0,1586.54601218
GEMS126,2018_Mar_07_1228,Elaine,sf,spatial_frequency,8,6,0,0-0;0-0;0-0;0-0,3,SimpleHill,0-0,0,31,selected,13-28,16-31;17-24;14-22;14-23;7-31;13-30,16-31,4.29,69,7,1594.40306367
GEMS126,2018_Mar_07_1228,Elaine,sf,spatial_frequency,8,6,0,0-0;0-0;0-0;0-0,3,SimpleHill,0-0,0,32,selected,16-31,13-28;13-30;20-37;21-31;15-38;13-32,13-32,4.96,66,-3,1602.94101239
GEMS126,2018_Mar_07_1228,Elaine,sf,spatial_frequency,8,6,0,0-0;0-0;0-0;0-0,3,SimpleHill,0-0,0,33,selected,13-32,18-31;14-30;7-36;13-39;8-38;20-29,20-29,3.17,73,7,1609.69754268
GEMS126,2018_Mar_07_1228,Elaine,sf,spatial_frequency,8,6,0,0-0;0-0;0-0;0-0,3,SimpleHill,0-0,0,34,selected,20-29,27-31;15-35;23-27;17-30;18-31;15-33,27-31,5.75,82,9,1619.02436704
GEMS126,2018_Mar_07_1228,Elaine,sf,spatial_frequency,8,6,0,0-0;0-0;0-0;0-0,3,SimpleHill,0-0,0,35,selected,27-31,29-24;30-27;24-38;26-25;23-33;24-35,30-27,2.51,81,-1,1625.10932087
GEMS126,2018_Mar_07_1228,Elaine,sf,spatial_frequency,8,6,0,0-0;0-0;0-0;0-0,3,SimpleHill,0-0,0,36,selected,30-27,27-24;25-21;25-30;24-27;34-31;23-26,25-30,2.27,79,-2,1630.93051816
GEMS126,2018_Mar_07_1228,Elaine,sf,spatial_frequency,8,6,0,0-0;0-0;0-0;0-0,3,SimpleHill,0-0,0,37,selected,25-30,27-31;29-28;32-27;19-33;28-36;23-35,28-36,2.86,86,7,1637.36786438
GEMS126,2018_Mar_07_1228,Elaine,sf,spatial_frequency,8,6,0,0-0;0-0;0-0;0-0,3,SimpleHill,0-0,0,38,selected,28-36,25-30;33-42;30-42;35-37;31-40;33-34,31-40,1.86,90,4,1642.80089479
GEMS126,2018_Mar_07_1228,Elaine,sf,spatial_frequency,8,6,0,0-0;0-0;0-0;0-0,3,SimpleHill,0-0,0,39,selected,31-40,30-42;28-47;24-42;34-45;36-41;32-35,34-45,2.95,94,4,1649.30993148
GEMS126,2018_Mar_07_1228,Elaine,sf,spatial_frequency,8,6,0,0-0;0-0;0-0;0-0,4,SimpleHill,0-0,0,0,selected,0-0,1-5;5-0;5-5;4-2;0-7;8-0,0-7,3.15,13,13,1685.25855279
GEMS126,2018_Mar_07_1228,Elaine,sf,spatial_frequency,8,6,0,0-0;0-0;0-0;0-0,4,SimpleHill,0-0,0,1,selected,0-7,4-12;0-13;5-5;5-1;6-12;5-12,0-13,2.42,22,9,1691.23347995
GEMS126,2018_Mar_07_1228,Elaine,sf,spatial_frequency,8,6,0,0-0;0-0;0-0;0-0,4,SimpleHill,0-0,0,2,selected,0-13,5-14;6-14;5-17;6-16;4-9;6-12,6-12,3.2,32,10,1698.00161103
GEMS126,2018_Mar_07_1228,Elaine,sf,spatial_frequency,8,6,0,0-0;0-0;0-0;0-0,4,SimpleHill,0-0,0,3,selected,6-12,7-7;1-9;6-12;6-18;10-8;2-18,6-18,3.95,40,8,1705.53727045
GEMS126,2018_Mar_07_1228,Elaine,sf,spatial_frequency,8,6,0,0-0;0-0;0-0;0-0,4,SimpleHill,0-0,0,4,selected,6-18,1-23;2-23;6-22;4-15;12-19;8-17,6-22,3.42,45,5,1712.52257212
GEMS126,2018_Mar_07_1228,Elaine,sf,spatial_frequency,8,6,0,0-0;0-0;0-0;0-0,4,SimpleHill,0-0,0,5,selected,6-22,10-23;13-25;2-17;6-20;10-20;9-20,13-25,1.78,60,15,1717.87294056
GEMS126,2018_Mar_07_1228,Elaine,sf,spatial_frequency,8,6,0,0-0;0-0;0-0;0-0,4,SimpleHill,0-0,0,6,selected,13-25,13-29;20-28;18-23;16-31;9-23;8-25,20-28,1.32,72,12,1722.75888105
GEMS126,2018_Mar_07_1228,Elaine,sf,spatial_frequency,8,6,0,0-0;0-0;0-0;0-0,4,SimpleHill,0-0,0,7,selected,20-28,19-32;26-30;25-25;16-22;19-33;22-32,26-30,1.68,80,8,1728.01577288
GEMS126,2018_Mar_07_1228,Elaine,sf,spatial_frequency,8,6,0,0-0;0-0;0-0;0-0,4,SimpleHill,0-0,0,8,selected,26-30,30-24;21-36;27-27;22-34;26-25;29-35,21-36,2.5,79,-1,1734.10503899
GEMS126,2018_Mar_07_1228,Elaine,sf,spatial_frequency,8,6,0,0-0;0-0;0-0;0-0,4,SimpleHill,0-0,0,9,selected,21-36,19-43;27-35;21-30;18-39;23-29;26-39,18-39,3.19,77,-2,1740.86353529
GEMS126,2018_Mar_07_1228,Elaine,sf,spatial_frequency,8,6,0,0-0;0-0;0-0;0-0,4,SimpleHill,0-0,0,10,selected,18-39,18-42;24-36;17-37;17-33;24-35;21-39,24-35,3.51,81,4,1747.92883544
GEMS126,2018_Mar_07_1228,Elaine,sf,spatial_frequency,8,6,0,0-0;0-0;0-0;0-0,4,SimpleHill,0-0,0,11,selected,24-35,27-40;28-33;19-33;17-37;29-39;18-37,19-33,2.91,75,-6,1754.43335434
GEMS126,2018_Mar_07_1228,Elaine,sf,spatial_frequency,8,6,0,0-0;0-0;0-0;0-0,4,SimpleHill,0-0,0,12,selected,19-33,13-38;18-35;15-33;22-33;17-32;26-31,17-32,1.93,71,-4,1759.92840171
GEMS126,2018_Mar_07_1228,Elaine,sf,spatial_frequency,8,6,0,0-0;0-0;0-0;0-0,4,SimpleHill,0-0,0,13,selected,17-32,21-32;18-36;19-37;10-35;11-27;13-38,10-35,1.83,63,-8,1765.31385485
GEMS126,2018_Mar_07_1228,Elaine,sf,spatial_frequency,8,6,0,0-0;0-0;0-0;0-0,4,SimpleHill,0-0,0,14,selected,10-35,4-33;9-30;4-30;12-28;4-39;10-39,10-39,2.64,65,2,1771.53755501
GEMS126,2018_Mar_07_1228,Elaine,sf,spatial_frequency,8,6,0,0-0;0-0;0-0;0-0,4,SimpleHill,0-0,0,15,selected,10-39,14-35;13-43;10-38;6-37;12-36;15-36,12-36,1.89,67,2,1776.99174962
GEMS126,2018_Mar_07_1228,Elaine,sf,spatial_frequency,8,6,0,0-0;0-0;0-0;0-0,4,SimpleHill,0-0,0,16,selected,12-36,14-34;14-43;6-36;12-38;10-37;8-30,6-36,1.52,57,-10,1782.08531937
GEMS126,2018_Mar_07_1228,Elaine,sf,spatial_frequency,8,6,0,0-0;0-0;0-0;0-0,4,SimpleHill,0-0,0,17,selected,6-36,9-42;10-35;7-41;11-40;12-34;8-35,12-34,3.56,66,9,1789.21672438
GEMS126,2018_Mar_07_1228,Elaine,sf,spatial_frequency,8,6,0,0-0;0-0;0-0;0-0,4,SimpleHill,0-0,0,18,selected,12-34,16-39;12-39;13-39;6-29;5-32;6-39,5-32,1.6,53,-13,1794.39093857
GEMS126,2018_Mar_07_1228,Elaine,sf,spatial_frequency,8,6,0,0-0;0-0;0-0;0-0,4,SimpleHill,0-0,0,19,selected,5-32,6-34;2-38;3-25;9-38;1-34;10-36,10-36,2.24,64,11,1800.22026461
GEMS126,2018_Mar_07_1228,Elaine,sf,spatial_frequency,8,6,0,0-0;0-0;0-0;0-0,4,SimpleHill,0-0,0,20,selected,10-36,9-39;4-33;8-41;10-32;9-42;15-39,9-39,1.65,63,-1,1805.45182688
GEMS126,2018_Mar_07_1228,Elaine,sf,spatial_frequency,8,6,0,0-0;0-0;0-0;0-0,4,SimpleHill,0-0,0,21,selected,9-39,6-32;11-33;6-33;8-37;11-32;13-33,11-32,1.71,63,0,1810.71980511
GEMS126,2018_Mar_07_1228,Elaine,sf,spatial_frequency,8,6,0,0-0;0-0;0-0;0-0,4,SimpleHill,0-0,0,22,selected,11-32,13-38;5-31;14-27;15-29;12-37;11-39,12-37,1.08,67,4,1815.37886884
GEMS126,2018_Mar_07_1228,Elaine,sf,spatial_frequency,8,6,0,0-0;0-0;0-0;0-0,4,SimpleHill,0-0,0,23,selected,12-37,8-42;14-34;15-32;15-30;14-36;15-36,14-34,1.7,68,1,1820.63948206
GEMS126,2018_Mar_07_1228,Elaine,sf,spatial_frequency,8,6,0,0-0;0-0;0-0;0-0,4,SimpleHill,0-0,0,24,selected,14-34,17-36;15-32;8-29;13-41;19-35;21-35,21-35,1.19,78,10,1825.39244268
GEMS126,2018_Mar_07_1228,Elaine,sf,spatial_frequency,8,6,0,0-0;0-0;0-0;0-0,4,SimpleHill,0-0,0,25,selected,21-35,20-34;18-42;14-33;25-30;19-36;21-29,19-36,1.39,76,-2,1830.34530618
GEMS126,2018_Mar_07_1228,Elaine,sf,spatial_frequency,8,6,0,0-0;0-0;0-0;0-0,4,SimpleHill,0-0,0,26,selected,19-36,19-37;21-33;23-40;13-37;21-43;16-36,21-33,1.83,77,1,1835.72176792
GEMS126,2018_Mar_07_1228,Elaine,sf,spatial_frequency,8,6,0,0-0;0-0;0-0;0-0,4,SimpleHill,0-0,0,27,selected,21-33,18-35;24-29;19-38;27-28;17-33;18-34,18-34,2.06,74,-3,1841.36091037
GEMS126,2018_Mar_07_1228,Elaine,sf,spatial_frequency,8,6,0,0-0;0-0;0-0;0-0,4,SimpleHill,0-0,0,28,selected,18-34,15-37;13-35;16-27;11-31;22-29;25-36,22-29,2.07,75,1,1847.01292085
GEMS126,2018_Mar_07_1228,Elaine,sf,spatial_frequency,8,6,0,0-0;0-0;0-0;0-0,4,SimpleHill,0-0,0,29,selected,22-29,19-22;23-30;21-28;18-24;23-35;24-36,23-30,1.93,77,2,1852.520496
GEMS126,2018_Mar_07_1228,Elaine,sf,spatial_frequency,8,6,0,0-0;0-0;0-0;0-0,4,SimpleHill,0-0,0,30,selected,23-30,24-25;19-24;20-35;29-29;20-27;21-37,20-27,2.02,71,-6,1858.11745922
GEMS126,2018_Mar_07_1228,Elaine,sf,spatial_frequency,8,6,0,0-0;0-0;0-0;0-0,4,SimpleHill,0-0,0,31,selected,20-27,20-24;14-30;17-20;21-21;14-29;21-28,21-28,1.98,73,2,1863.6762146
GEMS126,2018_Mar_07_1228,Elaine,sf,spatial_frequency,8,6,0,0-0;0-0;0-0;0-0,4,SimpleHill,0-0,0,32,selected,21-28,23-21;26-24;28-30;18-30;19-27;25-23,28-30,2.03,82,9,1869.25809442
GEMS126,2018_Mar_07_1228,Elaine,sf,spatial_frequency,8,6,0,0-0;0-0;0-0;0-0,4,SimpleHill,0-0,0,33,selected,28-30,31-27;25-26;33-26;24-34;26-36;27-30,26-36,1.71,84,2,1874.53154047
GEMS126,2018_Mar_07_1228,Elaine,sf,spatial_frequency,8,6,0,0-0;0-0;0-0;0-0,4,SimpleHill,0-0,0,34,selected,26-36,31-34;24-34;28-35;21-41;27-31;23-33,24-34,2.98,81,-3,1881.08802095
GEMS126,2018_Mar_07_1228,Elaine,sf,spatial_frequency,8,6,0,0-0;0-0;0-0;0-0,4,SimpleHill,0-0,0,35,selected,24-34,25-40;30-35;19-37;21-32;22-27;21-40,21-32,2.96,76,-5,1887.62959921
GEMS126,2018_Mar_07_1228,Elaine,sf,spatial_frequency,8,6,0,0-0;0-0;0-0;0-0,4,SimpleHill,0-0,0,36,selected,21-32,24-30;27-37;26-36;20-37;19-30;17-36,24-30,4.52,78,2,1895.71060342
GEMS126,2018_Mar_07_1228,Elaine,sf,spatial_frequency,8,6,0,0-0;0-0;0-0;0-0,4,SimpleHill,0-0,0,37,selected,24-30,22-31;19-28;28-27;26-37;24-30;30-25,24-30,2.64,78,0,1901.93497129
GEMS126,2018_Mar_07_1228,Elaine,sf,spatial_frequency,8,6,0,0-0;0-0;0-0;0-0,4,SimpleHill,0-0,0,38,selected,24-30,21-29;27-24;19-30;32-30;16-30;31-30,16-30,1.18,68,-10,1906.6684594
GEMS126,2018_Mar_07_1228,Elaine,sf,spatial_frequency,8,6,0,0-0;0-0;0-0;0-0,4,SimpleHill,0-0,0,39,selected,16-30,22-35;16-34;19-35;23-29;20-24;23-33,19-35,3.61,76,8,1913.86355481
