subj_id,date,computer,experimenter,instructions,sight_radius,n_gabors,start_pos_list_ix,start_pos_list,landscape_ix,landscape_name,starting_pos,starting_score,trial,feedback,pos,stims,selected,rt,score,delta,exp_time
GEMS118,2018_Mar_06_1539,George,GH,spatial_frequency,8,6,0,0-0;0-0;0-0;0-0,0,SpatialFrequencyBias,0-0,0,0,training,0-0,0-7;0-5;5-2;0-2;7-2;3-1,5-2,3.71,7,7,113.796067981
GEMS118,2018_Mar_06_1539,George,GH,spatial_frequency,8,6,0,0-0;0-0;0-0;0-0,0,SpatialFrequencyBias,0-0,0,1,training,5-2,5-9;6-5;0-2;7-2;8-5;2-7,5-9,1.05,32,25,120.43532607
GEMS118,2018_Mar_06_1539,George,GH,spatial_frequency,8,6,0,0-0;0-0;0-0;0-0,0,SpatialFrequencyBias,0-0,0,2,training,5-9,1-14;6-2;0-7;8-3;11-7;6-5,1-14,1.79,48,16,127.949592762
GEMS118,2018_Mar_06_1539,George,GH,spatial_frequency,8,6,0,0-0;0-0;0-0;0-0,0,SpatialFrequencyBias,0-0,0,3,training,1-14,1-8;4-13;2-11;2-20;1-18;3-11,1-8,0.92,29,-19,131.860330752
GEMS118,2018_Mar_06_1539,George,GH,spatial_frequency,8,6,0,0-0;0-0;0-0;0-0,0,SpatialFrequencyBias,0-0,0,4,training,1-8,1-14;4-7;2-7;6-4;2-10;6-13,6-4,1.73,15,-14,139.630393442
GEMS118,2018_Mar_06_1539,George,GH,spatial_frequency,8,6,0,0-0;0-0;0-0;0-0,0,SpatialFrequencyBias,0-0,0,5,training,6-4,4-5;6-5;9-5;10-0;6-0;1-0,4-5,1.37,19,4,145.302366285
GEMS118,2018_Mar_06_1539,George,GH,spatial_frequency,8,6,0,0-0;0-0;0-0;0-0,0,SpatialFrequencyBias,0-0,0,6,training,4-5,8-1;1-4;11-2;0-9;8-10;7-5,8-1,1.23,3,-16,149.836763607
GEMS118,2018_Mar_06_1539,George,GH,spatial_frequency,8,6,0,0-0;0-0;0-0;0-0,0,SpatialFrequencyBias,0-0,0,7,training,8-1,2-4;3-3;8-3;13-6;6-4;3-1,2-4,1.07,15,12,153.967981127
GEMS118,2018_Mar_06_1539,George,GH,spatial_frequency,8,6,0,0-0;0-0;0-0;0-0,0,SpatialFrequencyBias,0-0,0,8,training,2-4,2-3;1-6;5-8;1-7;3-7;5-3,2-3,1.31,11,-4,158.074734923
GEMS118,2018_Mar_06_1539,George,GH,spatial_frequency,8,6,0,0-0;0-0;0-0;0-0,0,SpatialFrequencyBias,0-0,0,9,training,2-3,8-6;6-6;4-2;8-5;7-4;2-7,6-6,0.93,22,11,162.770423755
GEMS118,2018_Mar_06_1539,George,GH,spatial_frequency,8,6,0,0-0;0-0;0-0;0-0,0,SpatialFrequencyBias,0-0,0,10,training,6-6,0-6;6-7;10-6;9-12;7-0;6-14,0-6,1.29,22,0,168.037716523
GEMS118,2018_Mar_06_1539,George,GH,spatial_frequency,8,6,0,0-0;0-0;0-0;0-0,0,SpatialFrequencyBias,0-0,0,11,training,0-6,3-8;6-8;3-12;0-7;5-5;3-6,3-8,3.04,29,7,178.308263353
GEMS118,2018_Mar_06_1539,George,GH,spatial_frequency,8,6,0,0-0;0-0;0-0;0-0,0,SpatialFrequencyBias,0-0,0,12,training,3-8,0-15;4-6;7-11;9-13;5-13;5-7,7-11,1.54,39,10,183.830692088
GEMS118,2018_Mar_06_1539,George,GH,spatial_frequency,8,6,0,0-0;0-0;0-0;0-0,0,SpatialFrequencyBias,0-0,0,13,training,7-11,14-14;7-9;3-5;0-11;7-6;1-10,14-14,2.52,48,9,189.526203909
GEMS118,2018_Mar_06_1539,George,GH,spatial_frequency,8,6,0,0-0;0-0;0-0;0-0,0,SpatialFrequencyBias,0-0,0,14,training,14-14,18-16;17-9;14-18;17-13;13-21;9-12,14-18,3.04,59,11,195.618069873
GEMS118,2018_Mar_06_1539,George,GH,spatial_frequency,8,6,0,0-0;0-0;0-0;0-0,0,SpatialFrequencyBias,0-0,0,15,training,14-18,12-17;13-13;8-16;9-20;20-15;22-18,12-17,2.54,56,-3,201.280511636
GEMS118,2018_Mar_06_1539,George,GH,spatial_frequency,8,6,0,0-0;0-0;0-0;0-0,0,SpatialFrequencyBias,0-0,0,16,training,12-17,14-20;12-20;7-12;18-17;6-12;11-23,11-23,2.7,70,14,207.2577348
GEMS118,2018_Mar_06_1539,George,GH,spatial_frequency,8,6,0,0-0;0-0;0-0;0-0,0,SpatialFrequencyBias,0-0,0,17,training,11-23,17-22;11-28;14-17;13-18;4-21;12-19,11-28,1.49,80,10,211.202160306
GEMS118,2018_Mar_06_1539,George,GH,spatial_frequency,8,6,0,0-0;0-0;0-0;0-0,0,SpatialFrequencyBias,0-0,0,18,training,11-28,12-32;16-27;16-25;18-29;11-36;13-34,11-36,2.84,92,12,216.522282773
GEMS118,2018_Mar_06_1539,George,GH,spatial_frequency,8,6,0,0-0;0-0;0-0;0-0,0,SpatialFrequencyBias,0-0,0,19,training,11-36,10-32;9-32;13-36;19-36;13-41;6-41,6-41,3.49,96,4,222.573070921
GEMS118,2018_Mar_06_1539,George,GH,spatial_frequency,8,6,0,0-0;0-0;0-0;0-0,0,SpatialFrequencyBias,0-0,0,20,training,6-41,12-46;0-39;5-39;1-39;9-35;10-36,0-39,4.58,95,-1,229.972400967
GEMS118,2018_Mar_06_1539,George,GH,spatial_frequency,8,6,0,0-0;0-0;0-0;0-0,0,SpatialFrequencyBias,0-0,0,21,training,0-39,4-36;0-37;5-33;5-40;0-46;2-41,4-36,3.61,92,-3,236.389567859
GEMS118,2018_Mar_06_1539,George,GH,spatial_frequency,8,6,0,0-0;0-0;0-0;0-0,0,SpatialFrequencyBias,0-0,0,22,training,4-36,6-32;9-36;3-36;4-31;11-37;8-36,9-36,2.56,92,0,241.914297421
GEMS118,2018_Mar_06_1539,George,GH,spatial_frequency,8,6,0,0-0;0-0;0-0;0-0,0,SpatialFrequencyBias,0-0,0,23,training,9-36,3-36;15-35;9-44;10-40;15-37;11-37,9-44,2.18,98,6,247.391351735
GEMS118,2018_Mar_06_1539,George,GH,spatial_frequency,8,6,0,0-0;0-0;0-0;0-0,0,SpatialFrequencyBias,0-0,0,24,training,9-44,6-45;6-41;4-50;11-45;5-41;11-43,4-50,1.09,100,2,250.841418075
GEMS118,2018_Mar_06_1539,George,GH,spatial_frequency,8,6,0,0-0;0-0;0-0;0-0,0,SpatialFrequencyBias,0-0,0,25,training,4-50,8-45;7-52;11-51;4-52;11-50;4-55,4-55,4.6,99,-1,257.923883877
GEMS118,2018_Mar_06_1539,George,GH,spatial_frequency,8,6,0,0-0;0-0;0-0;0-0,0,SpatialFrequencyBias,0-0,0,26,training,4-55,4-54;1-56;8-51;11-52;3-56;7-56,7-56,2.83,98,-1,263.434180779
GEMS118,2018_Mar_06_1539,George,GH,spatial_frequency,8,6,0,0-0;0-0;0-0;0-0,0,SpatialFrequencyBias,0-0,0,27,training,7-56,14-53;2-58;11-61;3-51;7-63;5-62,11-61,2.23,95,-3,268.531854825
GEMS118,2018_Mar_06_1539,George,GH,spatial_frequency,8,6,0,0-0;0-0;0-0;0-0,0,SpatialFrequencyBias,0-0,0,28,training,11-61,15-58;17-61;16-62;14-64;4-62;8-55,4-62,2.97,94,-1,275.073554741
GEMS118,2018_Mar_06_1539,George,GH,spatial_frequency,8,6,0,0-0;0-0;0-0;0-0,0,SpatialFrequencyBias,0-0,0,29,training,4-62,0-58;1-56;11-60;3-61;11-62;7-59,1-56,2.33,98,4,280.147844096
GEMS118,2018_Mar_06_1539,George,GH,spatial_frequency,8,6,0,0-0;0-0;0-0;0-0,1,SimpleHill,0-0,0,0,selected,0-0,3-4;1-2;6-1;3-6;0-7;1-0,1-0,2.17,1,1,298.105787436
GEMS118,2018_Mar_06_1539,George,GH,spatial_frequency,8,6,0,0-0;0-0;0-0;0-0,1,SimpleHill,0-0,0,1,selected,1-0,1-2;4-6;5-0;2-2;7-4;0-7,4-6,2.28,18,17,303.946583891
GEMS118,2018_Mar_06_1539,George,GH,spatial_frequency,8,6,0,0-0;0-0;0-0;0-0,1,SimpleHill,0-0,0,2,selected,4-6,11-6;0-10;3-6;6-8;7-11;9-4,7-11,3.33,32,14,310.857041159
GEMS118,2018_Mar_06_1539,George,GH,spatial_frequency,8,6,0,0-0;0-0;0-0;0-0,1,SimpleHill,0-0,0,3,selected,7-11,11-15;10-17;12-5;7-6;11-13;4-8,10-17,1.13,46,14,315.559558848
GEMS118,2018_Mar_06_1539,George,GH,spatial_frequency,8,6,0,0-0;0-0;0-0;0-0,1,SimpleHill,0-0,0,4,selected,10-17,17-14;4-20;16-19;11-23;10-11;14-23,11-23,3.18,55,9,322.30645867
GEMS118,2018_Mar_06_1539,George,GH,spatial_frequency,8,6,0,0-0;0-0;0-0;0-0,1,SimpleHill,0-0,0,5,selected,11-23,12-30;11-29;17-18;6-20;10-20;10-17,11-29,1.73,60,5,327.626817686
GEMS118,2018_Mar_06_1539,George,GH,spatial_frequency,8,6,0,0-0;0-0;0-0;0-0,1,SimpleHill,0-0,0,6,selected,11-29,17-34;5-33;6-24;11-35;7-31;14-25,5-33,0.83,53,-7,332.024278391
GEMS118,2018_Mar_06_1539,George,GH,spatial_frequency,8,6,0,0-0;0-0;0-0;0-0,1,SimpleHill,0-0,0,7,selected,5-33,4-34;0-37;8-37;6-26;1-33;7-32,8-37,1.37,61,8,336.957069487
GEMS118,2018_Mar_06_1539,George,GH,spatial_frequency,8,6,0,0-0;0-0;0-0;0-0,1,SimpleHill,0-0,0,8,selected,8-37,9-40;6-35;10-31;12-39;8-34;9-44,9-44,2.81,65,4,343.350569685
GEMS118,2018_Mar_06_1539,George,GH,spatial_frequency,8,6,0,0-0;0-0;0-0;0-0,1,SimpleHill,0-0,0,9,selected,9-44,9-46;11-45;14-39;15-42;5-43;12-45,11-45,1.85,69,4,348.770724642
GEMS118,2018_Mar_06_1539,George,GH,spatial_frequency,8,6,0,0-0;0-0;0-0;0-0,1,SimpleHill,0-0,0,10,selected,11-45,12-41;8-45;11-38;12-43;14-49;16-48,14-49,3.39,74,5,355.731328593
GEMS118,2018_Mar_06_1539,George,GH,spatial_frequency,8,6,0,0-0;0-0;0-0;0-0,1,SimpleHill,0-0,0,11,selected,14-49,20-45;13-48;13-55;18-54;16-43;10-43,13-55,1.32,72,-2,360.638703689
GEMS118,2018_Mar_06_1539,George,GH,spatial_frequency,8,6,0,0-0;0-0;0-0;0-0,1,SimpleHill,0-0,0,12,selected,13-55,7-58;15-55;13-47;9-60;10-55;6-56,13-47,0.86,72,0,365.060473193
GEMS118,2018_Mar_06_1539,George,GH,spatial_frequency,8,6,0,0-0;0-0;0-0;0-0,1,SimpleHill,0-0,0,13,selected,13-47,9-47;15-53;19-52;14-54;11-48;14-50,15-53,2.58,75,3,371.225746976
GEMS118,2018_Mar_06_1539,George,GH,spatial_frequency,8,6,0,0-0;0-0;0-0;0-0,1,SimpleHill,0-0,0,14,selected,15-53,16-48;13-55;14-49;17-48;16-56;15-61,15-61,2.33,73,-2,377.133501702
GEMS118,2018_Mar_06_1539,George,GH,spatial_frequency,8,6,0,0-0;0-0;0-0;0-0,1,SimpleHill,0-0,0,15,selected,15-61,14-59;19-67;21-65;8-64;21-61;15-58,21-65,1.71,78,5,382.420294517
GEMS118,2018_Mar_06_1539,George,GH,spatial_frequency,8,6,0,0-0;0-0;0-0;0-0,1,SimpleHill,0-0,0,16,selected,21-65,13-65;14-62;18-64;18-70;25-65;26-70,26-70,1.65,80,2,387.65928821
GEMS118,2018_Mar_06_1539,George,GH,spatial_frequency,8,6,0,0-0;0-0;0-0;0-0,1,SimpleHill,0-0,0,17,selected,26-70,24-64;21-64;20-68;31-65;19-67;29-70,29-70,4.49,83,3,395.731032827
GEMS118,2018_Mar_06_1539,George,GH,spatial_frequency,8,6,0,0-0;0-0;0-0;0-0,1,SimpleHill,0-0,0,18,selected,29-70,24-68;29-68;24-66;30-70;22-70;33-65,29-68,2.84,84,1,402.135191471
GEMS118,2018_Mar_06_1539,George,GH,spatial_frequency,8,6,0,0-0;0-0;0-0;0-0,1,SimpleHill,0-0,0,19,selected,29-68,24-70;27-67;31-65;24-69;30-68;29-70,27-67,2.88,83,-1,408.598429625
GEMS118,2018_Mar_06_1539,George,GH,spatial_frequency,8,6,0,0-0;0-0;0-0;0-0,1,SimpleHill,0-0,0,20,selected,27-67,32-69;28-64;30-67;25-68;34-68;22-64,32-69,1.6,86,3,413.782531581
GEMS118,2018_Mar_06_1539,George,GH,spatial_frequency,8,6,0,0-0;0-0;0-0;0-0,1,SimpleHill,0-0,0,21,selected,32-69,27-66;27-67;30-65;35-67;28-70;31-66,27-66,1.03,84,-2,418.393950888
GEMS118,2018_Mar_06_1539,George,GH,spatial_frequency,8,6,0,0-0;0-0;0-0;0-0,1,SimpleHill,0-0,0,22,selected,27-66,21-62;27-60;28-59;21-61;21-68;30-67,30-67,1.92,86,2,423.894794493
GEMS118,2018_Mar_06_1539,George,GH,spatial_frequency,8,6,0,0-0;0-0;0-0;0-0,1,SimpleHill,0-0,0,23,selected,30-67,35-70;24-63;23-64;33-66;25-70;30-70,30-70,1.94,84,-2,429.406032787
GEMS118,2018_Mar_06_1539,George,GH,spatial_frequency,8,6,0,0-0;0-0;0-0;0-0,1,SimpleHill,0-0,0,24,selected,30-70,29-65;30-69;32-66;33-69;32-64;26-65,30-69,0.98,84,0,433.968064031
GEMS118,2018_Mar_06_1539,George,GH,spatial_frequency,8,6,0,0-0;0-0;0-0;0-0,1,SimpleHill,0-0,0,25,selected,30-69,33-62;36-66;34-69;29-62;34-67;27-67,34-69,0.94,87,3,438.479165006
GEMS118,2018_Mar_06_1539,George,GH,spatial_frequency,8,6,0,0-0;0-0;0-0;0-0,1,SimpleHill,0-0,0,26,selected,34-69,33-63;31-67;41-70;32-62;30-68;38-68,38-68,3.85,90,3,445.884886983
GEMS118,2018_Mar_06_1539,George,GH,spatial_frequency,8,6,0,0-0;0-0;0-0;0-0,1,SimpleHill,0-0,0,27,selected,38-68,40-64;35-69;37-70;38-67;35-62;44-69,37-70,2.01,88,-2,451.466207654
GEMS118,2018_Mar_06_1539,George,GH,spatial_frequency,8,6,0,0-0;0-0;0-0;0-0,1,SimpleHill,0-0,0,28,selected,37-70,42-67;37-68;39-66;36-63;37-70;35-66,37-68,1.14,90,2,456.185031505
GEMS118,2018_Mar_06_1539,George,GH,spatial_frequency,8,6,0,0-0;0-0;0-0;0-0,1,SimpleHill,0-0,0,29,selected,37-68,41-63;30-68;36-65;34-61;39-62;33-69,30-68,0.71,85,-5,460.470363097
GEMS118,2018_Mar_06_1539,George,GH,spatial_frequency,8,6,0,0-0;0-0;0-0;0-0,1,SimpleHill,0-0,0,30,selected,30-68,28-67;33-70;37-65;36-70;29-61;33-61,33-70,2.59,86,1,466.64613176
GEMS118,2018_Mar_06_1539,George,GH,spatial_frequency,8,6,0,0-0;0-0;0-0;0-0,1,SimpleHill,0-0,0,31,selected,33-70,38-70;29-70;29-64;25-70;31-63;28-68,28-68,2.31,83,-3,472.515757363
GEMS118,2018_Mar_06_1539,George,GH,spatial_frequency,8,6,0,0-0;0-0;0-0;0-0,1,SimpleHill,0-0,0,32,selected,28-68,25-61;26-70;30-65;31-64;25-62;35-70,26-70,1.48,80,-3,477.550178212
GEMS118,2018_Mar_06_1539,George,GH,spatial_frequency,8,6,0,0-0;0-0;0-0;0-0,1,SimpleHill,0-0,0,33,selected,26-70,22-68;31-69;19-68;23-67;28-68;25-66,19-68,1.59,74,-6,482.701398645
GEMS118,2018_Mar_06_1539,George,GH,spatial_frequency,8,6,0,0-0;0-0;0-0;0-0,1,SimpleHill,0-0,0,34,selected,19-68,23-66;19-68;22-61;12-65;25-66;19-63,19-68,2.29,74,0,488.577661371
GEMS118,2018_Mar_06_1539,George,GH,spatial_frequency,8,6,0,0-0;0-0;0-0;0-0,1,SimpleHill,0-0,0,35,selected,19-68,20-70;20-64;22-64;23-67;17-69;18-64,20-64,1.02,78,4,493.171102031
GEMS118,2018_Mar_06_1539,George,GH,spatial_frequency,8,6,0,0-0;0-0;0-0;0-0,1,SimpleHill,0-0,0,36,selected,20-64,20-61;21-58;20-66;19-58;21-65;15-61,15-61,2.23,73,-5,498.981205117
GEMS118,2018_Mar_06_1539,George,GH,spatial_frequency,8,6,0,0-0;0-0;0-0;0-0,1,SimpleHill,0-0,0,37,selected,15-61,16-63;11-64;13-55;14-64;20-57;13-62,11-64,3.74,65,-8,506.28770668
GEMS118,2018_Mar_06_1539,George,GH,spatial_frequency,8,6,0,0-0;0-0;0-0;0-0,1,SimpleHill,0-0,0,38,selected,11-64,12-67;14-70;6-58;15-64;14-59;9-60,14-70,0.71,66,1,510.575699843
GEMS118,2018_Mar_06_1539,George,GH,spatial_frequency,8,6,0,0-0;0-0;0-0;0-0,1,SimpleHill,0-0,0,39,selected,14-70,15-70;19-69;16-65;17-70;14-69;14-70,19-69,2.05,73,7,516.201524922
GEMS118,2018_Mar_06_1539,George,GH,spatial_frequency,8,6,0,0-0;0-0;0-0;0-0,2,SimpleHill,0-0,0,0,selected,0-0,2-1;6-5;3-6;2-4;3-5;3-7,3-7,5.24,18,18,532.131233845
GEMS118,2018_Mar_06_1539,George,GH,spatial_frequency,8,6,0,0-0;0-0;0-0;0-0,2,SimpleHill,0-0,0,1,selected,3-7,2-3;6-1;1-9;10-9;4-10;2-12,2-12,1.45,25,7,537.149658381
GEMS118,2018_Mar_06_1539,George,GH,spatial_frequency,8,6,0,0-0;0-0;0-0;0-0,2,SimpleHill,0-0,0,2,selected,2-12,5-11;3-6;0-6;2-13;2-8;1-13,1-13,1.49,24,-1,542.222622551
GEMS118,2018_Mar_06_1539,George,GH,spatial_frequency,8,6,0,0-0;0-0;0-0;0-0,2,SimpleHill,0-0,0,3,selected,1-13,2-11;7-15;4-18;0-11;0-9;4-15,4-15,1.47,33,9,547.277734832
GEMS118,2018_Mar_06_1539,George,GH,spatial_frequency,8,6,0,0-0;0-0;0-0;0-0,2,SimpleHill,0-0,0,4,selected,4-15,1-11;4-22;6-18;11-14;6-20;1-18,4-22,1.26,42,9,552.108075139
GEMS118,2018_Mar_06_1539,George,GH,spatial_frequency,8,6,0,0-0;0-0;0-0;0-0,2,SimpleHill,0-0,0,5,selected,4-22,3-26;2-19;10-25;2-26;6-23;2-17,3-26,3.93,44,2,559.625672395
GEMS118,2018_Mar_06_1539,George,GH,spatial_frequency,8,6,0,0-0;0-0;0-0;0-0,2,SimpleHill,0-0,0,6,selected,3-26,6-23;7-21;1-31;5-25;0-24;7-31,1-31,1.37,44,0,564.56747314
GEMS118,2018_Mar_06_1539,George,GH,spatial_frequency,8,6,0,0-0;0-0;0-0;0-0,2,SimpleHill,0-0,0,7,selected,1-31,4-29;4-36;7-32;1-27;4-31;0-24,7-32,1.24,56,12,569.386418787
GEMS118,2018_Mar_06_1539,George,GH,spatial_frequency,8,6,0,0-0;0-0;0-0;0-0,2,SimpleHill,0-0,0,8,selected,7-32,9-38;13-27;7-35;10-29;14-30;14-31,9-38,1.53,63,7,574.510090442
GEMS118,2018_Mar_06_1539,George,GH,spatial_frequency,8,6,0,0-0;0-0;0-0;0-0,2,SimpleHill,0-0,0,9,selected,9-38,9-36;7-39;5-32;14-38;12-33;15-37,7-39,1.09,60,-3,579.16060107
GEMS118,2018_Mar_06_1539,George,GH,spatial_frequency,8,6,0,0-0;0-0;0-0;0-0,2,SimpleHill,0-0,0,10,selected,7-39,3-34;11-42;10-37;4-35;5-46;9-42,5-46,2.46,59,-1,585.208940189
GEMS118,2018_Mar_06_1539,George,GH,spatial_frequency,8,6,0,0-0;0-0;0-0;0-0,2,SimpleHill,0-0,0,11,selected,5-46,12-43;7-51;4-39;3-51;5-39;10-44,7-51,0.85,63,4,589.635943849
GEMS118,2018_Mar_06_1539,George,GH,spatial_frequency,8,6,0,0-0;0-0;0-0;0-0,2,SimpleHill,0-0,0,12,selected,7-51,9-52;7-58;11-56;14-51;4-57;9-44,7-58,1.92,61,-2,595.133130395
GEMS118,2018_Mar_06_1539,George,GH,spatial_frequency,8,6,0,0-0;0-0;0-0;0-0,2,SimpleHill,0-0,0,13,selected,7-58,6-64;6-58;12-63;8-65;2-59;11-57,12-63,2.9,67,6,601.588521156
GEMS118,2018_Mar_06_1539,George,GH,spatial_frequency,8,6,0,0-0;0-0;0-0;0-0,2,SimpleHill,0-0,0,14,selected,12-63,8-69;12-70;18-58;18-67;10-61;14-69,12-70,1.65,63,-4,606.82013191
GEMS118,2018_Mar_06_1539,George,GH,spatial_frequency,8,6,0,0-0;0-0;0-0;0-0,2,SimpleHill,0-0,0,15,selected,12-70,7-69;16-67;8-65;12-64;9-66;7-70,7-69,2.31,55,-8,612.70663088
GEMS118,2018_Mar_06_1539,George,GH,spatial_frequency,8,6,0,0-0;0-0;0-0;0-0,2,SimpleHill,0-0,0,16,selected,7-69,5-67;2-66;2-69;12-69;9-65;8-65,2-69,1.24,46,-9,617.517030052
GEMS118,2018_Mar_06_1539,George,GH,spatial_frequency,8,6,0,0-0;0-0;0-0;0-0,2,SimpleHill,0-0,0,17,selected,2-69,2-63;1-65;1-67;2-64;6-64;0-67,2-64,0.99,50,4,622.082773731
GEMS118,2018_Mar_06_1539,George,GH,spatial_frequency,8,6,0,0-0;0-0;0-0;0-0,2,SimpleHill,0-0,0,18,selected,2-64,8-66;3-57;7-60;8-62;1-60;1-66,8-66,2.12,59,9,627.782392021
GEMS118,2018_Mar_06_1539,George,GH,spatial_frequency,8,6,0,0-0;0-0;0-0;0-0,2,SimpleHill,0-0,0,19,selected,8-66,14-64;14-69;5-68;9-68;10-70;6-66,14-69,0.86,66,7,632.201671204
GEMS118,2018_Mar_06_1539,George,GH,spatial_frequency,8,6,0,0-0;0-0;0-0;0-0,2,SimpleHill,0-0,0,20,selected,14-69,21-66;20-68;8-70;10-70;12-68;13-64,8-70,1.95,56,-10,637.719052718
GEMS118,2018_Mar_06_1539,George,GH,spatial_frequency,8,6,0,0-0;0-0;0-0;0-0,2,SimpleHill,0-0,0,21,selected,8-70,3-70;8-70;7-70;14-65;12-69;6-65,8-70,1.5,56,0,642.775968721
GEMS118,2018_Mar_06_1539,George,GH,spatial_frequency,8,6,0,0-0;0-0;0-0;0-0,2,SimpleHill,0-0,0,22,selected,8-70,6-67;14-69;6-69;6-68;8-70;1-69,6-69,1.67,54,-2,648.020943665
GEMS118,2018_Mar_06_1539,George,GH,spatial_frequency,8,6,0,0-0;0-0;0-0;0-0,2,SimpleHill,0-0,0,23,selected,6-69,2-67;9-68;13-67;13-69;3-70;4-68,9-68,0.81,59,5,652.410120051
GEMS118,2018_Mar_06_1539,George,GH,spatial_frequency,8,6,0,0-0;0-0;0-0;0-0,2,SimpleHill,0-0,0,24,selected,9-68,13-68;8-62;16-65;3-65;7-64;14-63,13-68,0.86,66,7,656.841806667
GEMS118,2018_Mar_06_1539,George,GH,spatial_frequency,8,6,0,0-0;0-0;0-0;0-0,2,SimpleHill,0-0,0,25,selected,13-68,11-62;17-67;15-69;13-65;14-63;15-66,17-67,0.77,72,6,661.176594182
GEMS118,2018_Mar_06_1539,George,GH,spatial_frequency,8,6,0,0-0;0-0;0-0;0-0,2,SimpleHill,0-0,0,26,selected,17-67,17-64;24-67;15-68;22-70;16-70;16-60,22-70,3.21,76,4,667.962098464
GEMS118,2018_Mar_06_1539,George,GH,spatial_frequency,8,6,0,0-0;0-0;0-0;0-0,2,SimpleHill,0-0,0,27,selected,22-70,16-68;19-64;26-67;22-68;28-66;21-63,16-68,4.84,70,-6,676.388655915
GEMS118,2018_Mar_06_1539,George,GH,spatial_frequency,8,6,0,0-0;0-0;0-0;0-0,2,SimpleHill,0-0,0,28,selected,16-68,21-64;15-61;13-64;9-67;20-64;17-70,17-70,2.52,70,0,682.504808593
GEMS118,2018_Mar_06_1539,George,GH,spatial_frequency,8,6,0,0-0;0-0;0-0;0-0,2,SimpleHill,0-0,0,29,selected,17-70,19-70;10-67;18-65;18-69;21-64;19-65,10-67,9.01,62,-8,695.090672979
GEMS118,2018_Mar_06_1539,George,GH,spatial_frequency,8,6,0,0-0;0-0;0-0;0-0,2,SimpleHill,0-0,0,30,selected,10-67,6-64;8-61;9-68;3-67;6-65;7-63,9-68,5.08,59,-3,703.74229881
GEMS118,2018_Mar_06_1539,George,GH,spatial_frequency,8,6,0,0-0;0-0;0-0;0-0,2,SimpleHill,0-0,0,31,selected,9-68,11-63;3-69;15-63;11-70;9-69;8-68,8-68,2.41,58,-1,709.742210464
GEMS118,2018_Mar_06_1539,George,GH,spatial_frequency,8,6,0,0-0;0-0;0-0;0-0,2,SimpleHill,0-0,0,32,selected,8-68,8-62;2-70;9-70;5-68;8-64;6-64,9-70,1.19,58,0,714.519369289
GEMS118,2018_Mar_06_1539,George,GH,spatial_frequency,8,6,0,0-0;0-0;0-0;0-0,2,SimpleHill,0-0,0,33,selected,9-70,4-65;3-66;11-63;8-65;14-65;9-67,3-66,1.16,50,-8,719.263414845
GEMS118,2018_Mar_06_1539,George,GH,spatial_frequency,8,6,0,0-0;0-0;0-0;0-0,2,SimpleHill,0-0,0,34,selected,3-66,1-65;0-59;1-66;7-60;7-66;8-67,1-66,1.86,46,-4,724.706880553
GEMS118,2018_Mar_06_1539,George,GH,spatial_frequency,8,6,0,0-0;0-0;0-0;0-0,2,SimpleHill,0-0,0,35,selected,1-66,2-70;3-67;8-69;7-62;2-65;4-62,3-67,1.42,50,4,729.706935929
GEMS118,2018_Mar_06_1539,George,GH,spatial_frequency,8,6,0,0-0;0-0;0-0;0-0,2,SimpleHill,0-0,0,36,selected,3-67,9-64;10-68;10-65;1-62;1-61;10-64,10-68,0.98,61,11,734.290149307
GEMS118,2018_Mar_06_1539,George,GH,spatial_frequency,8,6,0,0-0;0-0;0-0;0-0,2,SimpleHill,0-0,0,37,selected,10-68,9-66;14-68;14-70;16-66;7-69;17-70,14-68,0.29,67,6,738.123266418
GEMS118,2018_Mar_06_1539,George,GH,spatial_frequency,8,6,0,0-0;0-0;0-0;0-0,2,SimpleHill,0-0,0,38,selected,14-68,11-69;12-70;22-68;17-69;7-67;18-65,12-70,0.37,63,-4,742.055219512
GEMS118,2018_Mar_06_1539,George,GH,spatial_frequency,8,6,0,0-0;0-0;0-0;0-0,2,SimpleHill,0-0,0,39,selected,12-70,11-69;9-70;9-65;7-66;5-69;17-69,9-65,0.26,61,-2,745.902758399
GEMS118,2018_Mar_06_1539,George,GH,spatial_frequency,8,6,0,0-0;0-0;0-0;0-0,3,SimpleHill,0-0,0,0,selected,0-0,1-5;6-3;3-7;0-2;5-1;5-4,3-7,2.31,18,18,758.439081718
GEMS118,2018_Mar_06_1539,George,GH,spatial_frequency,8,6,0,0-0;0-0;0-0;0-0,3,SimpleHill,0-0,0,1,selected,3-7,9-7;5-2;8-6;0-6;8-10;2-6,9-7,2.85,29,11,764.85345388
GEMS118,2018_Mar_06_1539,George,GH,spatial_frequency,8,6,0,0-0;0-0;0-0;0-0,3,SimpleHill,0-0,0,2,selected,9-7,12-1;6-8;5-11;13-9;3-6;11-0,5-11,1.63,29,0,770.064484595
GEMS118,2018_Mar_06_1539,George,GH,spatial_frequency,8,6,0,0-0;0-0;0-0;0-0,3,SimpleHill,0-0,0,3,selected,5-11,6-16;8-13;6-17;0-13;5-3;6-18,8-13,2.97,37,8,776.615971665
GEMS118,2018_Mar_06_1539,George,GH,spatial_frequency,8,6,0,0-0;0-0;0-0;0-0,3,SimpleHill,0-0,0,4,selected,8-13,14-8;12-9;7-9;12-18;4-7;14-13,12-18,1.89,50,13,782.083259312
GEMS118,2018_Mar_06_1539,George,GH,spatial_frequency,8,6,0,0-0;0-0;0-0;0-0,3,SimpleHill,0-0,0,5,selected,12-18,12-14;7-12;13-16;6-16;5-21;17-24,17-24,1.32,64,14,786.986437352
GEMS118,2018_Mar_06_1539,George,GH,spatial_frequency,8,6,0,0-0;0-0;0-0;0-0,3,SimpleHill,0-0,0,6,selected,17-24,22-29;19-25;16-29;18-26;10-23;17-29,17-29,2.84,69,5,793.40922091
GEMS118,2018_Mar_06_1539,George,GH,spatial_frequency,8,6,0,0-0;0-0;0-0;0-0,3,SimpleHill,0-0,0,7,selected,17-29,21-29;21-26;11-25;18-23;13-26;21-35,21-35,3.91,78,9,800.898229727
GEMS118,2018_Mar_06_1539,George,GH,spatial_frequency,8,6,0,0-0;0-0;0-0;0-0,3,SimpleHill,0-0,0,8,selected,21-35,19-29;20-35;16-34;26-40;23-35;23-30,26-40,3.71,86,8,808.179303126
GEMS118,2018_Mar_06_1539,George,GH,spatial_frequency,8,6,0,0-0;0-0;0-0;0-0,3,SimpleHill,0-0,0,9,selected,26-40,32-38;32-44;29-38;22-37;21-42;29-41,32-44,2.23,92,6,813.979884094
GEMS118,2018_Mar_06_1539,George,GH,spatial_frequency,8,6,0,0-0;0-0;0-0;0-0,3,SimpleHill,0-0,0,10,selected,32-44,26-43;28-45;32-52;29-43;25-44;30-49,32-52,3.35,93,1,820.919078645
GEMS118,2018_Mar_06_1539,George,GH,spatial_frequency,8,6,0,0-0;0-0;0-0;0-0,3,SimpleHill,0-0,0,11,selected,32-52,30-53;30-55;34-50;37-47;31-46;26-47,30-55,1.23,91,-2,825.726629632
GEMS118,2018_Mar_06_1539,George,GH,spatial_frequency,8,6,0,0-0;0-0;0-0;0-0,3,SimpleHill,0-0,0,12,selected,30-55,30-58;37-54;29-50;34-56;31-48;27-53,30-58,2.4,90,-1,831.698186835
GEMS118,2018_Mar_06_1539,George,GH,spatial_frequency,8,6,0,0-0;0-0;0-0;0-0,3,SimpleHill,0-0,0,13,selected,30-58,35-58;27-59;24-58;36-63;29-56;27-60,27-59,1.02,87,-3,836.274279751
GEMS118,2018_Mar_06_1539,George,GH,spatial_frequency,8,6,0,0-0;0-0;0-0;0-0,3,SimpleHill,0-0,0,14,selected,27-59,27-51;24-52;30-55;25-58;24-66;27-58,24-66,2.7,81,-6,842.531603552
GEMS118,2018_Mar_06_1539,George,GH,spatial_frequency,8,6,0,0-0;0-0;0-0;0-0,3,SimpleHill,0-0,0,15,selected,24-66,28-64;19-68;30-64;19-65;25-70;25-67,30-64,2.45,88,7,848.573139741
GEMS118,2018_Mar_06_1539,George,GH,spatial_frequency,8,6,0,0-0;0-0;0-0;0-0,3,SimpleHill,0-0,0,16,selected,30-64,32-69;35-62;28-64;31-58;25-64;26-62,31-58,1.39,91,3,853.543850299
GEMS118,2018_Mar_06_1539,George,GH,spatial_frequency,8,6,0,0-0;0-0;0-0;0-0,3,SimpleHill,0-0,0,17,selected,31-58,24-61;24-59;31-56;27-63;34-55;37-57,34-55,1.86,94,3,858.972768434
GEMS118,2018_Mar_06_1539,George,GH,spatial_frequency,8,6,0,0-0;0-0;0-0;0-0,3,SimpleHill,0-0,0,18,selected,34-55,28-50;39-56;29-49;29-57;36-55;37-54,29-49,1.53,91,-3,864.076859058
GEMS118,2018_Mar_06_1539,George,GH,spatial_frequency,8,6,0,0-0;0-0;0-0;0-0,3,SimpleHill,0-0,0,19,selected,29-49,28-47;27-52;29-41;28-46;32-53;34-45,29-41,1.51,89,-2,869.164753313
GEMS118,2018_Mar_06_1539,George,GH,spatial_frequency,8,6,0,0-0;0-0;0-0;0-0,3,SimpleHill,0-0,0,20,selected,29-41,26-34;33-41;32-44;30-42;24-44;34-46,24-44,1.67,85,-4,874.406432263
GEMS118,2018_Mar_06_1539,George,GH,spatial_frequency,8,6,0,0-0;0-0;0-0;0-0,3,SimpleHill,0-0,0,21,selected,24-44,20-39;27-45;30-44;20-46;31-45;30-40,30-44,1.01,91,6,878.986332682
GEMS118,2018_Mar_06_1539,George,GH,spatial_frequency,8,6,0,0-0;0-0;0-0;0-0,3,SimpleHill,0-0,0,22,selected,30-44,35-49;23-47;31-49;31-46;31-41;36-42,31-46,1.22,92,1,883.788408803
GEMS118,2018_Mar_06_1539,George,GH,spatial_frequency,8,6,0,0-0;0-0;0-0;0-0,3,SimpleHill,0-0,0,23,selected,31-46,25-43;27-49;36-43;25-51;30-51;24-49,27-49,1.67,89,-3,889.022380561
GEMS118,2018_Mar_06_1539,George,GH,spatial_frequency,8,6,0,0-0;0-0;0-0;0-0,3,SimpleHill,0-0,0,24,selected,27-49,28-51;35-49;28-42;25-55;24-47;20-52,28-42,1.16,89,0,893.743857661
GEMS118,2018_Mar_06_1539,George,GH,spatial_frequency,8,6,0,0-0;0-0;0-0;0-0,3,SimpleHill,0-0,0,25,selected,28-42,34-43;22-42;26-38;34-40;23-38;27-36,26-38,0.57,85,-4,897.87710649
GEMS118,2018_Mar_06_1539,George,GH,spatial_frequency,8,6,0,0-0;0-0;0-0;0-0,3,SimpleHill,0-0,0,26,selected,26-38,27-31;26-42;20-35;28-35;19-35;21-37,26-42,1.33,87,2,902.763786313
GEMS118,2018_Mar_06_1539,George,GH,spatial_frequency,8,6,0,0-0;0-0;0-0;0-0,3,SimpleHill,0-0,0,27,selected,26-42,31-43;29-42;19-41;30-47;32-47;24-47,29-42,0.97,89,2,907.312701758
GEMS118,2018_Mar_06_1539,George,GH,spatial_frequency,8,6,0,0-0;0-0;0-0;0-0,3,SimpleHill,0-0,0,28,selected,29-42,33-41;24-37;35-40;31-46;31-42;32-35,24-37,2.19,83,-6,913.066687153
GEMS118,2018_Mar_06_1539,George,GH,spatial_frequency,8,6,0,0-0;0-0;0-0;0-0,3,SimpleHill,0-0,0,29,selected,24-37,23-38;21-33;28-32;20-42;26-37;20-37,23-38,1.67,82,-1,918.320368619
GEMS118,2018_Mar_06_1539,George,GH,spatial_frequency,8,6,0,0-0;0-0;0-0;0-0,3,SimpleHill,0-0,0,30,selected,23-38,22-37;24-44;22-44;24-40;24-38;25-36,24-44,2.1,85,3,924.010009939
GEMS118,2018_Mar_06_1539,George,GH,spatial_frequency,8,6,0,0-0;0-0;0-0;0-0,3,SimpleHill,0-0,0,31,selected,24-44,20-49;26-49;31-47;24-40;29-45;18-39,26-49,1.04,88,3,928.629550638
GEMS118,2018_Mar_06_1539,George,GH,spatial_frequency,8,6,0,0-0;0-0;0-0;0-0,3,SimpleHill,0-0,0,32,selected,26-49,30-50;25-44;20-45;23-56;32-51;21-55,20-45,1.07,81,-7,933.267787311
GEMS118,2018_Mar_06_1539,George,GH,spatial_frequency,8,6,0,0-0;0-0;0-0;0-0,3,SimpleHill,0-0,0,33,selected,20-45,18-48;20-38;20-41;26-41;21-45;26-43,20-38,0.99,79,-2,937.820726002
GEMS118,2018_Mar_06_1539,George,GH,spatial_frequency,8,6,0,0-0;0-0;0-0;0-0,3,SimpleHill,0-0,0,34,selected,20-38,25-43;15-37;25-35;16-32;21-32;18-32,25-43,2.07,86,7,943.461534941
GEMS118,2018_Mar_06_1539,George,GH,spatial_frequency,8,6,0,0-0;0-0;0-0;0-0,3,SimpleHill,0-0,0,35,selected,25-43,26-36;26-44;31-43;25-43;25-46;27-39,26-44,1.81,87,1,948.842449733
GEMS118,2018_Mar_06_1539,George,GH,spatial_frequency,8,6,0,0-0;0-0;0-0;0-0,3,SimpleHill,0-0,0,36,selected,26-44,22-38;30-49;26-46;28-47;32-49;30-39,30-49,1.57,91,4,953.967697205
GEMS118,2018_Mar_06_1539,George,GH,spatial_frequency,8,6,0,0-0;0-0;0-0;0-0,3,SimpleHill,0-0,0,37,selected,30-49,27-50;30-54;36-45;32-50;36-49;30-51,30-54,1.22,91,0,958.758112349
GEMS118,2018_Mar_06_1539,George,GH,spatial_frequency,8,6,0,0-0;0-0;0-0;0-0,3,SimpleHill,0-0,0,38,selected,30-54,24-58;32-60;24-59;35-49;28-52;33-60,32-60,0.7,91,0,963.020077174
GEMS118,2018_Mar_06_1539,George,GH,spatial_frequency,8,6,0,0-0;0-0;0-0;0-0,3,SimpleHill,0-0,0,39,selected,32-60,38-61;32-52;36-63;37-66;35-64;32-66,38-61,1.53,94,3,968.135108888
GEMS118,2018_Mar_06_1539,George,GH,spatial_frequency,8,6,0,0-0;0-0;0-0;0-0,4,SimpleHill,0-0,0,0,selected,0-0,1-0;2-7;0-3;7-3;1-2;7-0,2-7,1.83,16,16,980.02720884
GEMS118,2018_Mar_06_1539,George,GH,spatial_frequency,8,6,0,0-0;0-0;0-0;0-0,4,SimpleHill,0-0,0,1,selected,2-7,4-9;2-3;2-1;5-8;5-0;1-10,1-10,2.08,19,3,985.685778441
GEMS118,2018_Mar_06_1539,George,GH,spatial_frequency,8,6,0,0-0;0-0;0-0;0-0,4,SimpleHill,0-0,0,2,selected,1-10,1-6;1-13;6-13;5-12;5-13;6-8,6-13,1.14,33,14,990.403006631
GEMS118,2018_Mar_06_1539,George,GH,spatial_frequency,8,6,0,0-0;0-0;0-0;0-0,4,SimpleHill,0-0,0,3,selected,6-13,9-11;3-8;2-14;10-17;6-6;3-19,3-19,2.1,36,3,996.080307097
GEMS118,2018_Mar_06_1539,George,GH,spatial_frequency,8,6,0,0-0;0-0;0-0;0-0,4,SimpleHill,0-0,0,4,selected,3-19,7-25;9-16;9-24;2-21;0-14;3-22,9-24,1.06,52,16,1000.71416586
GEMS118,2018_Mar_06_1539,George,GH,spatial_frequency,8,6,0,0-0;0-0;0-0;0-0,4,SimpleHill,0-0,0,5,selected,9-24,13-24;15-29;3-29;15-28;8-31;15-21,15-29,0.99,66,14,1005.28288256
GEMS118,2018_Mar_06_1539,George,GH,spatial_frequency,8,6,0,0-0;0-0;0-0;0-0,4,SimpleHill,0-0,0,6,selected,15-29,9-32;18-31;21-34;11-26;13-33;13-29,21-34,1.91,78,12,1010.76371205
GEMS118,2018_Mar_06_1539,George,GH,spatial_frequency,8,6,0,0-0;0-0;0-0;0-0,4,SimpleHill,0-0,0,7,selected,21-34,20-39;19-38;21-39;17-35;17-37;21-35,19-38,0.85,77,-1,1015.17709545
GEMS118,2018_Mar_06_1539,George,GH,spatial_frequency,8,6,0,0-0;0-0;0-0;0-0,4,SimpleHill,0-0,0,8,selected,19-38,15-44;22-37;15-33;26-35;18-35;13-33,15-44,2.11,74,-3,1020.85516286
GEMS118,2018_Mar_06_1539,George,GH,spatial_frequency,8,6,0,0-0;0-0;0-0;0-0,4,SimpleHill,0-0,0,9,selected,15-44,22-44;20-41;21-43;16-43;12-44;11-45,21-43,1.12,82,8,1025.53721318
GEMS118,2018_Mar_06_1539,George,GH,spatial_frequency,8,6,0,0-0;0-0;0-0;0-0,4,SimpleHill,0-0,0,10,selected,21-43,18-38;21-48;19-41;15-40;22-43;17-37,21-48,0.92,83,1,1030.04470959
GEMS118,2018_Mar_06_1539,George,GH,spatial_frequency,8,6,0,0-0;0-0;0-0;0-0,4,SimpleHill,0-0,0,11,selected,21-48,16-51;20-54;28-45;20-47;19-51;20-45,20-54,1.2,81,-2,1034.8164979
GEMS118,2018_Mar_06_1539,George,GH,spatial_frequency,8,6,0,0-0;0-0;0-0;0-0,4,SimpleHill,0-0,0,12,selected,20-54,15-51;19-54;18-48;23-60;21-50;25-56,19-54,1.55,80,-1,1039.93397832
GEMS118,2018_Mar_06_1539,George,GH,spatial_frequency,8,6,0,0-0;0-0;0-0;0-0,4,SimpleHill,0-0,0,13,selected,19-54,12-53;21-47;14-53;24-50;21-60;17-48,14-53,1.07,73,-7,1044.58596682
GEMS118,2018_Mar_06_1539,George,GH,spatial_frequency,8,6,0,0-0;0-0;0-0;0-0,4,SimpleHill,0-0,0,14,selected,14-53,17-53;8-56;15-53;11-50;14-56;10-58,10-58,2.69,66,-7,1050.86135569
GEMS118,2018_Mar_06_1539,George,GH,spatial_frequency,8,6,0,0-0;0-0;0-0;0-0,4,SimpleHill,0-0,0,15,selected,10-58,13-60;15-58;13-61;4-54;10-58;7-56,13-60,1.96,70,4,1056.39356998
GEMS118,2018_Mar_06_1539,George,GH,spatial_frequency,8,6,0,0-0;0-0;0-0;0-0,4,SimpleHill,0-0,0,16,selected,13-60,7-57;16-57;19-65;12-60;16-65;12-59,16-57,1.18,75,5,1061.16183887
GEMS118,2018_Mar_06_1539,George,GH,spatial_frequency,8,6,0,0-0;0-0;0-0;0-0,4,SimpleHill,0-0,0,17,selected,16-57,20-52;14-52;13-62;14-50;11-55;20-51,20-52,0.95,81,6,1065.6890914
GEMS118,2018_Mar_06_1539,George,GH,spatial_frequency,8,6,0,0-0;0-0;0-0;0-0,4,SimpleHill,0-0,0,18,selected,20-52,23-47;27-54;22-57;20-51;21-57;13-55,23-47,0.79,85,4,1070.04658437
GEMS118,2018_Mar_06_1539,George,GH,spatial_frequency,8,6,0,0-0;0-0;0-0;0-0,4,SimpleHill,0-0,0,19,selected,23-47,20-51;17-45;27-41;22-53;26-50;28-49,20-51,0.61,81,-4,1074.24767365
GEMS118,2018_Mar_06_1539,George,GH,spatial_frequency,8,6,0,0-0;0-0;0-0;0-0,4,SimpleHill,0-0,0,20,selected,20-51,13-54;19-45;26-55;25-46;20-50;27-50,25-46,1.03,87,6,1078.85375541
GEMS118,2018_Mar_06_1539,George,GH,spatial_frequency,8,6,0,0-0;0-0;0-0;0-0,4,SimpleHill,0-0,0,21,selected,25-46,26-47;22-51;20-40;28-42;25-45;31-51,28-42,0.85,89,2,1083.28120336
GEMS118,2018_Mar_06_1539,George,GH,spatial_frequency,8,6,0,0-0;0-0;0-0;0-0,4,SimpleHill,0-0,0,22,selected,28-42,29-38;28-40;28-45;24-42;34-46;28-49,29-38,1.9,88,-1,1088.76467105
GEMS118,2018_Mar_06_1539,George,GH,spatial_frequency,8,6,0,0-0;0-0;0-0;0-0,4,SimpleHill,0-0,0,23,selected,29-38,23-34;25-44;28-33;29-38;23-42;35-43,28-33,1.19,84,-4,1093.52806141
GEMS118,2018_Mar_06_1539,George,GH,spatial_frequency,8,6,0,0-0;0-0;0-0;0-0,4,SimpleHill,0-0,0,24,selected,28-33,23-35;32-36;32-38;35-31;26-37;27-35,35-31,1.03,88,4,1098.1439076
GEMS118,2018_Mar_06_1539,George,GH,spatial_frequency,8,6,0,0-0;0-0;0-0;0-0,4,SimpleHill,0-0,0,25,selected,35-31,41-33;30-35;31-26;32-33;34-27;32-28,34-27,1.76,84,-4,1103.47412643
GEMS118,2018_Mar_06_1539,George,GH,spatial_frequency,8,6,0,0-0;0-0;0-0;0-0,4,SimpleHill,0-0,0,26,selected,34-27,33-33;39-21;27-25;31-21;36-33;37-29,39-21,1.22,80,-4,1108.26564301
GEMS118,2018_Mar_06_1539,George,GH,spatial_frequency,8,6,0,0-0;0-0;0-0;0-0,4,SimpleHill,0-0,0,27,selected,39-21,44-18;38-18;36-26;37-15;39-22;43-19,44-18,1.47,78,-2,1113.30827008
GEMS118,2018_Mar_06_1539,George,GH,spatial_frequency,8,6,0,0-0;0-0;0-0;0-0,4,SimpleHill,0-0,0,28,selected,44-18,41-25;39-15;38-13;44-22;51-15;40-20,38-13,2.95,69,-9,1119.84890248
GEMS118,2018_Mar_06_1539,George,GH,spatial_frequency,8,6,0,0-0;0-0;0-0;0-0,4,SimpleHill,0-0,0,29,selected,38-13,37-20;37-10;40-10;36-12;33-7;43-17,37-20,2.69,78,9,1126.08897521
GEMS118,2018_Mar_06_1539,George,GH,spatial_frequency,8,6,0,0-0;0-0;0-0;0-0,4,SimpleHill,0-0,0,30,selected,37-20,32-20;39-15;36-18;36-24;37-27;34-13,37-27,3.07,86,8,1132.74404139
GEMS118,2018_Mar_06_1539,George,GH,spatial_frequency,8,6,0,0-0;0-0;0-0;0-0,4,SimpleHill,0-0,0,31,selected,37-27,31-22;38-25;31-32;35-29;33-33;43-30,31-32,3.25,86,0,1139.55672187
GEMS118,2018_Mar_06_1539,George,GH,spatial_frequency,8,6,0,0-0;0-0;0-0;0-0,4,SimpleHill,0-0,0,32,selected,31-32,24-35;32-28;31-28;24-32;30-37;28-36,24-35,2.14,81,-5,1145.25162039
GEMS118,2018_Mar_06_1539,George,GH,spatial_frequency,8,6,0,0-0;0-0;0-0;0-0,4,SimpleHill,0-0,0,33,selected,24-35,27-36;20-37;22-29;23-29;22-41;20-39,20-39,1.92,79,-2,1150.76505548
GEMS118,2018_Mar_06_1539,George,GH,spatial_frequency,8,6,0,0-0;0-0;0-0;0-0,4,SimpleHill,0-0,0,34,selected,20-39,21-45;19-38;21-39;20-33;22-41;17-45,21-45,1.63,82,3,1155.95652437
GEMS118,2018_Mar_06_1539,George,GH,spatial_frequency,8,6,0,0-0;0-0;0-0;0-0,4,SimpleHill,0-0,0,35,selected,21-45,20-39;26-44;17-39;20-49;24-48;22-39,26-44,2.95,87,5,1162.48867016
GEMS118,2018_Mar_06_1539,George,GH,spatial_frequency,8,6,0,0-0;0-0;0-0;0-0,4,SimpleHill,0-0,0,36,selected,26-44,31-39;30-44;28-47;30-40;33-43;27-38,31-39,1.6,90,3,1167.65918002
GEMS118,2018_Mar_06_1539,George,GH,spatial_frequency,8,6,0,0-0;0-0;0-0;0-0,4,SimpleHill,0-0,0,37,selected,31-39,33-36;29-43;27-34;33-32;31-34;29-37,29-43,1.32,90,0,1172.56994842
GEMS118,2018_Mar_06_1539,George,GH,spatial_frequency,8,6,0,0-0;0-0;0-0;0-0,4,SimpleHill,0-0,0,38,selected,29-43,26-44;29-48;31-48;33-44;34-41;36-42,29-48,2.16,91,1,1178.320174
GEMS118,2018_Mar_06_1539,George,GH,spatial_frequency,8,6,0,0-0;0-0;0-0;0-0,4,SimpleHill,0-0,0,39,selected,29-48,32-49;36-49;32-53;34-47;27-43;29-49,32-53,1.33,93,2,1183.22102785
