subj_id,date,computer,experimenter,instructions,sight_radius,n_gabors,start_pos_list_ix,start_pos_list,landscape_ix,landscape_name,starting_pos,starting_score,trial,feedback,pos,stims,selected,rt,score,delta,exp_time
GEMS207,2018_Mar_19_1543,Elaine,PE,orientation,8,6,4,59-11;45-22;55-20;50-24,0,OrientationBias,0-0,0,0,training,0-0,3-6;5-5;3-4;7-1;2-0;4-2,3-6,13.91,11,11,167.976670706
GEMS207,2018_Mar_19_1543,Elaine,PE,orientation,8,6,4,59-11;45-22;55-20;50-24,0,OrientationBias,0-0,0,1,training,3-6,2-6;2-12;6-4;5-13;1-7;2-3,6-4,8.17,22,11,188.332111221
GEMS207,2018_Mar_19_1543,Elaine,PE,orientation,8,6,4,59-11;45-22;55-20;50-24,0,OrientationBias,0-0,0,2,training,6-4,10-2;1-5;10-0;7-5;4-3;14-4,14-4,16.59,48,26,212.801774464
GEMS207,2018_Mar_19_1543,Elaine,PE,orientation,8,6,4,59-11;45-22;55-20;50-24,0,OrientationBias,0-0,0,3,training,14-4,10-6;13-4;8-1;11-8;10-10;15-11,13-4,10.27,45,-3,229.527520584
GEMS207,2018_Mar_19_1543,Elaine,PE,orientation,8,6,4,59-11;45-22;55-20;50-24,0,OrientationBias,0-0,0,4,training,13-4,10-9;9-1;19-8;17-3;7-7;9-8,19-8,8.17,61,16,247.707896487
GEMS207,2018_Mar_19_1543,Elaine,PE,orientation,8,6,4,59-11;45-22;55-20;50-24,0,OrientationBias,0-0,0,5,training,19-8,13-3;26-9;24-4;17-12;12-5;25-3,24-4,6.64,72,11,258.971277149
GEMS207,2018_Mar_19_1543,Elaine,PE,orientation,8,6,4,59-11;45-22;55-20;50-24,0,OrientationBias,0-0,0,6,training,24-4,20-1;24-12;22-8;25-7;27-3;24-7,27-3,10.14,78,6,272.916184127
GEMS207,2018_Mar_19_1543,Elaine,PE,orientation,8,6,4,59-11;45-22;55-20;50-24,0,OrientationBias,0-0,0,7,training,27-3,21-1;28-8;26-8;28-9;30-6;27-0,27-0,10.52,78,0,288.113001897
GEMS207,2018_Mar_19_1543,Elaine,PE,orientation,8,6,4,59-11;45-22;55-20;50-24,0,OrientationBias,0-0,0,8,training,27-0,34-0;26-6;19-0;28-2;29-3;28-1,34-0,20.04,89,11,313.489941417
GEMS207,2018_Mar_19_1543,Elaine,PE,orientation,8,6,4,59-11;45-22;55-20;50-24,0,OrientationBias,0-0,0,9,training,34-0,39-4;31-6;37-0;33-2;29-6;29-5,39-4,7.52,95,6,326.239055241
GEMS207,2018_Mar_19_1543,Elaine,PE,orientation,8,6,4,59-11;45-22;55-20;50-24,0,OrientationBias,0-0,0,10,training,39-4,42-3;37-5;42-0;45-6;47-4;38-0,47-4,16.14,99,4,346.283170054
GEMS207,2018_Mar_19_1543,Elaine,PE,orientation,8,6,4,59-11;45-22;55-20;50-24,0,OrientationBias,0-0,0,11,training,47-4,49-10;42-5;43-5;52-8;40-2;42-7,52-8,9.22,99,0,360.349243206
GEMS207,2018_Mar_19_1543,Elaine,PE,orientation,8,6,4,59-11;45-22;55-20;50-24,0,OrientationBias,0-0,0,12,training,52-8,46-9;51-7;52-1;48-8;55-9;50-5,55-9,13.24,99,0,377.405379409
GEMS207,2018_Mar_19_1543,Elaine,PE,orientation,8,6,4,59-11;45-22;55-20;50-24,0,OrientationBias,0-0,0,13,training,55-9,56-6;55-17;53-13;62-9;56-2;49-11,62-9,12.66,94,-5,393.847358181
GEMS207,2018_Mar_19_1543,Elaine,PE,orientation,8,6,4,59-11;45-22;55-20;50-24,0,OrientationBias,0-0,0,14,training,62-9,62-9;59-6;66-10;65-4;56-12;60-4,65-4,9.88,91,-3,412.278243512
GEMS207,2018_Mar_19_1543,Elaine,PE,orientation,8,6,4,59-11;45-22;55-20;50-24,0,OrientationBias,0-0,0,15,training,65-4,63-9;66-0;70-5;66-4;70-8;59-4,59-4,6.34,96,5,424.62482771
GEMS207,2018_Mar_19_1543,Elaine,PE,orientation,8,6,4,59-11;45-22;55-20;50-24,0,OrientationBias,0-0,0,16,training,59-4,63-8;64-7;53-9;59-2;65-2;61-3,64-7,12.39,92,-4,441.298173105
GEMS207,2018_Mar_19_1543,Elaine,PE,orientation,8,6,4,59-11;45-22;55-20;50-24,0,OrientationBias,0-0,0,17,training,64-7,61-5;59-13;68-3;57-8;67-9;60-9,61-5,4.8,95,3,453.755837685
GEMS207,2018_Mar_19_1543,Elaine,PE,orientation,8,6,4,59-11;45-22;55-20;50-24,0,OrientationBias,0-0,0,18,training,61-5,65-8;66-11;62-4;62-0;59-10;56-11,62-0,3.74,94,-1,462.376795478
GEMS207,2018_Mar_19_1543,Elaine,PE,orientation,8,6,4,59-11;45-22;55-20;50-24,0,OrientationBias,0-0,0,19,training,62-0,68-2;63-0;59-4;61-4;57-2;59-1,57-2,4.27,98,4,472.576615074
GEMS207,2018_Mar_19_1543,Elaine,PE,orientation,8,6,4,59-11;45-22;55-20;50-24,0,OrientationBias,0-0,0,20,training,57-2,52-2;56-2;64-3;54-1;62-5;56-8,56-8,1.87,98,0,478.614349806
GEMS207,2018_Mar_19_1543,Elaine,PE,orientation,8,6,4,59-11;45-22;55-20;50-24,0,OrientationBias,0-0,0,21,training,56-8,59-2;56-0;57-10;59-12;57-15;61-4,59-12,3.62,96,-2,486.837037763
GEMS207,2018_Mar_19_1543,Elaine,PE,orientation,8,6,4,59-11;45-22;55-20;50-24,0,OrientationBias,0-0,0,22,training,59-12,55-13;57-13;61-19;59-6;52-10;59-13,52-10,3.23,99,3,495.305934705
GEMS207,2018_Mar_19_1543,Elaine,PE,orientation,8,6,4,59-11;45-22;55-20;50-24,0,OrientationBias,0-0,0,23,training,52-10,54-14;58-10;55-10;51-11;55-6;54-3,51-11,1.91,99,0,500.004490256
GEMS207,2018_Mar_19_1543,Elaine,PE,orientation,8,6,4,59-11;45-22;55-20;50-24,0,OrientationBias,0-0,0,24,training,51-11,46-11;44-9;48-12;49-5;51-6;49-13,49-5,2.9,99,0,506.098527319
GEMS207,2018_Mar_19_1543,Elaine,PE,orientation,8,6,4,59-11;45-22;55-20;50-24,0,OrientationBias,0-0,0,25,training,49-5,46-3;48-8;48-4;48-0;50-5;44-10,48-0,3.12,99,0,512.568723836
GEMS207,2018_Mar_19_1543,Elaine,PE,orientation,8,6,4,59-11;45-22;55-20;50-24,0,OrientationBias,0-0,0,26,training,48-0,50-3;53-2;48-4;51-2;46-6;45-1,46-6,3.39,99,0,519.137105494
GEMS207,2018_Mar_19_1543,Elaine,PE,orientation,8,6,4,59-11;45-22;55-20;50-24,0,OrientationBias,0-0,0,27,training,46-6,51-7;48-13;51-0;41-9;42-5;46-14,48-13,3.03,99,0,526.42592806
GEMS207,2018_Mar_19_1543,Elaine,PE,orientation,8,6,4,59-11;45-22;55-20;50-24,0,OrientationBias,0-0,0,28,training,48-13,44-9;49-13;51-15;43-15;44-11;47-11,49-13,5.27,99,0,535.257245771
GEMS207,2018_Mar_19_1543,Elaine,PE,orientation,8,6,4,59-11;45-22;55-20;50-24,0,OrientationBias,0-0,0,29,training,49-13,50-19;42-10;54-17;47-7;51-19;56-12,42-10,2.63,97,-2,541.145016898
GEMS207,2018_Mar_19_1543,Elaine,PE,orientation,8,6,4,59-11;45-22;55-20;50-24,1,SimpleHill,59-11,67,0,selected,59-11,60-9;60-14;60-12;62-4;54-14;65-6,54-14,3.12,73,6,562.745089943
GEMS207,2018_Mar_19_1543,Elaine,PE,orientation,8,6,4,59-11;45-22;55-20;50-24,1,SimpleHill,59-11,67,1,selected,54-14,51-20;51-16;57-13;57-19;52-19;48-19,52-19,2.4,80,7,568.716282588
GEMS207,2018_Mar_19_1543,Elaine,PE,orientation,8,6,4,59-11;45-22;55-20;50-24,1,SimpleHill,59-11,67,2,selected,52-19,55-17;51-24;54-18;56-22;49-12;46-15,46-15,2.62,75,-5,574.919246451
GEMS207,2018_Mar_19_1543,Elaine,PE,orientation,8,6,4,59-11;45-22;55-20;50-24,1,SimpleHill,59-11,67,3,selected,46-15,48-10;51-15;40-19;52-17;38-15;49-14,51-15,4.23,75,0,582.715900077
GEMS207,2018_Mar_19_1543,Elaine,PE,orientation,8,6,4,59-11;45-22;55-20;50-24,1,SimpleHill,59-11,67,4,selected,51-15,57-15;51-14;46-12;56-19;46-18;46-20,46-18,2.17,79,4,588.472681395
GEMS207,2018_Mar_19_1543,Elaine,PE,orientation,8,6,4,59-11;45-22;55-20;50-24,1,SimpleHill,59-11,67,5,selected,46-18,47-18;43-22;53-18;39-19;51-16;47-15,51-16,3.59,76,-3,595.632608836
GEMS207,2018_Mar_19_1543,Elaine,PE,orientation,8,6,4,59-11;45-22;55-20;50-24,1,SimpleHill,59-11,67,6,selected,51-16,45-21;47-13;53-14;51-21;53-18;56-11,47-13,1.12,72,-4,600.325627109
GEMS207,2018_Mar_19_1543,Elaine,PE,orientation,8,6,4,59-11;45-22;55-20;50-24,1,SimpleHill,59-11,67,7,selected,47-13,41-11;47-8;41-8;51-18;52-9;45-18,41-11,1.04,67,-5,604.937299662
GEMS207,2018_Mar_19_1543,Elaine,PE,orientation,8,6,4,59-11;45-22;55-20;50-24,1,SimpleHill,59-11,67,8,selected,41-11,38-8;40-16;42-6;36-16;40-7;41-14,41-14,2.26,72,5,610.777107184
GEMS207,2018_Mar_19_1543,Elaine,PE,orientation,8,6,4,59-11;45-22;55-20;50-24,1,SimpleHill,59-11,67,9,selected,41-14,46-18;47-9;43-20;34-14;39-19;43-7,47-9,2.88,66,-6,617.223783633
GEMS207,2018_Mar_19_1543,Elaine,PE,orientation,8,6,4,59-11;45-22;55-20;50-24,1,SimpleHill,59-11,67,10,selected,47-9,43-13;53-6;48-3;44-10;46-3;48-4,44-10,2.79,67,1,623.582683066
GEMS207,2018_Mar_19_1543,Elaine,PE,orientation,8,6,4,59-11;45-22;55-20;50-24,1,SimpleHill,59-11,67,11,selected,44-10,43-5;45-3;44-6;42-17;37-9;46-4,45-3,4.22,55,-12,631.383707873
GEMS207,2018_Mar_19_1543,Elaine,PE,orientation,8,6,4,59-11;45-22;55-20;50-24,1,SimpleHill,59-11,67,12,selected,45-3,43-1;44-8;47-2;42-1;46-5;39-0,43-1,0.92,51,-4,635.869616126
GEMS207,2018_Mar_19_1543,Elaine,PE,orientation,8,6,4,59-11;45-22;55-20;50-24,1,SimpleHill,59-11,67,13,selected,43-1,35-1;46-3;43-9;44-4;39-6;46-4,43-9,2.6,65,14,642.033263681
GEMS207,2018_Mar_19_1543,Elaine,PE,orientation,8,6,4,59-11;45-22;55-20;50-24,1,SimpleHill,59-11,67,14,selected,43-9,41-11;40-5;39-5;38-11;40-4;46-12,40-5,8.64,57,-8,654.247830574
GEMS207,2018_Mar_19_1543,Elaine,PE,orientation,8,6,4,59-11;45-22;55-20;50-24,1,SimpleHill,59-11,67,15,selected,40-5,44-3;33-4;38-5;39-4;40-7;38-4,38-5,1.28,56,-1,659.107961082
GEMS207,2018_Mar_19_1543,Elaine,PE,orientation,8,6,4,59-11;45-22;55-20;50-24,1,SimpleHill,59-11,67,16,selected,38-5,33-7;34-10;40-4;36-0;43-3;42-4,34-10,0.98,62,6,663.665038357
GEMS207,2018_Mar_19_1543,Elaine,PE,orientation,8,6,4,59-11;45-22;55-20;50-24,1,SimpleHill,59-11,67,17,selected,34-10,38-11;35-8;39-14;29-12;31-14;35-3,38-11,2.33,66,4,669.56942932
GEMS207,2018_Mar_19_1543,Elaine,PE,orientation,8,6,4,59-11;45-22;55-20;50-24,1,SimpleHill,59-11,67,18,selected,38-11,33-10;34-9;35-5;38-10;40-5;35-4,35-5,3.89,55,-11,677.030319151
GEMS207,2018_Mar_19_1543,Elaine,PE,orientation,8,6,4,59-11;45-22;55-20;50-24,1,SimpleHill,59-11,67,19,selected,35-5,29-8;38-4;29-6;34-1;33-10;31-9,29-8,3.63,55,0,684.220257175
GEMS207,2018_Mar_19_1543,Elaine,PE,orientation,8,6,4,59-11;45-22;55-20;50-24,1,SimpleHill,59-11,67,20,selected,29-8,23-3;29-4;32-4;34-5;27-13;31-11,34-5,1.48,54,-1,689.258094016
GEMS207,2018_Mar_19_1543,Elaine,PE,orientation,8,6,4,59-11;45-22;55-20;50-24,1,SimpleHill,59-11,67,21,selected,34-5,37-5;28-0;34-7;37-8;38-4;33-10,38-4,0.79,54,0,693.62486068
GEMS207,2018_Mar_19_1543,Elaine,PE,orientation,8,6,4,59-11;45-22;55-20;50-24,1,SimpleHill,59-11,67,22,selected,38-4,44-3;35-9;40-8;38-0;36-0;34-3,44-3,15.77,55,1,712.953960791
GEMS207,2018_Mar_19_1543,Elaine,PE,orientation,8,6,4,59-11;45-22;55-20;50-24,1,SimpleHill,59-11,67,23,selected,44-3,48-9;40-7;46-0;51-4;41-4;47-0,41-4,11.85,56,1,728.38175499
GEMS207,2018_Mar_19_1543,Elaine,PE,orientation,8,6,4,59-11;45-22;55-20;50-24,1,SimpleHill,59-11,67,24,selected,41-4,40-4;34-3;48-2;34-5;34-1;35-2,34-3,6.4,50,-6,738.351555873
GEMS207,2018_Mar_19_1543,Elaine,PE,orientation,8,6,4,59-11;45-22;55-20;50-24,1,SimpleHill,59-11,67,25,selected,34-3,28-5;33-7;40-3;32-8;38-9;38-4,32-8,1.74,58,8,743.660439589
GEMS207,2018_Mar_19_1543,Elaine,PE,orientation,8,6,4,59-11;45-22;55-20;50-24,1,SimpleHill,59-11,67,26,selected,32-8,29-7;33-8;37-6;35-14;36-9;32-6,35-14,4.26,69,11,751.488617835
GEMS207,2018_Mar_19_1543,Elaine,PE,orientation,8,6,4,59-11;45-22;55-20;50-24,1,SimpleHill,59-11,67,27,selected,35-14,29-14;33-17;36-17;35-20;34-9;34-15,33-17,6.1,72,3,761.164464111
GEMS207,2018_Mar_19_1543,Elaine,PE,orientation,8,6,4,59-11;45-22;55-20;50-24,1,SimpleHill,59-11,67,28,selected,33-17,32-23;35-13;27-22;39-16;27-19;34-12,39-16,9.91,74,2,774.638769014
GEMS207,2018_Mar_19_1543,Elaine,PE,orientation,8,6,4,59-11;45-22;55-20;50-24,1,SimpleHill,59-11,67,29,selected,39-16,34-10;35-22;46-13;34-22;37-11;47-16,35-22,2.99,79,5,781.21123345
GEMS207,2018_Mar_19_1543,Elaine,PE,orientation,8,6,4,59-11;45-22;55-20;50-24,1,SimpleHill,59-11,67,30,selected,35-22,41-27;34-26;32-15;31-25;33-18;41-25,33-18,3.46,73,-6,788.238357439
GEMS207,2018_Mar_19_1543,Elaine,PE,orientation,8,6,4,59-11;45-22;55-20;50-24,1,SimpleHill,59-11,67,31,selected,33-18,32-18;30-16;33-19;33-22;35-18;40-16,33-22,2.77,78,5,794.559949784
GEMS207,2018_Mar_19_1543,Elaine,PE,orientation,8,6,4,59-11;45-22;55-20;50-24,1,SimpleHill,59-11,67,32,selected,33-22,35-15;26-22;30-27;26-20;37-22;39-22,39-22,8.24,81,3,806.384622057
GEMS207,2018_Mar_19_1543,Elaine,PE,orientation,8,6,4,59-11;45-22;55-20;50-24,1,SimpleHill,59-11,67,33,selected,39-22,37-20;37-29;46-22;37-21;33-18;43-20,33-18,7.41,73,-8,817.377258332
GEMS207,2018_Mar_19_1543,Elaine,PE,orientation,8,6,4,59-11;45-22;55-20;50-24,1,SimpleHill,59-11,67,34,selected,33-18,34-18;35-11;26-18;28-23;39-22;37-17,28-23,1.8,75,2,822.738804929
GEMS207,2018_Mar_19_1543,Elaine,PE,orientation,8,6,4,59-11;45-22;55-20;50-24,1,SimpleHill,59-11,67,35,selected,28-23,27-28;23-26;33-25;30-22;22-19;33-23,22-19,6.5,65,-10,832.811095555
GEMS207,2018_Mar_19_1543,Elaine,PE,orientation,8,6,4,59-11;45-22;55-20;50-24,1,SimpleHill,59-11,67,36,selected,22-19,26-24;22-20;18-25;27-16;26-19;25-24,27-16,4.91,66,1,841.280668532
GEMS207,2018_Mar_19_1543,Elaine,PE,orientation,8,6,4,59-11;45-22;55-20;50-24,1,SimpleHill,59-11,67,37,selected,27-16,29-23;22-10;27-14;35-16;32-13;29-12,22-10,4.67,52,-14,849.508215491
GEMS207,2018_Mar_19_1543,Elaine,PE,orientation,8,6,4,59-11;45-22;55-20;50-24,1,SimpleHill,59-11,67,38,selected,22-10,16-8;21-14;19-9;19-17;28-13;20-9,16-8,5.77,41,-11,858.858580941
GEMS207,2018_Mar_19_1543,Elaine,PE,orientation,8,6,4,59-11;45-22;55-20;50-24,1,SimpleHill,59-11,67,39,selected,16-8,12-4;9-10;16-12;20-5;16-13;20-2,20-5,0.44,41,0,862.866505468
GEMS207,2018_Mar_19_1543,Elaine,PE,orientation,8,6,4,59-11;45-22;55-20;50-24,2,SimpleHill,45-22,83,0,selected,45-22,47-29;42-20;43-22;53-22;52-24;42-15,42-15,2.37,74,-9,878.481334132
GEMS207,2018_Mar_19_1543,Elaine,PE,orientation,8,6,4,59-11;45-22;55-20;50-24,2,SimpleHill,45-22,83,1,selected,42-15,43-22;39-15;37-12;39-12;40-17;42-16,37-12,2.49,67,-7,884.529129688
GEMS207,2018_Mar_19_1543,Elaine,PE,orientation,8,6,4,59-11;45-22;55-20;50-24,2,SimpleHill,45-22,83,2,selected,37-12,37-10;31-12;41-17;41-14;35-9;36-14,41-14,1.17,72,5,889.27671251
GEMS207,2018_Mar_19_1543,Elaine,PE,orientation,8,6,4,59-11;45-22;55-20;50-24,2,SimpleHill,45-22,83,3,selected,41-14,34-17;38-19;36-15;42-20;47-17;40-14,42-20,5.08,80,8,897.924965542
GEMS207,2018_Mar_19_1543,Elaine,PE,orientation,8,6,4,59-11;45-22;55-20;50-24,2,SimpleHill,45-22,83,4,selected,42-20,39-19;42-13;36-15;45-19;41-18;49-20,42-13,2.85,71,-9,904.344560894
GEMS207,2018_Mar_19_1543,Elaine,PE,orientation,8,6,4,59-11;45-22;55-20;50-24,2,SimpleHill,45-22,83,5,selected,42-13,46-15;40-18;42-19;45-9;41-15;40-17,41-15,2.29,73,2,910.216547624
GEMS207,2018_Mar_19_1543,Elaine,PE,orientation,8,6,4,59-11;45-22;55-20;50-24,2,SimpleHill,45-22,83,6,selected,41-15,39-8;40-21;45-15;41-22;40-10;41-18,39-8,2.1,62,-11,915.888660983
GEMS207,2018_Mar_19_1543,Elaine,PE,orientation,8,6,4,59-11;45-22;55-20;50-24,2,SimpleHill,45-22,83,7,selected,39-8,37-11;46-7;33-11;44-10;43-4;42-13,42-13,6.83,71,9,926.297226592
GEMS207,2018_Mar_19_1543,Elaine,PE,orientation,8,6,4,59-11;45-22;55-20;50-24,2,SimpleHill,45-22,83,8,selected,42-13,40-13;43-18;34-13;38-14;42-11;43-19,43-18,2.64,78,7,932.503870877
GEMS207,2018_Mar_19_1543,Elaine,PE,orientation,8,6,4,59-11;45-22;55-20;50-24,2,SimpleHill,45-22,83,9,selected,43-18,39-19;48-14;39-12;44-12;40-11;45-23,39-19,3.36,78,0,939.42745234
GEMS207,2018_Mar_19_1543,Elaine,PE,orientation,8,6,4,59-11;45-22;55-20;50-24,2,SimpleHill,45-22,83,10,selected,39-19,45-23;35-21;33-18;34-25;35-16;45-24,35-21,5.33,78,0,948.323607006
GEMS207,2018_Mar_19_1543,Elaine,PE,orientation,8,6,4,59-11;45-22;55-20;50-24,2,SimpleHill,45-22,83,11,selected,35-21,29-20;33-26;33-25;40-27;34-15;34-19,34-15,2.35,70,-8,954.256769154
GEMS207,2018_Mar_19_1543,Elaine,PE,orientation,8,6,4,59-11;45-22;55-20;50-24,2,SimpleHill,45-22,83,12,selected,34-15,29-11;27-15;36-13;40-15;36-22;37-11,37-11,0.71,66,-4,958.534658004
GEMS207,2018_Mar_19_1543,Elaine,PE,orientation,8,6,4,59-11;45-22;55-20;50-24,2,SimpleHill,45-22,83,13,selected,37-11,36-16;38-15;38-9;35-14;36-10;41-17,35-14,0.68,69,3,962.771095849
GEMS207,2018_Mar_19_1543,Elaine,PE,orientation,8,6,4,59-11;45-22;55-20;50-24,2,SimpleHill,45-22,83,14,selected,35-14,34-13;28-13;41-9;33-20;31-17;32-18,34-13,1.28,67,-2,967.612708692
GEMS207,2018_Mar_19_1543,Elaine,PE,orientation,8,6,4,59-11;45-22;55-20;50-24,2,SimpleHill,45-22,83,15,selected,34-13,40-15;31-9;30-8;37-7;33-14;36-15,36-15,0.79,71,4,971.972368024
GEMS207,2018_Mar_19_1543,Elaine,PE,orientation,8,6,4,59-11;45-22;55-20;50-24,2,SimpleHill,45-22,83,16,selected,36-15,35-10;35-22;41-13;40-10;34-15;32-18,41-13,1.5,71,0,977.048277295
GEMS207,2018_Mar_19_1543,Elaine,PE,orientation,8,6,4,59-11;45-22;55-20;50-24,2,SimpleHill,45-22,83,17,selected,41-13,48-13;42-10;47-14;47-18;36-17;46-10,46-10,0.61,67,-4,981.230337525
GEMS207,2018_Mar_19_1543,Elaine,PE,orientation,8,6,4,59-11;45-22;55-20;50-24,2,SimpleHill,45-22,83,18,selected,46-10,52-13;39-11;50-8;41-6;49-12;44-9,41-6,0.35,59,-8,985.141130976
GEMS207,2018_Mar_19_1543,Elaine,PE,orientation,8,6,4,59-11;45-22;55-20;50-24,2,SimpleHill,45-22,83,19,selected,41-6,47-7;42-1;40-11;35-1;47-2;47-5,42-1,0.4,50,-9,989.103926637
GEMS207,2018_Mar_19_1543,Elaine,PE,orientation,8,6,4,59-11;45-22;55-20;50-24,2,SimpleHill,45-22,83,20,selected,42-1,46-2;41-2;47-4;48-0;43-5;43-4,43-4,1.64,56,6,994.325519878
GEMS207,2018_Mar_19_1543,Elaine,PE,orientation,8,6,4,59-11;45-22;55-20;50-24,2,SimpleHill,45-22,83,21,selected,43-4,36-1;41-10;45-10;37-4;44-5;43-3,45-10,4.66,67,11,1002.54442434
GEMS207,2018_Mar_19_1543,Elaine,PE,orientation,8,6,4,59-11;45-22;55-20;50-24,2,SimpleHill,45-22,83,22,selected,45-10,42-9;50-14;46-12;51-9;48-10;47-16,46-12,3.18,70,3,1009.31169669
GEMS207,2018_Mar_19_1543,Elaine,PE,orientation,8,6,4,59-11;45-22;55-20;50-24,2,SimpleHill,45-22,83,23,selected,46-12,51-14;42-7;40-13;49-12;48-12;40-11,40-11,4.9,67,-3,1017.78364667
GEMS207,2018_Mar_19_1543,Elaine,PE,orientation,8,6,4,59-11;45-22;55-20;50-24,2,SimpleHill,45-22,83,24,selected,40-11,36-15;39-13;46-15;42-12;43-13;37-10,39-13,2.3,70,3,1023.64851807
GEMS207,2018_Mar_19_1543,Elaine,PE,orientation,8,6,4,59-11;45-22;55-20;50-24,2,SimpleHill,45-22,83,25,selected,39-13,39-15;46-10;40-16;41-12;40-6;39-12,46-10,2.09,67,-3,1029.31202638
GEMS207,2018_Mar_19_1543,Elaine,PE,orientation,8,6,4,59-11;45-22;55-20;50-24,2,SimpleHill,45-22,83,26,selected,46-10,50-7;50-5;47-14;42-6;41-9;43-10,43-10,1.23,67,0,1034.08922479
GEMS207,2018_Mar_19_1543,Elaine,PE,orientation,8,6,4,59-11;45-22;55-20;50-24,2,SimpleHill,45-22,83,27,selected,43-10,47-8;46-9;42-4;49-12;49-6;48-12,49-12,1.32,71,4,1038.99213277
GEMS207,2018_Mar_19_1543,Elaine,PE,orientation,8,6,4,59-11;45-22;55-20;50-24,2,SimpleHill,45-22,83,28,selected,49-12,46-13;53-8;50-8;51-11;43-16;42-11,46-13,1.53,72,1,1044.09786953
GEMS207,2018_Mar_19_1543,Elaine,PE,orientation,8,6,4,59-11;45-22;55-20;50-24,2,SimpleHill,45-22,83,29,selected,46-13,49-19;47-10;48-12;44-6;46-18;49-10,46-18,1.65,79,7,1049.32112085
GEMS207,2018_Mar_19_1543,Elaine,PE,orientation,8,6,4,59-11;45-22;55-20;50-24,2,SimpleHill,45-22,83,30,selected,46-18,45-21;41-17;51-23;42-17;49-24;48-19,49-24,2.83,86,7,1055.72453681
GEMS207,2018_Mar_19_1543,Elaine,PE,orientation,8,6,4,59-11;45-22;55-20;50-24,2,SimpleHill,45-22,83,31,selected,49-24,48-21;46-23;46-29;46-20;44-19;48-19,46-29,3.96,90,4,1063.24747623
GEMS207,2018_Mar_19_1543,Elaine,PE,orientation,8,6,4,59-11;45-22;55-20;50-24,2,SimpleHill,45-22,83,32,selected,46-29,45-26;52-28;43-32;47-31;40-32;52-27,43-32,3.18,92,2,1070.00607503
GEMS207,2018_Mar_19_1543,Elaine,PE,orientation,8,6,4,59-11;45-22;55-20;50-24,2,SimpleHill,45-22,83,33,selected,43-32,45-37;39-38;44-26;43-33;41-39;49-27,39-38,1.65,94,2,1075.23072548
GEMS207,2018_Mar_19_1543,Elaine,PE,orientation,8,6,4,59-11;45-22;55-20;50-24,2,SimpleHill,45-22,83,34,selected,39-38,36-45;38-34;39-35;46-41;37-43;44-43,36-45,3.69,95,1,1082.49181044
GEMS207,2018_Mar_19_1543,Elaine,PE,orientation,8,6,4,59-11;45-22;55-20;50-24,2,SimpleHill,45-22,83,35,selected,36-45,34-49;35-48;34-46;29-45;30-45;31-43,34-49,2.31,94,-1,1088.35385318
GEMS207,2018_Mar_19_1543,Elaine,PE,orientation,8,6,4,59-11;45-22;55-20;50-24,2,SimpleHill,45-22,83,36,selected,34-49,36-52;30-47;27-51;38-52;29-49;33-56,27-51,3.6,89,-5,1095.53941714
GEMS207,2018_Mar_19_1543,Elaine,PE,orientation,8,6,4,59-11;45-22;55-20;50-24,2,SimpleHill,45-22,83,37,selected,27-51,30-56;24-52;28-47;24-57;29-57;32-46,24-52,1.12,86,-3,1100.21797011
GEMS207,2018_Mar_19_1543,Elaine,PE,orientation,8,6,4,59-11;45-22;55-20;50-24,2,SimpleHill,45-22,83,38,selected,24-52,18-56;22-58;21-59;20-53;24-55;32-52,32-52,2.09,93,7,1105.88813635
GEMS207,2018_Mar_19_1543,Elaine,PE,orientation,8,6,4,59-11;45-22;55-20;50-24,2,SimpleHill,45-22,83,39,selected,32-52,25-50;38-54;35-59;26-51;30-47;26-53,30-47,2.39,91,-2,1111.86049669
GEMS207,2018_Mar_19_1543,Elaine,PE,orientation,8,6,4,59-11;45-22;55-20;50-24,3,SimpleHill,55-20,81,0,selected,55-20,59-19;61-24;51-18;62-17;50-23;60-14,51-18,1.85,79,-2,1130.30519593
GEMS207,2018_Mar_19_1543,Elaine,PE,orientation,8,6,4,59-11;45-22;55-20;50-24,3,SimpleHill,55-20,81,1,selected,51-18,51-11;49-16;51-14;49-13;50-25;50-12,49-16,1.43,76,-3,1135.30342294
GEMS207,2018_Mar_19_1543,Elaine,PE,orientation,8,6,4,59-11;45-22;55-20;50-24,3,SimpleHill,55-20,81,2,selected,49-16,43-17;46-15;53-14;49-22;43-12;54-19,43-17,2.04,77,1,1140.92076273
GEMS207,2018_Mar_19_1543,Elaine,PE,orientation,8,6,4,59-11;45-22;55-20;50-24,3,SimpleHill,55-20,81,3,selected,43-17,41-13;45-19;36-20;41-20;40-16;38-19,38-19,1.28,77,0,1145.76345236
GEMS207,2018_Mar_19_1543,Elaine,PE,orientation,8,6,4,59-11;45-22;55-20;50-24,3,SimpleHill,55-20,81,4,selected,38-19,31-20;32-17;39-23;32-22;34-18;43-23,31-20,3.63,74,-3,1152.95598378
GEMS207,2018_Mar_19_1543,Elaine,PE,orientation,8,6,4,59-11;45-22;55-20;50-24,3,SimpleHill,55-20,81,5,selected,31-20,35-26;35-16;38-21;32-24;35-18;32-19,35-26,6.61,83,9,1163.13910479
GEMS207,2018_Mar_19_1543,Elaine,PE,orientation,8,6,4,59-11;45-22;55-20;50-24,3,SimpleHill,55-20,81,6,selected,35-26,41-22;43-26;34-22;40-31;28-24;34-30,28-24,7.77,76,-7,1174.48043275
GEMS207,2018_Mar_19_1543,Elaine,PE,orientation,8,6,4,59-11;45-22;55-20;50-24,3,SimpleHill,55-20,81,7,selected,28-24,26-22;22-27;23-23;22-22;24-28;35-22,23-23,2.45,70,-6,1180.51215135
GEMS207,2018_Mar_19_1543,Elaine,PE,orientation,8,6,4,59-11;45-22;55-20;50-24,3,SimpleHill,55-20,81,8,selected,23-23,22-16;16-20;26-16;17-23;28-25;19-26,28-25,5.54,77,7,1189.60842073
GEMS207,2018_Mar_19_1543,Elaine,PE,orientation,8,6,4,59-11;45-22;55-20;50-24,3,SimpleHill,55-20,81,9,selected,28-25,32-30;27-23;28-22;24-23;22-25;31-31,27-23,9.06,74,-3,1202.24872587
GEMS207,2018_Mar_19_1543,Elaine,PE,orientation,8,6,4,59-11;45-22;55-20;50-24,3,SimpleHill,55-20,81,10,selected,27-23,33-19;27-29;28-25;25-25;28-24;27-27,27-29,3.04,80,6,1208.86351132
GEMS207,2018_Mar_19_1543,Elaine,PE,orientation,8,6,4,59-11;45-22;55-20;50-24,3,SimpleHill,55-20,81,11,selected,27-29,32-29;24-27;33-33;32-31;28-34;27-26,32-31,4.37,86,6,1216.78804154
GEMS207,2018_Mar_19_1543,Elaine,PE,orientation,8,6,4,59-11;45-22;55-20;50-24,3,SimpleHill,55-20,81,12,selected,32-31,29-38;29-31;37-28;28-30;36-30;29-32,37-28,4.42,86,0,1224.79107858
GEMS207,2018_Mar_19_1543,Elaine,PE,orientation,8,6,4,59-11;45-22;55-20;50-24,3,SimpleHill,55-20,81,13,selected,37-28,32-28;33-27;30-31;38-26;41-26;41-24,33-27,5.24,83,-3,1233.58380307
GEMS207,2018_Mar_19_1543,Elaine,PE,orientation,8,6,4,59-11;45-22;55-20;50-24,3,SimpleHill,55-20,81,14,selected,33-27,30-32;27-25;33-32;34-31;33-21;36-22,34-31,2.41,87,4,1239.55971932
GEMS207,2018_Mar_19_1543,Elaine,PE,orientation,8,6,4,59-11;45-22;55-20;50-24,3,SimpleHill,55-20,81,15,selected,34-31,30-31;37-29;40-26;30-25;29-33;34-38,30-31,2.56,84,-3,1245.67584756
GEMS207,2018_Mar_19_1543,Elaine,PE,orientation,8,6,4,59-11;45-22;55-20;50-24,3,SimpleHill,55-20,81,16,selected,30-31,26-36;30-31;26-37;36-29;33-34;28-34,30-31,1.24,84,0,1250.50492974
GEMS207,2018_Mar_19_1543,Elaine,PE,orientation,8,6,4,59-11;45-22;55-20;50-24,3,SimpleHill,55-20,81,17,selected,30-31,25-25;27-38;28-32;29-38;28-26;35-26,28-32,1.36,83,-1,1255.43212089
GEMS207,2018_Mar_19_1543,Elaine,PE,orientation,8,6,4,59-11;45-22;55-20;50-24,3,SimpleHill,55-20,81,18,selected,28-32,28-30;22-34;28-29;34-34;31-28;31-37,28-30,2.12,82,-1,1261.12335272
GEMS207,2018_Mar_19_1543,Elaine,PE,orientation,8,6,4,59-11;45-22;55-20;50-24,3,SimpleHill,55-20,81,19,selected,28-30,27-32;32-30;23-27;28-32;34-29;29-28,29-28,1.53,81,-1,1266.21289441
GEMS207,2018_Mar_19_1543,Elaine,PE,orientation,8,6,4,59-11;45-22;55-20;50-24,3,SimpleHill,55-20,81,20,selected,29-28,36-28;33-33;31-33;32-23;31-28;30-29,31-33,3.15,87,6,1272.93511503
GEMS207,2018_Mar_19_1543,Elaine,PE,orientation,8,6,4,59-11;45-22;55-20;50-24,3,SimpleHill,55-20,81,21,selected,31-33,31-36;32-30;25-34;37-34;24-36;26-34,26-34,10.43,83,-4,1286.93414387
GEMS207,2018_Mar_19_1543,Elaine,PE,orientation,8,6,4,59-11;45-22;55-20;50-24,3,SimpleHill,55-20,81,22,selected,26-34,26-34;23-29;26-37;30-31;24-35;31-30,26-37,0.84,85,2,1291.33797371
GEMS207,2018_Mar_19_1543,Elaine,PE,orientation,8,6,4,59-11;45-22;55-20;50-24,3,SimpleHill,55-20,81,23,selected,26-37,20-35;30-36;19-34;27-39;32-36;21-41,27-39,2.93,87,2,1297.84815553
GEMS207,2018_Mar_19_1543,Elaine,PE,orientation,8,6,4,59-11;45-22;55-20;50-24,3,SimpleHill,55-20,81,24,selected,27-39,31-38;25-37;28-41;26-44;24-40;30-37,24-40,2.12,84,-3,1303.54236871
GEMS207,2018_Mar_19_1543,Elaine,PE,orientation,8,6,4,59-11;45-22;55-20;50-24,3,SimpleHill,55-20,81,25,selected,24-40,19-42;29-40;23-40;20-37;24-48;29-41,19-42,0.57,79,-5,1307.69128369
GEMS207,2018_Mar_19_1543,Elaine,PE,orientation,8,6,4,59-11;45-22;55-20;50-24,3,SimpleHill,55-20,81,26,selected,19-42,22-36;27-42;13-42;24-48;18-48;20-48,24-48,0.49,86,7,1311.75232371
GEMS207,2018_Mar_19_1543,Elaine,PE,orientation,8,6,4,59-11;45-22;55-20;50-24,3,SimpleHill,55-20,81,27,selected,24-48,23-44;18-46;20-43;22-49;29-45;21-44,21-44,2.79,82,-4,1318.09552869
GEMS207,2018_Mar_19_1543,Elaine,PE,orientation,8,6,4,59-11;45-22;55-20;50-24,3,SimpleHill,55-20,81,28,selected,21-44,24-37;16-45;21-50;18-51;17-49;22-49,18-51,0.91,79,-3,1322.57188347
GEMS207,2018_Mar_19_1543,Elaine,PE,orientation,8,6,4,59-11;45-22;55-20;50-24,3,SimpleHill,55-20,81,29,selected,18-51,20-58;21-52;23-51;11-50;14-51;12-51,21-52,0.54,83,4,1326.68778316
GEMS207,2018_Mar_19_1543,Elaine,PE,orientation,8,6,4,59-11;45-22;55-20;50-24,3,SimpleHill,55-20,81,30,selected,21-52,21-49;22-45;22-47;24-54;20-56;22-56,22-56,1.07,83,0,1331.31692188
GEMS207,2018_Mar_19_1543,Elaine,PE,orientation,8,6,4,59-11;45-22;55-20;50-24,3,SimpleHill,55-20,81,31,selected,22-56,23-50;28-52;19-63;19-55;24-55;24-50,19-55,0.77,80,-3,1335.65675373
GEMS207,2018_Mar_19_1543,Elaine,PE,orientation,8,6,4,59-11;45-22;55-20;50-24,3,SimpleHill,55-20,81,32,selected,19-55,15-53;20-52;25-57;16-59;21-55;18-50,15-53,1.15,75,-5,1340.35356733
GEMS207,2018_Mar_19_1543,Elaine,PE,orientation,8,6,4,59-11;45-22;55-20;50-24,3,SimpleHill,55-20,81,33,selected,15-53,21-56;7-53;13-49;22-55;20-58;21-53,20-58,6.07,80,5,1350.00778113
GEMS207,2018_Mar_19_1543,Elaine,PE,orientation,8,6,4,59-11;45-22;55-20;50-24,3,SimpleHill,55-20,81,34,selected,20-58,23-52;27-59;19-54;26-56;22-63;25-57,23-52,4.96,85,5,1358.54995202
GEMS207,2018_Mar_19_1543,Elaine,PE,orientation,8,6,4,59-11;45-22;55-20;50-24,3,SimpleHill,55-20,81,35,selected,23-52,23-58;20-58;19-51;18-56;29-52;23-57,29-52,6.08,91,6,1368.20077699
GEMS207,2018_Mar_19_1543,Elaine,PE,orientation,8,6,4,59-11;45-22;55-20;50-24,3,SimpleHill,55-20,81,36,selected,29-52,32-49;23-53;29-58;23-52;23-47;25-56,23-53,3.92,85,-6,1375.67245522
GEMS207,2018_Mar_19_1543,Elaine,PE,orientation,8,6,4,59-11;45-22;55-20;50-24,3,SimpleHill,55-20,81,37,selected,23-53,18-51;27-47;28-47;26-48;26-50;24-47,26-48,1.14,88,3,1380.38182701
GEMS207,2018_Mar_19_1543,Elaine,PE,orientation,8,6,4,59-11;45-22;55-20;50-24,3,SimpleHill,55-20,81,38,selected,26-48,25-50;28-51;30-54;32-48;22-43;26-56,26-56,1.13,87,-1,1385.08039697
GEMS207,2018_Mar_19_1543,Elaine,PE,orientation,8,6,4,59-11;45-22;55-20;50-24,3,SimpleHill,55-20,81,39,selected,26-56,29-60;27-62;26-61;28-51;21-51;30-55,21-51,4.85,83,-4,1393.48394032
GEMS207,2018_Mar_19_1543,Elaine,PE,orientation,8,6,4,59-11;45-22;55-20;50-24,4,SimpleHill,50-24,86,0,selected,50-24,51-20;57-22;47-30;51-18;52-19;45-22,45-22,5.14,83,-3,1408.27126358
GEMS207,2018_Mar_19_1543,Elaine,PE,orientation,8,6,4,59-11;45-22;55-20;50-24,4,SimpleHill,50-24,86,1,selected,45-22,49-22;52-21;44-19;41-26;50-21;41-24,41-24,0.92,84,1,1412.76007379
GEMS207,2018_Mar_19_1543,Elaine,PE,orientation,8,6,4,59-11;45-22;55-20;50-24,4,SimpleHill,50-24,86,2,selected,41-24,42-22;39-23;42-30;42-18;47-23;37-19,47-23,2.73,85,1,1419.05590094
GEMS207,2018_Mar_19_1543,Elaine,PE,orientation,8,6,4,59-11;45-22;55-20;50-24,4,SimpleHill,50-24,86,3,selected,47-23,44-21;53-20;53-24;42-27;40-22;42-29,53-20,3.12,81,-4,1425.74057504
GEMS207,2018_Mar_19_1543,Elaine,PE,orientation,8,6,4,59-11;45-22;55-20;50-24,4,SimpleHill,50-24,86,4,selected,53-20,53-18;59-16;59-19;60-22;53-20;55-24,53-18,0.75,79,-2,1430.06241001
GEMS207,2018_Mar_19_1543,Elaine,PE,orientation,8,6,4,59-11;45-22;55-20;50-24,4,SimpleHill,50-24,86,5,selected,53-18,55-14;52-24;57-23;54-21;50-14;49-22,50-14,1.18,74,-5,1434.81615526
GEMS207,2018_Mar_19_1543,Elaine,PE,orientation,8,6,4,59-11;45-22;55-20;50-24,4,SimpleHill,50-24,86,6,selected,50-14,47-9;53-8;56-16;52-17;48-19;54-16,56-16,0.38,76,2,1438.80659089
GEMS207,2018_Mar_19_1543,Elaine,PE,orientation,8,6,4,59-11;45-22;55-20;50-24,4,SimpleHill,50-24,86,7,selected,56-16,60-21;61-10;54-12;50-11;49-14;58-21,58-21,0.38,81,5,1442.758159
GEMS207,2018_Mar_19_1543,Elaine,PE,orientation,8,6,4,59-11;45-22;55-20;50-24,4,SimpleHill,50-24,86,8,selected,58-21,55-15;63-20;58-29;54-17;57-19;50-21,63-20,1.8,78,-3,1448.13442504
GEMS207,2018_Mar_19_1543,Elaine,PE,orientation,8,6,4,59-11;45-22;55-20;50-24,4,SimpleHill,50-24,86,9,selected,63-20,62-24;64-14;56-18;57-19;63-14;59-15,57-19,0.41,79,1,1452.09097474
GEMS207,2018_Mar_19_1543,Elaine,PE,orientation,8,6,4,59-11;45-22;55-20;50-24,4,SimpleHill,50-24,86,10,selected,57-19,55-23;59-25;53-22;56-12;62-23;54-25,55-23,0.38,84,5,1456.07646271
GEMS207,2018_Mar_19_1543,Elaine,PE,orientation,8,6,4,59-11;45-22;55-20;50-24,4,SimpleHill,50-24,86,11,selected,55-23,61-20;57-20;59-28;52-27;60-23;54-16,59-28,1.2,88,4,1460.85436756
GEMS207,2018_Mar_19_1543,Elaine,PE,orientation,8,6,4,59-11;45-22;55-20;50-24,4,SimpleHill,50-24,86,12,selected,59-28,54-24;58-22;62-27;57-32;65-30;63-34,65-30,0.59,87,-1,1465.00648827
GEMS207,2018_Mar_19_1543,Elaine,PE,orientation,8,6,4,59-11;45-22;55-20;50-24,4,SimpleHill,50-24,86,13,selected,65-30,65-32;68-27;60-34;64-36;62-30;60-33,65-32,0.67,89,2,1469.25581592
GEMS207,2018_Mar_19_1543,Elaine,PE,orientation,8,6,4,59-11;45-22;55-20;50-24,4,SimpleHill,50-24,86,14,selected,65-32,65-26;62-25;68-28;63-34;64-28;58-33,62-25,0.39,84,-5,1473.2328957
GEMS207,2018_Mar_19_1543,Elaine,PE,orientation,8,6,4,59-11;45-22;55-20;50-24,4,SimpleHill,50-24,86,15,selected,62-25,61-19;67-29;66-24;59-29;58-31;65-32,59-29,0.16,89,5,1476.96370504
GEMS207,2018_Mar_19_1543,Elaine,PE,orientation,8,6,4,59-11;45-22;55-20;50-24,4,SimpleHill,50-24,86,16,selected,59-29,62-36;56-25;56-33;59-23;60-22;63-31,59-23,0.22,83,-6,1480.75953283
GEMS207,2018_Mar_19_1543,Elaine,PE,orientation,8,6,4,59-11;45-22;55-20;50-24,4,SimpleHill,50-24,86,17,selected,59-23,57-28;65-28;59-30;53-23;57-20;56-25,59-30,0.4,90,7,1484.73409221
GEMS207,2018_Mar_19_1543,Elaine,PE,orientation,8,6,4,59-11;45-22;55-20;50-24,4,SimpleHill,50-24,86,18,selected,59-30,57-31;62-25;56-31;59-27;56-26;61-37,56-26,0.49,87,-3,1488.80686553
GEMS207,2018_Mar_19_1543,Elaine,PE,orientation,8,6,4,59-11;45-22;55-20;50-24,4,SimpleHill,50-24,86,19,selected,56-26,57-32;57-29;55-24;52-27;60-25;60-30,57-32,0.23,92,5,1492.62261043
GEMS207,2018_Mar_19_1543,Elaine,PE,orientation,8,6,4,59-11;45-22;55-20;50-24,4,SimpleHill,50-24,86,20,selected,57-32,64-34;59-34;64-29;54-31;50-31;57-34,57-34,0.24,93,1,1496.41219065
GEMS207,2018_Mar_19_1543,Elaine,PE,orientation,8,6,4,59-11;45-22;55-20;50-24,4,SimpleHill,50-24,86,21,selected,57-34,53-35;63-35;52-39;56-31;60-39;51-39,63-35,0.57,92,-1,1500.54576521
GEMS207,2018_Mar_19_1543,Elaine,PE,orientation,8,6,4,59-11;45-22;55-20;50-24,4,SimpleHill,50-24,86,22,selected,63-35,70-35;66-39;70-32;63-43;62-40;63-31,70-32,0.39,85,-7,1504.50631958
GEMS207,2018_Mar_19_1543,Elaine,PE,orientation,8,6,4,59-11;45-22;55-20;50-24,4,SimpleHill,50-24,86,23,selected,70-32,69-34;66-33;67-28;70-24;68-29;70-38,69-34,0.59,87,2,1508.68883947
GEMS207,2018_Mar_19_1543,Elaine,PE,orientation,8,6,4,59-11;45-22;55-20;50-24,4,SimpleHill,50-24,86,24,selected,69-34,68-35;62-36;65-38;63-37;67-36;64-37,63-37,0.88,93,6,1513.13162743
GEMS207,2018_Mar_19_1543,Elaine,PE,orientation,8,6,4,59-11;45-22;55-20;50-24,4,SimpleHill,50-24,86,25,selected,63-37,61-37;57-32;60-42;62-33;67-38;68-37,57-32,0.7,92,-1,1517.407275
GEMS207,2018_Mar_19_1543,Elaine,PE,orientation,8,6,4,59-11;45-22;55-20;50-24,4,SimpleHill,50-24,86,26,selected,57-32,54-26;62-32;53-30;63-32;60-33;59-30,54-26,0.77,88,-4,1521.72604284
GEMS207,2018_Mar_19_1543,Elaine,PE,orientation,8,6,4,59-11;45-22;55-20;50-24,4,SimpleHill,50-24,86,27,selected,54-26,55-32;51-24;54-33;58-21;49-31;50-21,58-21,0.66,81,-7,1525.93790176
GEMS207,2018_Mar_19_1543,Elaine,PE,orientation,8,6,4,59-11;45-22;55-20;50-24,4,SimpleHill,50-24,86,28,selected,58-21,60-16;53-27;65-24;61-22;64-16;54-27,60-16,0.51,74,-7,1530.02034635
GEMS207,2018_Mar_19_1543,Elaine,PE,orientation,8,6,4,59-11;45-22;55-20;50-24,4,SimpleHill,50-24,86,29,selected,60-16,67-19;56-13;65-13;56-22;64-15;62-10,56-22,1.9,83,9,1535.48915143
GEMS207,2018_Mar_19_1543,Elaine,PE,orientation,8,6,4,59-11;45-22;55-20;50-24,4,SimpleHill,50-24,86,30,selected,56-22,62-21;51-28;56-20;56-19;58-24;61-25,56-20,1.95,81,-2,1540.99564834
GEMS207,2018_Mar_19_1543,Elaine,PE,orientation,8,6,4,59-11;45-22;55-20;50-24,4,SimpleHill,50-24,86,31,selected,56-20,62-25;55-25;57-20;58-27;60-19;57-19,55-25,1.18,87,6,1545.73905172
GEMS207,2018_Mar_19_1543,Elaine,PE,orientation,8,6,4,59-11;45-22;55-20;50-24,4,SimpleHill,50-24,86,32,selected,55-25,61-29;50-27;53-19;58-24;51-27;52-22,58-24,3.35,85,-2,1552.65648613
GEMS207,2018_Mar_19_1543,Elaine,PE,orientation,8,6,4,59-11;45-22;55-20;50-24,4,SimpleHill,50-24,86,33,selected,58-24,61-28;58-21;55-28;60-29;53-20;57-19,61-28,0.85,87,2,1557.07105955
GEMS207,2018_Mar_19_1543,Elaine,PE,orientation,8,6,4,59-11;45-22;55-20;50-24,4,SimpleHill,50-24,86,34,selected,61-28,65-32;59-28;58-28;67-32;57-32;57-25,58-28,0.27,89,2,1560.89307698
GEMS207,2018_Mar_19_1543,Elaine,PE,orientation,8,6,4,59-11;45-22;55-20;50-24,4,SimpleHill,50-24,86,35,selected,58-28,62-24;53-32;60-31;55-25;61-28;60-26,61-28,0.64,87,-2,1565.09378867
GEMS207,2018_Mar_19_1543,Elaine,PE,orientation,8,6,4,59-11;45-22;55-20;50-24,4,SimpleHill,50-24,86,36,selected,61-28,56-26;66-33;66-34;67-23;56-24;57-31,56-26,0.41,87,0,1569.06616694
GEMS207,2018_Mar_19_1543,Elaine,PE,orientation,8,6,4,59-11;45-22;55-20;50-24,4,SimpleHill,50-24,86,37,selected,56-26,62-22;61-25;55-31;51-22;56-30;52-28,55-31,0.22,92,5,1572.84299116
GEMS207,2018_Mar_19_1543,Elaine,PE,orientation,8,6,4,59-11;45-22;55-20;50-24,4,SimpleHill,50-24,86,38,selected,55-31,53-34;53-26;51-33;49-30;51-35;60-26,51-35,0.24,95,3,1576.65969345
GEMS207,2018_Mar_19_1543,Elaine,PE,orientation,8,6,4,59-11;45-22;55-20;50-24,4,SimpleHill,50-24,86,39,selected,51-35,55-39;54-28;50-29;50-37;51-32;49-37,54-28,0.32,90,-5,1580.53572423
