subj_id,date,computer,experimenter,version,generation,inherit_from,sight_radius,n_gabors,block_ix,landscape_ix,landscape_name,starting_pos,starting_score,trial,pos,stims,selected,rt,score,delta,exp_time
GEMS282,2018_Nov_15_1828,Kramer,AG,1.3,2,GEMS192,10,6,1,1,SimpleHill,0-0,1,0,0-0,10-0;5-3;3-4;6-7;1-5;2-0,6-7,10.41,25,24,286.283080833
GEMS282,2018_Nov_15_1828,Kramer,AG,1.3,2,GEMS192,10,6,1,1,SimpleHill,0-0,1,1,6-7,15-11;9-15;10-5;10-12;5-0;6-5,15-11,5.18,46,21,295.524872203
GEMS282,2018_Nov_15_1828,Kramer,AG,1.3,2,GEMS192,10,6,1,1,SimpleHill,0-0,1,2,15-11,6-14;22-13;8-14;23-17;16-5;8-18,16-5,3.46,37,-9,303.049489931
GEMS282,2018_Nov_15_1828,Kramer,AG,1.3,2,GEMS192,10,6,1,1,SimpleHill,0-0,1,3,16-5,21-3;13-12;14-13;21-2;11-10;20-12,20-12,7.34,54,17,314.432420321
GEMS282,2018_Nov_15_1828,Kramer,AG,1.3,2,GEMS192,10,6,1,1,SimpleHill,0-0,1,4,20-12,28-16;19-15;15-19;16-7;22-19;12-16,22-19,4.78,66,12,323.282477778
GEMS282,2018_Nov_15_1828,Kramer,AG,1.3,2,GEMS192,10,6,1,1,SimpleHill,0-0,1,5,22-19,16-21;22-22;31-19;22-10;19-18;26-23,31-19,1.1,74,8,328.434634406
GEMS282,2018_Nov_15_1828,Kramer,AG,1.3,2,GEMS192,10,6,1,1,SimpleHill,0-0,1,6,31-19,25-25;31-19;31-28;25-16;27-16;34-10,34-10,9.24,63,-11,341.746893655
GEMS282,2018_Nov_15_1828,Kramer,AG,1.3,2,GEMS192,10,6,1,1,SimpleHill,0-0,1,7,34-10,32-6;27-4;33-5;26-7;37-1;35-3,26-7,5.92,52,-11,351.731779814
GEMS282,2018_Nov_15_1828,Kramer,AG,1.3,2,GEMS192,10,6,1,1,SimpleHill,0-0,1,8,26-7,24-7;31-11;23-1;33-4;18-7;29-3,33-4,4.18,52,0,360.015114801
GEMS282,2018_Nov_15_1828,Kramer,AG,1.3,2,GEMS192,10,6,1,1,SimpleHill,0-0,1,9,33-4,39-8;31-10;40-3;33-5;42-1;36-5,40-3,11.42,54,2,375.49394383599997
GEMS282,2018_Nov_15_1828,Kramer,AG,1.3,2,GEMS192,10,6,1,1,SimpleHill,0-0,1,10,40-3,37-2;35-9;35-4;41-4;43-11;44-12,43-11,12.2,69,15,391.760667906
GEMS282,2018_Nov_15_1828,Kramer,AG,1.3,2,GEMS192,10,6,1,1,SimpleHill,0-0,1,11,43-11,39-13;41-20;50-15;35-8;46-16;46-9,50-15,1.64,76,7,397.53778604300004
GEMS282,2018_Nov_15_1828,Kramer,AG,1.3,2,GEMS192,10,6,1,1,SimpleHill,0-0,1,12,50-15,51-23;45-23;57-22;45-13;51-21;54-20,57-22,2.95,84,8,404.561526076
GEMS282,2018_Nov_15_1828,Kramer,AG,1.3,2,GEMS192,10,6,1,1,SimpleHill,0-0,1,13,57-22,56-14;50-28;61-25;56-30;64-16;54-23,56-30,1.82,92,8,410.45407654699994
GEMS282,2018_Nov_15_1828,Kramer,AG,1.3,2,GEMS192,10,6,1,1,SimpleHill,0-0,1,14,56-30,59-30;48-30;51-34;50-26;62-37;59-28,51-34,2.46,95,3,416.98949966199996
GEMS282,2018_Nov_15_1828,Kramer,AG,1.3,2,GEMS192,10,6,1,1,SimpleHill,0-0,1,15,51-34,44-39;49-31;48-28;50-35;55-31;45-29,50-35,2.12,96,1,423.183009772
GEMS282,2018_Nov_15_1828,Kramer,AG,1.3,2,GEMS192,10,6,1,1,SimpleHill,0-0,1,16,50-35,47-44;58-37;50-45;44-43;59-33;45-31,58-37,5.74,96,0,432.986326258
GEMS282,2018_Nov_15_1828,Kramer,AG,1.3,2,GEMS192,10,6,1,1,SimpleHill,0-0,1,17,58-37,67-38;55-39;55-44;55-46;62-39;63-35,67-38,3.95,92,-4,441.002654213
GEMS282,2018_Nov_15_1828,Kramer,AG,1.3,2,GEMS192,10,6,1,1,SimpleHill,0-0,1,18,67-38,60-31;65-44;65-32;65-38;64-38;64-30,65-32,6.68,90,-2,451.767455163
GEMS282,2018_Nov_15_1828,Kramer,AG,1.3,2,GEMS192,10,6,1,1,SimpleHill,0-0,1,19,65-32,70-32;58-34;66-41;60-39;62-30;68-31,58-34,3.78,94,4,459.60900966400004
GEMS282,2018_Nov_15_1828,Kramer,AG,1.3,2,GEMS192,10,6,1,1,SimpleHill,0-0,1,20,58-34,60-35;61-27;59-43;57-26;58-42;64-31,57-26,1.62,88,-6,465.297706212
GEMS282,2018_Nov_15_1828,Kramer,AG,1.3,2,GEMS192,10,6,1,1,SimpleHill,0-0,1,21,57-26,53-25;52-21;48-23;61-19;54-33;53-18,52-21,1.31,84,-4,470.676355675
GEMS282,2018_Nov_15_1828,Kramer,AG,1.3,2,GEMS192,10,6,1,1,SimpleHill,0-0,1,22,52-21,56-26;51-29;53-12;58-15;42-21;52-24,42-21,1.18,82,-2,475.936019449
GEMS282,2018_Nov_15_1828,Kramer,AG,1.3,2,GEMS192,10,6,1,1,SimpleHill,0-0,1,23,42-21,38-27;41-17;40-12;37-21;34-21;35-28,40-12,0.85,70,-12,480.86077097699996
GEMS282,2018_Nov_15_1828,Kramer,AG,1.3,2,GEMS192,10,6,1,1,SimpleHill,0-0,1,24,40-12,44-17;35-4;33-5;34-14;48-18;40-5,35-4,0.69,54,-16,485.624394624
GEMS282,2018_Nov_15_1828,Kramer,AG,1.3,2,GEMS192,10,6,1,1,SimpleHill,0-0,1,25,35-4,37-0;28-11;27-8;37-3;35-1;44-3,44-3,1.71,56,2,491.399324603
GEMS282,2018_Nov_15_1828,Kramer,AG,1.3,2,GEMS192,10,6,1,1,SimpleHill,0-0,1,26,44-3,45-11;53-1;51-6;49-3;46-1;48-11,48-11,1.71,70,14,497.16330355400004
GEMS282,2018_Nov_15_1828,Kramer,AG,1.3,2,GEMS192,10,6,1,1,SimpleHill,0-0,1,27,48-11,48-18;48-15;45-8;56-15;43-7;51-14,48-15,2.49,76,6,503.72513211800003
GEMS282,2018_Nov_15_1828,Kramer,AG,1.3,2,GEMS192,10,6,1,1,SimpleHill,0-0,1,28,48-15,45-18;43-10;50-10;41-13;45-14;52-12,45-14,1.62,74,-2,509.42555464199995
GEMS282,2018_Nov_15_1828,Kramer,AG,1.3,2,GEMS192,10,6,1,1,SimpleHill,0-0,1,29,45-14,46-21;52-12;54-13;37-15;51-16;50-20,51-16,1.09,77,3,514.596720005
GEMS282,2018_Nov_15_1828,Kramer,AG,1.3,2,GEMS192,10,6,1,1,SimpleHill,0-0,1,30,51-16,45-10;48-7;56-24;43-13;42-12;46-23,46-23,1.56,86,9,520.237546293
GEMS282,2018_Nov_15_1828,Kramer,AG,1.3,2,GEMS192,10,6,1,1,SimpleHill,0-0,1,31,46-23,52-17;47-26;50-15;39-27;47-23;54-18,47-23,0.86,86,0,525.166401736
GEMS282,2018_Nov_15_1828,Kramer,AG,1.3,2,GEMS192,10,6,1,1,SimpleHill,0-0,1,32,47-23,47-29;49-30;55-21;54-27;51-24;56-23,51-24,0.97,87,1,530.22462381
GEMS282,2018_Nov_15_1828,Kramer,AG,1.3,2,GEMS192,10,6,1,1,SimpleHill,0-0,1,33,51-24,53-17;53-22;59-21;42-24;57-22;44-27,42-24,1.82,86,-1,536.114069697
GEMS282,2018_Nov_15_1828,Kramer,AG,1.3,2,GEMS192,10,6,1,1,SimpleHill,0-0,1,34,42-24,43-21;44-20;48-18;36-16;39-24;43-24,43-24,2.61,86,0,542.8112048630001
GEMS282,2018_Nov_15_1828,Kramer,AG,1.3,2,GEMS192,10,6,1,1,SimpleHill,0-0,1,35,43-24,45-19;51-18;34-27;48-21;43-30;49-17,49-17,0.65,79,-7,547.526332148
GEMS282,2018_Nov_15_1828,Kramer,AG,1.3,2,GEMS192,10,6,1,1,SimpleHill,0-0,1,36,49-17,58-20;53-22;44-25;40-15;47-21;42-15,44-25,0.56,87,8,552.170328
GEMS282,2018_Nov_15_1828,Kramer,AG,1.3,2,GEMS192,10,6,1,1,SimpleHill,0-0,1,37,44-25,51-29;49-20;36-20;46-27;50-24;52-28,46-27,2.47,90,3,558.708264807
GEMS282,2018_Nov_15_1828,Kramer,AG,1.3,2,GEMS192,10,6,1,1,SimpleHill,0-0,1,38,46-27,44-24;40-35;47-26;45-33;46-31;43-27,47-26,1.53,89,-1,564.310054128
GEMS282,2018_Nov_15_1828,Kramer,AG,1.3,2,GEMS192,10,6,1,1,SimpleHill,0-0,1,39,47-26,43-29;51-20;50-28;50-22;47-36;42-28,50-22,2.62,85,-4,570.992691952
GEMS282,2018_Nov_15_1828,Kramer,AG,1.3,2,GEMS192,10,6,1,1,SimpleHill,0-0,1,40,50-22,43-24;44-28;42-19;56-16;48-31;55-29,48-31,1.7,93,8,576.758027138
GEMS282,2018_Nov_15_1828,Kramer,AG,1.3,2,GEMS192,10,6,1,1,SimpleHill,0-0,1,41,48-31,52-28;53-26;48-30;54-39;51-39;49-39,51-39,1.54,98,5,582.362587826
GEMS282,2018_Nov_15_1828,Kramer,AG,1.3,2,GEMS192,10,6,1,1,SimpleHill,0-0,1,42,51-39,44-42;58-33;56-44;48-46;52-48;45-44,52-48,3.08,100,2,589.521285238
GEMS282,2018_Nov_15_1828,Kramer,AG,1.3,2,GEMS192,10,6,1,1,SimpleHill,0-0,1,43,52-48,61-48;52-45;51-45;54-53;44-47;46-47,52-45,2.32,100,0,595.9073259730001
GEMS282,2018_Nov_15_1828,Kramer,AG,1.3,2,GEMS192,10,6,1,1,SimpleHill,0-0,1,44,52-45,51-48;50-50;54-42;49-41;55-37;54-41,50-50,1.04,101,1,601.018000442
GEMS282,2018_Nov_15_1828,Kramer,AG,1.3,2,GEMS192,10,6,1,1,SimpleHill,0-0,1,45,50-50,42-54;47-52;46-54;50-44;55-58;55-51,50-44,3.83,100,-1,608.919407571
GEMS282,2018_Nov_15_1828,Kramer,AG,1.3,2,GEMS192,10,6,1,1,SimpleHill,0-0,1,46,50-44,57-38;45-37;59-46;42-50;57-43;50-43,50-43,1.59,100,0,614.583818008
GEMS282,2018_Nov_15_1828,Kramer,AG,1.3,2,GEMS192,10,6,1,1,SimpleHill,0-0,1,47,50-43,49-52;46-39;44-46;46-35;57-50;59-39,49-52,2.93,100,0,621.591668614
GEMS282,2018_Nov_15_1828,Kramer,AG,1.3,2,GEMS192,10,6,1,1,SimpleHill,0-0,1,48,49-52,48-44;58-55;52-46;52-43;55-50;49-50,52-46,0.82,100,0,626.49220381
GEMS282,2018_Nov_15_1828,Kramer,AG,1.3,2,GEMS192,10,6,1,1,SimpleHill,0-0,1,49,52-46,52-41;44-42;58-45;61-46;57-45;59-40,61-46,2.32,98,-2,632.894043385
GEMS282,2018_Nov_15_1828,Kramer,AG,1.3,2,GEMS192,10,6,1,1,SimpleHill,0-0,1,50,61-46,63-53;70-45;56-52;57-51;55-53;67-53,55-53,1.49,100,2,638.465538765
GEMS282,2018_Nov_15_1828,Kramer,AG,1.3,2,GEMS192,10,6,1,1,SimpleHill,0-0,1,51,55-53,62-52;51-44;57-50;57-55;61-53;54-53,57-55,1.08,99,-1,643.6060590440001
GEMS282,2018_Nov_15_1828,Kramer,AG,1.3,2,GEMS192,10,6,1,1,SimpleHill,0-0,1,52,57-55,66-57;48-59;56-47;57-51;55-59;50-49,55-59,1.17,98,-1,648.84824829
GEMS282,2018_Nov_15_1828,Kramer,AG,1.3,2,GEMS192,10,6,1,1,SimpleHill,0-0,1,53,55-59,62-57;49-67;57-66;60-65;54-66;46-58,54-66,1.14,95,-3,654.04258168
GEMS282,2018_Nov_15_1828,Kramer,AG,1.3,2,GEMS192,10,6,1,1,SimpleHill,0-0,1,54,54-66,62-65;46-60;60-59;55-70;52-62;54-70,46-60,2.52,98,3,660.633268248
GEMS282,2018_Nov_15_1828,Kramer,AG,1.3,2,GEMS192,10,6,1,1,SimpleHill,0-0,1,55,46-60,39-57;40-65;46-57;45-54;38-66;52-68,40-65,1.14,94,-4,665.837546934
GEMS282,2018_Nov_15_1828,Kramer,AG,1.3,2,GEMS192,10,6,1,1,SimpleHill,0-0,1,56,40-65,45-68;37-62;36-59;31-62;38-62;37-63,45-68,3.04,94,0,672.9458869619999
GEMS282,2018_Nov_15_1828,Kramer,AG,1.3,2,GEMS192,10,6,1,1,SimpleHill,0-0,1,57,45-68,52-69;46-66;54-68;45-65;37-65;42-69,54-68,1.16,94,0,678.18083826
GEMS282,2018_Nov_15_1828,Kramer,AG,1.3,2,GEMS192,10,6,1,1,SimpleHill,0-0,1,58,54-68,56-66;46-69;60-68;50-61;62-67;55-60,50-61,1.46,98,4,683.705902199
GEMS282,2018_Nov_15_1828,Kramer,AG,1.3,2,GEMS192,10,6,1,1,SimpleHill,0-0,1,59,50-61,54-61;51-68;48-58;50-70;51-57;56-61,50-70,0.85,93,-5,688.6262143539999
GEMS282,2018_Nov_15_1828,Kramer,AG,1.3,2,GEMS192,10,6,1,1,SimpleHill,0-0,1,60,50-70,56-68;54-62;54-68;56-63;56-67;47-68,56-63,0.76,96,3,693.4458994460001
GEMS282,2018_Nov_15_1828,Kramer,AG,1.3,2,GEMS192,10,6,1,1,SimpleHill,0-0,1,61,56-63,62-63;62-56;57-69;50-58;48-59;49-67,50-58,1.6,99,3,699.1079709610001
GEMS282,2018_Nov_15_1828,Kramer,AG,1.3,2,GEMS192,10,6,1,1,SimpleHill,0-0,1,62,50-58,47-56;59-60;53-60;53-57;59-62;48-66,53-57,2.56,99,0,705.732089985
GEMS282,2018_Nov_15_1828,Kramer,AG,1.3,2,GEMS192,10,6,1,1,SimpleHill,0-0,1,63,53-57,54-54;62-53;47-65;49-58;60-60;55-56,49-58,3.08,99,0,712.894661165
GEMS282,2018_Nov_15_1828,Kramer,AG,1.3,2,GEMS192,10,6,1,1,SimpleHill,0-0,1,64,49-58,55-65;44-55;48-57;46-63;45-60;44-62,48-57,2.52,99,0,719.468135361
GEMS282,2018_Nov_15_1828,Kramer,AG,1.3,2,GEMS192,10,6,1,1,SimpleHill,0-0,1,65,48-57,40-51;52-58;49-48;56-51;46-56;45-54,52-58,4.14,99,0,727.6711919310001
GEMS282,2018_Nov_15_1828,Kramer,AG,1.3,2,GEMS192,10,6,1,1,SimpleHill,0-0,1,66,52-58,61-59;46-62;57-62;47-53;50-66;46-64,46-64,3.3,96,-3,735.028237983
GEMS282,2018_Nov_15_1828,Kramer,AG,1.3,2,GEMS192,10,6,1,1,SimpleHill,0-0,1,67,46-64,52-56;42-61;50-57;52-69;52-61;44-70,52-69,2.1,93,-3,741.2060500819999
GEMS282,2018_Nov_15_1828,Kramer,AG,1.3,2,GEMS192,10,6,1,1,SimpleHill,0-0,1,68,52-69,53-61;60-64;52-69;53-68;53-62;57-61,53-68,1.26,94,1,746.5326178180001
GEMS282,2018_Nov_15_1828,Kramer,AG,1.3,2,GEMS192,10,6,1,1,SimpleHill,0-0,1,69,53-68,58-67;55-65;60-61;49-65;55-61;59-60,55-61,5.25,98,4,755.8586817280001
GEMS282,2018_Nov_15_1828,Kramer,AG,1.3,2,GEMS192,10,6,1,1,SimpleHill,0-0,1,70,55-61,51-63;56-68;62-64;51-59;56-57;55-59,56-57,3.07,99,1,762.980414137
GEMS282,2018_Nov_15_1828,Kramer,AG,1.3,2,GEMS192,10,6,1,1,SimpleHill,0-0,1,71,56-57,48-51;52-59;54-63;64-53;55-66;57-61,48-51,3.33,100,1,770.3723609110001
GEMS282,2018_Nov_15_1828,Kramer,AG,1.3,2,GEMS192,10,6,1,1,SimpleHill,0-0,1,72,48-51,43-47;52-44;50-51;43-49;50-48;51-48,52-44,2.79,100,0,777.220803498
GEMS282,2018_Nov_15_1828,Kramer,AG,1.3,2,GEMS192,10,6,1,1,SimpleHill,0-0,1,73,52-44,53-38;54-45;42-44;53-50;51-51;54-40,53-38,1.4,97,-3,782.7285763210001
GEMS282,2018_Nov_15_1828,Kramer,AG,1.3,2,GEMS192,10,6,1,1,SimpleHill,0-0,1,74,53-38,53-40;58-41;52-30;49-33;45-33;48-45,48-45,2.09,100,3,788.886356987
GEMS282,2018_Nov_15_1828,Kramer,AG,1.3,2,GEMS192,10,6,1,1,SimpleHill,0-0,1,75,48-45,44-41;47-48;39-48;46-37;52-44;39-49,46-37,1.13,97,-3,794.078016318
GEMS282,2018_Nov_15_1828,Kramer,AG,1.3,2,GEMS192,10,6,1,1,SimpleHill,0-0,1,76,46-37,50-29;51-44;53-35;47-43;46-46;41-37,51-44,1.89,100,3,800.0280965019999
GEMS282,2018_Nov_15_1828,Kramer,AG,1.3,2,GEMS192,10,6,1,1,SimpleHill,0-0,1,77,51-44,50-35;43-42;55-36;57-37;57-40;52-47,57-37,1.39,96,-4,805.487649524
GEMS282,2018_Nov_15_1828,Kramer,AG,1.3,2,GEMS192,10,6,1,1,SimpleHill,0-0,1,78,57-37,49-32;54-40;49-38;52-43;57-36;64-30,52-43,8.47,99,3,818.026564536
GEMS282,2018_Nov_15_1828,Kramer,AG,1.3,2,GEMS192,10,6,1,1,SimpleHill,0-0,1,79,52-43,49-42;59-46;57-49;52-48;56-48;57-35,52-48,3.41,100,1,825.516900922
GEMS282,2018_Nov_15_1828,Kramer,AG,1.3,2,GEMS192,10,6,2,1,SimpleHill,0-0,1,0,0-0,9-1;1-3;3-4;1-7;3-3;6-8,9-1,5.11,19,18,915.929146728
GEMS282,2018_Nov_15_1828,Kramer,AG,1.3,2,GEMS192,10,6,2,1,SimpleHill,0-0,1,1,9-1,9-10;5-6;3-7;15-2;10-9;14-3,9-10,5.01,35,16,924.995958823
GEMS282,2018_Nov_15_1828,Kramer,AG,1.3,2,GEMS192,10,6,2,1,SimpleHill,0-0,1,2,9-10,18-7;7-4;14-2;8-10;3-14;12-13,14-2,1.05,29,-6,930.124121264
GEMS282,2018_Nov_15_1828,Kramer,AG,1.3,2,GEMS192,10,6,2,1,SimpleHill,0-0,1,3,14-2,17-8;23-3;16-5;12-9;15-0;12-6,15-0,2.19,26,-3,936.380034506
GEMS282,2018_Nov_15_1828,Kramer,AG,1.3,2,GEMS192,10,6,2,1,SimpleHill,0-0,1,4,15-0,9-0;8-3;19-2;12-4;14-4;22-0,9-0,1.72,17,-9,942.168226267
GEMS282,2018_Nov_15_1828,Kramer,AG,1.3,2,GEMS192,10,6,2,1,SimpleHill,0-0,1,5,9-0,3-6;11-6;8-1;4-2;18-2;4-8,8-1,1.44,17,0,947.68183471
GEMS282,2018_Nov_15_1828,Kramer,AG,1.3,2,GEMS192,10,6,2,1,SimpleHill,0-0,1,6,8-1,7-10;12-9;4-10;14-1;6-3;15-4,14-1,0.99,27,10,952.743700085
GEMS282,2018_Nov_15_1828,Kramer,AG,1.3,2,GEMS192,10,6,2,1,SimpleHill,0-0,1,7,14-1,13-0;6-1;13-3;23-2;9-9;15-4,23-2,0.76,40,13,957.5740644480001
GEMS282,2018_Nov_15_1828,Kramer,AG,1.3,2,GEMS192,10,6,2,1,SimpleHill,0-0,1,8,23-2,19-4;28-6;23-2;22-2;19-2;25-1,28-6,2.37,52,12,964.012002855
GEMS282,2018_Nov_15_1828,Kramer,AG,1.3,2,GEMS192,10,6,2,1,SimpleHill,0-0,1,9,28-6,32-10;36-3;24-7;19-10;33-2;34-6,36-3,1.17,52,0,969.267357214
GEMS282,2018_Nov_15_1828,Kramer,AG,1.3,2,GEMS192,10,6,2,1,SimpleHill,0-0,1,10,36-3,45-0;37-9;42-5;28-8;39-2;33-2,45-0,1.36,50,-2,974.698425461
GEMS282,2018_Nov_15_1828,Kramer,AG,1.3,2,GEMS192,10,6,2,1,SimpleHill,0-0,1,11,45-0,47-0;54-3;54-4;42-3;52-5;50-7,47-0,0.97,50,0,979.7364323689999
GEMS282,2018_Nov_15_1828,Kramer,AG,1.3,2,GEMS192,10,6,2,1,SimpleHill,0-0,1,12,47-0,51-1;51-3;48-5;41-4;37-0;48-3,51-3,1.13,56,6,984.9458251839999
GEMS282,2018_Nov_15_1828,Kramer,AG,1.3,2,GEMS192,10,6,2,1,SimpleHill,0-0,1,13,51-3,51-1;45-3;58-3;52-5;57-7;57-9,45-3,1.02,56,0,990.028177485
GEMS282,2018_Nov_15_1828,Kramer,AG,1.3,2,GEMS192,10,6,2,1,SimpleHill,0-0,1,14,45-3,44-7;44-8;37-5;50-8;42-5;40-6,44-7,6.38,63,7,1000.47626413
GEMS282,2018_Nov_15_1828,Kramer,AG,1.3,2,GEMS192,10,6,2,1,SimpleHill,0-0,1,15,44-7,41-2;45-12;51-6;39-7;46-4;38-15,45-12,1.15,71,8,1005.70669123
GEMS282,2018_Nov_15_1828,Kramer,AG,1.3,2,GEMS192,10,6,2,1,SimpleHill,0-0,1,16,45-12,41-7;51-15;46-11;46-13;42-11;53-12,51-15,0.8,76,5,1010.58928296
GEMS282,2018_Nov_15_1828,Kramer,AG,1.3,2,GEMS192,10,6,2,1,SimpleHill,0-0,1,17,51-15,56-22;56-21;48-10;55-16;51-10;51-23,56-21,0.88,83,7,1015.53826906
GEMS282,2018_Nov_15_1828,Kramer,AG,1.3,2,GEMS192,10,6,2,1,SimpleHill,0-0,1,18,56-21,61-21;52-16;56-13;50-16;61-28;63-25,52-16,0.86,77,-6,1020.45530058
GEMS282,2018_Nov_15_1828,Kramer,AG,1.3,2,GEMS192,10,6,2,1,SimpleHill,0-0,1,19,52-16,50-10;58-20;52-9;60-15;53-16;50-18,58-20,0.95,81,4,1025.47044483
GEMS282,2018_Nov_15_1828,Kramer,AG,1.3,2,GEMS192,10,6,2,1,SimpleHill,0-0,1,20,58-20,55-21;60-19;51-19;60-25;55-24;53-28,51-19,2.05,81,0,1031.60459238
GEMS282,2018_Nov_15_1828,Kramer,AG,1.3,2,GEMS192,10,6,2,1,SimpleHill,0-0,1,21,51-19,60-21;43-17;42-17;45-26;51-9;55-24,45-26,1.31,88,7,1036.99411797
GEMS282,2018_Nov_15_1828,Kramer,AG,1.3,2,GEMS192,10,6,2,1,SimpleHill,0-0,1,22,45-26,43-29;48-30;52-26;38-22;45-18;48-22,52-26,1.03,89,1,1042.08974165
GEMS282,2018_Nov_15_1828,Kramer,AG,1.3,2,GEMS192,10,6,2,1,SimpleHill,0-0,1,23,52-26,50-20;48-34;59-22;49-28;42-26;59-29,49-28,1.74,91,2,1047.91760897
GEMS282,2018_Nov_15_1828,Kramer,AG,1.3,2,GEMS192,10,6,2,1,SimpleHill,0-0,1,24,49-28,56-30;52-27;45-37;58-30;45-28;42-33,45-37,1.41,97,6,1053.41061685
GEMS282,2018_Nov_15_1828,Kramer,AG,1.3,2,GEMS192,10,6,2,1,SimpleHill,0-0,1,25,45-37,53-32;45-42;38-41;50-33;41-41;47-46,47-46,2.86,100,3,1060.33048344
GEMS282,2018_Nov_15_1828,Kramer,AG,1.3,2,GEMS192,10,6,2,1,SimpleHill,0-0,1,26,47-46,47-51;44-37;50-51;49-45;38-46;54-50,50-51,0.81,100,0,1065.20306425
GEMS282,2018_Nov_15_1828,Kramer,AG,1.3,2,GEMS192,10,6,2,1,SimpleHill,0-0,1,27,50-51,48-53;49-56;50-60;52-58;49-52;49-45,52-58,1.27,99,-1,1070.5434232
GEMS282,2018_Nov_15_1828,Kramer,AG,1.3,2,GEMS192,10,6,2,1,SimpleHill,0-0,1,28,52-58,44-56;50-49;51-66;52-65;56-65;54-49,50-49,1.02,100,1,1075.639302
GEMS282,2018_Nov_15_1828,Kramer,AG,1.3,2,GEMS192,10,6,2,1,SimpleHill,0-0,1,29,50-49,51-48;56-56;52-51;51-42;46-57;59-46,51-42,1.28,99,-1,1080.9882689
GEMS282,2018_Nov_15_1828,Kramer,AG,1.3,2,GEMS192,10,6,2,1,SimpleHill,0-0,1,30,51-42,48-37;44-40;59-46;42-43;56-34;56-37,42-43,1.74,98,-1,1086.80884706
GEMS282,2018_Nov_15_1828,Kramer,AG,1.3,2,GEMS192,10,6,2,1,SimpleHill,0-0,1,31,42-43,40-35;47-50;34-40;50-43;46-48;36-35,36-35,2.84,92,-6,1093.74184611
GEMS282,2018_Nov_15_1828,Kramer,AG,1.3,2,GEMS192,10,6,2,1,SimpleHill,0-0,1,32,36-35,44-37;41-33;34-38;39-39;33-28;38-27,39-39,2.13,96,4,1099.93161529
GEMS282,2018_Nov_15_1828,Kramer,AG,1.3,2,GEMS192,10,6,2,1,SimpleHill,0-0,1,33,39-39,39-44;39-34;32-33;42-34;30-40;38-44,38-44,4.81,97,1,1108.80834387
GEMS282,2018_Nov_15_1828,Kramer,AG,1.3,2,GEMS192,10,6,2,1,SimpleHill,0-0,1,34,38-44,34-41;45-44;33-46;31-37;38-48;44-41,45-44,9.61,99,2,1122.48631185
GEMS282,2018_Nov_15_1828,Kramer,AG,1.3,2,GEMS192,10,6,2,1,SimpleHill,0-0,1,35,45-44,47-37;42-38;50-38;53-50;53-46;54-43,50-38,0.96,98,-1,1127.51427168
GEMS282,2018_Nov_15_1828,Kramer,AG,1.3,2,GEMS192,10,6,2,1,SimpleHill,0-0,1,36,50-38,50-38;59-39;55-44;45-42;51-38;54-31,55-44,2.25,99,1,1133.83688786
GEMS282,2018_Nov_15_1828,Kramer,AG,1.3,2,GEMS192,10,6,2,1,SimpleHill,0-0,1,37,55-44,56-39;55-43;52-44;54-44;58-47;53-46,52-44,3.87,100,1,1141.77616554
GEMS282,2018_Nov_15_1828,Kramer,AG,1.3,2,GEMS192,10,6,2,1,SimpleHill,0-0,1,38,52-44,49-44;50-41;53-49;57-41;53-38;51-47,50-41,2.77,99,-1,1148.62547622
GEMS282,2018_Nov_15_1828,Kramer,AG,1.3,2,GEMS192,10,6,2,1,SimpleHill,0-0,1,39,50-41,44-38;54-42;55-41;50-48;43-35;44-35,43-35,3.07,95,-4,1155.77812803
GEMS282,2018_Nov_15_1828,Kramer,AG,1.3,2,GEMS192,10,6,2,1,SimpleHill,0-0,1,40,43-35,45-26;49-36;44-33;46-39;48-34;42-33,44-33,1.96,94,-1,1161.83232781
GEMS282,2018_Nov_15_1828,Kramer,AG,1.3,2,GEMS192,10,6,2,1,SimpleHill,0-0,1,41,44-33,43-35;37-30;47-37;46-26;50-28;51-40,50-28,0.97,91,-3,1166.88449629
GEMS282,2018_Nov_15_1828,Kramer,AG,1.3,2,GEMS192,10,6,2,1,SimpleHill,0-0,1,42,50-28,50-22;59-24;49-21;58-32;57-34;51-35,59-24,1.05,85,-6,1171.98872664
GEMS282,2018_Nov_15_1828,Kramer,AG,1.3,2,GEMS192,10,6,2,1,SimpleHill,0-0,1,43,59-24,68-21;56-28;53-18;52-25;64-31;56-30,64-31,1.77,89,4,1177.83331338
GEMS282,2018_Nov_15_1828,Kramer,AG,1.3,2,GEMS192,10,6,2,1,SimpleHill,0-0,1,44,64-31,64-38;59-32;66-36;69-36;70-32;63-29,70-32,1.6,86,-3,1183.47783547
GEMS282,2018_Nov_15_1828,Kramer,AG,1.3,2,GEMS192,10,6,2,1,SimpleHill,0-0,1,45,70-32,67-27;64-32;62-38;66-36;65-32;63-34,62-38,0.67,95,9,1188.2223249
GEMS282,2018_Nov_15_1828,Kramer,AG,1.3,2,GEMS192,10,6,2,1,SimpleHill,0-0,1,46,62-38,61-29;59-47;65-39;58-29;61-42;67-33,58-29,1.58,90,-5,1193.87308112
GEMS282,2018_Nov_15_1828,Kramer,AG,1.3,2,GEMS192,10,6,2,1,SimpleHill,0-0,1,47,58-29,64-21;51-33;56-22;53-26;58-29;51-22,53-26,0.95,89,-1,1198.89255591
GEMS282,2018_Nov_15_1828,Kramer,AG,1.3,2,GEMS192,10,6,2,1,SimpleHill,0-0,1,48,53-26,54-35;52-29;59-19;56-27;48-24;48-34,59-19,4.09,80,-9,1207.04299748
GEMS282,2018_Nov_15_1828,Kramer,AG,1.3,2,GEMS192,10,6,2,1,SimpleHill,0-0,1,49,59-19,62-15;65-23;58-22;59-23;62-19;53-22,62-15,5.21,73,-7,1216.32012106
GEMS282,2018_Nov_15_1828,Kramer,AG,1.3,2,GEMS192,10,6,2,1,SimpleHill,0-0,1,50,62-15,59-24;67-8;69-16;68-14;60-24;52-15,68-14,2.05,68,-5,1222.42162934
GEMS282,2018_Nov_15_1828,Kramer,AG,1.3,2,GEMS192,10,6,2,1,SimpleHill,0-0,1,51,68-14,69-11;70-6;61-8;70-5;65-9;66-15,61-8,2.52,63,-5,1229.00067092
GEMS282,2018_Nov_15_1828,Kramer,AG,1.3,2,GEMS192,10,6,2,1,SimpleHill,0-0,1,52,61-8,56-2;66-14;67-11;62-10;54-7;56-4,54-7,2.56,63,0,1235.6252035
GEMS282,2018_Nov_15_1828,Kramer,AG,1.3,2,GEMS192,10,6,2,1,SimpleHill,0-0,1,53,54-7,46-13;63-3;50-1;58-13;59-14;47-1,50-1,1.1,52,-11,1240.80618676
GEMS282,2018_Nov_15_1828,Kramer,AG,1.3,2,GEMS192,10,6,2,1,SimpleHill,0-0,1,54,50-1,55-2;48-8;58-4;58-1;41-3;51-5,41-3,17.05,55,3,1261.95102606
GEMS282,2018_Nov_15_1828,Kramer,AG,1.3,2,GEMS192,10,6,2,1,SimpleHill,0-0,1,55,41-3,37-3;33-6;41-4;50-2;39-7;32-6,37-3,6.74,53,-2,1272.75578072
GEMS282,2018_Nov_15_1828,Kramer,AG,1.3,2,GEMS192,10,6,2,1,SimpleHill,0-0,1,56,37-3,30-5;40-12;41-8;37-11;40-7;38-10,37-11,5.86,67,14,1283.88298545
GEMS282,2018_Nov_15_1828,Kramer,AG,1.3,2,GEMS192,10,6,2,1,SimpleHill,0-0,1,57,37-11,31-15;32-7;37-10;38-8;29-16;43-6,37-10,3.76,65,-2,1291.7076895999999
GEMS282,2018_Nov_15_1828,Kramer,AG,1.3,2,GEMS192,10,6,2,1,SimpleHill,0-0,1,58,37-10,40-10;36-18;44-13;30-5;42-14;40-17,30-5,0.33,52,-13,1296.14210122
GEMS282,2018_Nov_15_1828,Kramer,AG,1.3,2,GEMS192,10,6,2,1,SimpleHill,0-0,1,59,30-5,26-9;31-11;24-11;26-8;24-0;35-11,24-11,2.82,57,5,1303.02873125
GEMS282,2018_Nov_15_1828,Kramer,AG,1.3,2,GEMS192,10,6,2,1,SimpleHill,0-0,1,60,24-11,28-9;14-11;21-4;21-20;26-16;34-11,14-11,3.03,44,-13,1310.1732959
GEMS282,2018_Nov_15_1828,Kramer,AG,1.3,2,GEMS192,10,6,2,1,SimpleHill,0-0,1,61,14-11,8-3;12-9;23-12;7-9;6-13;21-12,6-13,1.52,34,-10,1315.74818395
GEMS282,2018_Nov_15_1828,Kramer,AG,1.3,2,GEMS192,10,6,2,1,SimpleHill,0-0,1,62,6-13,9-16;12-19;13-20;11-21;2-16;8-12,13-20,0.29,55,21,1320.21412411
GEMS282,2018_Nov_15_1828,Kramer,AG,1.3,2,GEMS192,10,6,2,1,SimpleHill,0-0,1,63,13-20,10-23;22-18;13-17;21-17;17-12;8-19,21-17,1.45,62,7,1325.74005871
GEMS282,2018_Nov_15_1828,Kramer,AG,1.3,2,GEMS192,10,6,2,1,SimpleHill,0-0,1,64,21-17,15-19;25-10;29-14;24-14;14-15;22-8,14-15,1.15,50,-12,1330.958651
GEMS282,2018_Nov_15_1828,Kramer,AG,1.3,2,GEMS192,10,6,2,1,SimpleHill,0-0,1,65,14-15,11-7;14-5;9-20;11-24;6-20;21-17,11-24,1.18,57,7,1336.1969255000001
GEMS282,2018_Nov_15_1828,Kramer,AG,1.3,2,GEMS192,10,6,2,1,SimpleHill,0-0,1,66,11-24,3-19;17-18;2-28;20-22;17-32;12-30,2-28,0.97,45,-12,1341.22298013
GEMS282,2018_Nov_15_1828,Kramer,AG,1.3,2,GEMS192,10,6,2,1,SimpleHill,0-0,1,67,2-28,3-22;1-27;4-19;5-23;9-33;0-21,5-23,0.82,45,0,1346.1187645
GEMS282,2018_Nov_15_1828,Kramer,AG,1.3,2,GEMS192,10,6,2,1,SimpleHill,0-0,1,68,5-23,1-19;5-31;14-21;9-27;4-20;10-21,14-21,0.32,58,13,1350.56806558
GEMS282,2018_Nov_15_1828,Kramer,AG,1.3,2,GEMS192,10,6,2,1,SimpleHill,0-0,1,69,14-21,21-26;18-20;14-23;20-22;6-24;9-23,14-23,1.19,60,2,1355.83756998
GEMS282,2018_Nov_15_1828,Kramer,AG,1.3,2,GEMS192,10,6,2,1,SimpleHill,0-0,1,70,14-23,11-27;10-30;20-20;7-18;13-15;11-28,11-28,2.05,60,0,1361.97907455
GEMS282,2018_Nov_15_1828,Kramer,AG,1.3,2,GEMS192,10,6,2,1,SimpleHill,0-0,1,71,11-28,14-35;3-24;2-32;15-25;8-32;7-21,14-35,0.61,70,10,1366.67342234
GEMS282,2018_Nov_15_1828,Kramer,AG,1.3,2,GEMS192,10,6,2,1,SimpleHill,0-0,1,72,14-35,7-34;6-34;22-30;5-31;17-34;16-39,7-34,1.5,58,-12,1372.25859562
GEMS282,2018_Nov_15_1828,Kramer,AG,1.3,2,GEMS192,10,6,2,1,SimpleHill,0-0,1,73,7-34,15-31;0-35;1-33;6-27;12-41;5-38,1-33,0.61,47,-11,1376.92629022
GEMS282,2018_Nov_15_1828,Kramer,AG,1.3,2,GEMS192,10,6,2,1,SimpleHill,0-0,1,74,1-33,2-40;1-25;5-33;3-25;6-37;6-28,6-37,0.68,58,11,1381.65185254
GEMS282,2018_Nov_15_1828,Kramer,AG,1.3,2,GEMS192,10,6,2,1,SimpleHill,0-0,1,75,6-37,12-31;10-28;11-42;8-40;14-39;1-36,11-42,0.72,69,11,1386.55150428
GEMS282,2018_Nov_15_1828,Kramer,AG,1.3,2,GEMS192,10,6,2,1,SimpleHill,0-0,1,76,11-42,3-41;18-38;17-49;8-42;10-36;17-36,17-49,0.79,79,10,1391.43019119
GEMS282,2018_Nov_15_1828,Kramer,AG,1.3,2,GEMS192,10,6,2,1,SimpleHill,0-0,1,77,17-49,12-47;11-44;19-55;9-52;24-55;22-42,19-55,0.8,81,2,1396.28572256
GEMS282,2018_Nov_15_1828,Kramer,AG,1.3,2,GEMS192,10,6,2,1,SimpleHill,0-0,1,78,19-55,24-57;28-53;23-63;19-50;12-53;26-56,23-63,0.72,83,2,1401.07588738
GEMS282,2018_Nov_15_1828,Kramer,AG,1.3,2,GEMS192,10,6,2,1,SimpleHill,0-0,1,79,23-63,29-59;28-55;19-67;24-54;16-59;32-66,29-59,1.29,90,7,1406.45356056
