subj_id,date,computer,experimenter,instructions,sight_radius,n_gabors,start_pos_list_ix,start_pos_list,landscape_ix,landscape_name,starting_pos,starting_score,trial,feedback,pos,stims,selected,rt,score,delta,exp_time
GEMS115,2018_Feb_28_1626,Kramer,MP,orientation,8,6,0,0-0;0-0;0-0;0-0,0,OrientationBias,0-0,0,0,training,0-0,3-7;4-0;2-7;6-3;0-0;4-1,2-7,8.27,7,7,519.450837907
GEMS115,2018_Feb_28_1626,Kramer,MP,orientation,8,6,0,0-0;0-0;0-0;0-0,0,OrientationBias,0-0,0,1,training,2-7,4-4;4-3;2-15;1-14;0-10;2-9,4-3,10.68,15,8,550.364250243
GEMS115,2018_Feb_28_1626,Kramer,MP,orientation,8,6,0,0-0;0-0;0-0;0-0,0,OrientationBias,0-0,0,2,training,4-3,5-9;1-10;0-7;2-8;7-7;5-6,5-6,5.76,19,4,561.680685984
GEMS115,2018_Feb_28_1626,Kramer,MP,orientation,8,6,0,0-0;0-0;0-0;0-0,0,OrientationBias,0-0,0,3,training,5-6,4-6;1-5;10-1;8-0;7-13;0-11,4-6,7.09,15,-4,579.242462935
GEMS115,2018_Feb_28_1626,Kramer,MP,orientation,8,6,0,0-0;0-0;0-0;0-0,0,OrientationBias,0-0,0,4,training,4-6,4-3;2-13;11-8;10-11;7-12;1-5,4-3,5.73,15,0,599.602439939
GEMS115,2018_Feb_28_1626,Kramer,MP,orientation,8,6,0,0-0;0-0;0-0;0-0,0,OrientationBias,0-0,0,5,training,4-3,4-9;5-10;8-7;10-1;4-1;4-3,8-7,4.26,29,14,616.866078293
GEMS115,2018_Feb_28_1626,Kramer,MP,orientation,8,6,0,0-0;0-0;0-0;0-0,0,OrientationBias,0-0,0,6,training,8-7,4-3;9-2;9-13;5-10;15-8;2-8,15-8,15.48,51,22,643.902066007
GEMS115,2018_Feb_28_1626,Kramer,MP,orientation,8,6,0,0-0;0-0;0-0;0-0,0,OrientationBias,0-0,0,7,training,15-8,17-13;15-16;19-12;9-3;18-13;13-10,13-10,14.77,45,-6,666.108828992
GEMS115,2018_Feb_28_1626,Kramer,MP,orientation,8,6,0,0-0;0-0;0-0;0-0,0,OrientationBias,0-0,0,8,training,13-10,15-15;11-16;8-10;16-6;6-13;15-9,15-9,8.72,51,6,683.437968256
GEMS115,2018_Feb_28_1626,Kramer,MP,orientation,8,6,0,0-0;0-0;0-0;0-0,0,OrientationBias,0-0,0,9,training,15-9,13-15;15-9;9-9;11-8;18-5;9-14,11-8,7.92,39,-12,699.094043905
GEMS115,2018_Feb_28_1626,Kramer,MP,orientation,8,6,0,0-0;0-0;0-0;0-0,0,OrientationBias,0-0,0,10,training,11-8,5-12;16-2;12-15;10-6;7-7;11-12,10-6,22.25,36,-3,728.705396509
GEMS115,2018_Feb_28_1626,Kramer,MP,orientation,8,6,0,0-0;0-0;0-0;0-0,0,OrientationBias,0-0,0,11,training,10-6,16-3;9-8;15-9;7-10;8-12;12-9,16-3,9.11,53,17,742.008330415
GEMS115,2018_Feb_28_1626,Kramer,MP,orientation,8,6,0,0-0;0-0;0-0;0-0,0,OrientationBias,0-0,0,12,training,16-3,9-3;14-1;24-3;22-3;14-4;10-8,10-8,32.76,36,-17,783.086390806
GEMS115,2018_Feb_28_1626,Kramer,MP,orientation,8,6,0,0-0;0-0;0-0;0-0,0,OrientationBias,0-0,0,13,training,10-8,4-3;10-5;14-9;5-4;8-12;9-9,10-5,19.38,36,0,811.871270199
GEMS115,2018_Feb_28_1626,Kramer,MP,orientation,8,6,0,0-0;0-0;0-0;0-0,0,OrientationBias,0-0,0,14,training,10-5,14-5;5-3;6-3;14-1;12-3;15-3,14-5,4.41,48,12,824.958936895
GEMS115,2018_Feb_28_1626,Kramer,MP,orientation,8,6,0,0-0;0-0;0-0;0-0,0,OrientationBias,0-0,0,15,training,14-5,20-3;14-8;15-7;9-1;19-3;14-11,15-7,15.67,51,3,846.667207517
GEMS115,2018_Feb_28_1626,Kramer,MP,orientation,8,6,0,0-0;0-0;0-0;0-0,0,OrientationBias,0-0,0,16,training,15-7,17-10;20-12;13-11;16-3;21-8;11-12,21-8,5.21,66,15,864.053994854
GEMS115,2018_Feb_28_1626,Kramer,MP,orientation,8,6,0,0-0;0-0;0-0;0-0,0,OrientationBias,0-0,0,17,training,21-8,26-13;19-12;18-9;17-5;24-3;22-11,24-3,3.19,72,6,869.489181183
GEMS115,2018_Feb_28_1626,Kramer,MP,orientation,8,6,0,0-0;0-0;0-0;0-0,0,OrientationBias,0-0,0,18,training,24-3,22-5;23-10;29-0;30-1;27-2;23-8,30-1,4.89,84,12,880.771257843
GEMS115,2018_Feb_28_1626,Kramer,MP,orientation,8,6,0,0-0;0-0;0-0;0-0,0,OrientationBias,0-0,0,19,training,30-1,30-6;32-0;26-4;23-3;30-2;28-1,32-0,18.64,87,3,901.877914365
GEMS115,2018_Feb_28_1626,Kramer,MP,orientation,8,6,0,0-0;0-0;0-0;0-0,0,OrientationBias,0-0,0,20,training,32-0,36-5;33-7;29-1;28-5;37-0;37-6,37-0,5.69,93,6,910.934666178
GEMS115,2018_Feb_28_1626,Kramer,MP,orientation,8,6,0,0-0;0-0;0-0;0-0,0,OrientationBias,0-0,0,21,training,37-0,33-6;30-3;35-6;34-2;42-2;35-5,42-2,3.94,97,4,918.781808102
GEMS115,2018_Feb_28_1626,Kramer,MP,orientation,8,6,0,0-0;0-0;0-0;0-0,0,OrientationBias,0-0,0,22,training,42-2,43-9;46-3;43-8;42-7;40-7;36-0,46-3,6.11,99,2,927.012768182
GEMS115,2018_Feb_28_1626,Kramer,MP,orientation,8,6,0,0-0;0-0;0-0;0-0,0,OrientationBias,0-0,0,23,training,46-3,39-1;45-0;48-7;51-3;52-6;45-1,52-6,10.17,99,0,940.663013341
GEMS115,2018_Feb_28_1626,Kramer,MP,orientation,8,6,0,0-0;0-0;0-0;0-0,0,OrientationBias,0-0,0,24,training,52-6,45-5;56-5;55-10;51-6;54-12;49-9,54-12,9.09,99,0,953.013992857
GEMS115,2018_Feb_28_1626,Kramer,MP,orientation,8,6,0,0-0;0-0;0-0;0-0,0,OrientationBias,0-0,0,25,training,54-12,54-7;60-14;54-20;53-13;52-17;55-9,60-14,10.81,96,-3,966.56129393
GEMS115,2018_Feb_28_1626,Kramer,MP,orientation,8,6,0,0-0;0-0;0-0;0-0,0,OrientationBias,0-0,0,26,training,60-14,64-17;64-15;60-20;58-21;59-15;68-14,59-15,3.96,96,0,978.792124693
GEMS115,2018_Feb_28_1626,Kramer,MP,orientation,8,6,0,0-0;0-0;0-0;0-0,0,OrientationBias,0-0,0,27,training,59-15,64-14;57-9;63-15;64-16;65-19;56-13,57-9,8.58,98,2,995.648061486
GEMS115,2018_Feb_28_1626,Kramer,MP,orientation,8,6,0,0-0;0-0;0-0;0-0,0,OrientationBias,0-0,0,28,training,57-9,56-12;55-6;56-7;59-10;53-14;51-13,56-12,17.28,98,0,1015.1830806
GEMS115,2018_Feb_28_1626,Kramer,MP,orientation,8,6,0,0-0;0-0;0-0;0-0,0,OrientationBias,0-0,0,29,training,56-12,52-6;49-9;54-7;59-11;53-15;61-8,49-9,6.25,99,1,1026.41679316
GEMS115,2018_Feb_28_1626,Kramer,MP,orientation,8,6,0,0-0;0-0;0-0;0-0,1,SimpleHill,0-0,0,0,selected,0-0,1-4;0-4;0-0;2-5;5-2;4-0,4-0,14.92,7,7,1052.74342193
GEMS115,2018_Feb_28_1626,Kramer,MP,orientation,8,6,0,0-0;0-0;0-0;0-0,1,SimpleHill,0-0,0,1,selected,4-0,1-5;4-3;6-4;10-4;9-0;3-4,10-4,10.08,25,18,1066.36411837
GEMS115,2018_Feb_28_1626,Kramer,MP,orientation,8,6,0,0-0;0-0;0-0;0-0,1,SimpleHill,0-0,0,2,selected,10-4,3-3;4-1;9-1;5-3;3-2;16-0,16-0,14.61,26,1,1084.53856958
GEMS115,2018_Feb_28_1626,Kramer,MP,orientation,8,6,0,0-0;0-0;0-0;0-0,1,SimpleHill,0-0,0,3,selected,16-0,16-4;17-7;16-8;22-4;16-2;15-3,22-4,4.4,42,16,1092.51123558
GEMS115,2018_Feb_28_1626,Kramer,MP,orientation,8,6,0,0-0;0-0;0-0;0-0,1,SimpleHill,0-0,0,4,selected,22-4,15-2;26-1;26-3;26-2;20-10;19-9,26-2,2.2,42,0,1098.28277414
GEMS115,2018_Feb_28_1626,Kramer,MP,orientation,8,6,0,0-0;0-0;0-0;0-0,1,SimpleHill,0-0,0,5,selected,26-2,26-3;24-0;31-1;32-4;33-1;31-8,32-4,10.77,51,9,1112.61977232
GEMS115,2018_Feb_28_1626,Kramer,MP,orientation,8,6,0,0-0;0-0;0-0;0-0,1,SimpleHill,0-0,0,6,selected,32-4,38-7;26-6;27-4;25-7;37-1;30-8,38-7,19.26,60,9,1135.46383015
GEMS115,2018_Feb_28_1626,Kramer,MP,orientation,8,6,0,0-0;0-0;0-0;0-0,1,SimpleHill,0-0,0,7,selected,38-7,42-10;42-3;42-1;43-4;39-3;33-2,42-10,11.18,66,6,1150.21083649
GEMS115,2018_Feb_28_1626,Kramer,MP,orientation,8,6,0,0-0;0-0;0-0;0-0,1,SimpleHill,0-0,0,8,selected,42-10,49-11;48-8;48-5;41-12;49-9;36-5,41-12,18.5,69,3,1172.29138656
GEMS115,2018_Feb_28_1626,Kramer,MP,orientation,8,6,0,0-0;0-0;0-0;0-0,1,SimpleHill,0-0,0,9,selected,41-12,37-18;49-12;36-17;44-11;40-11;48-10,40-11,13.4,67,-2,1189.23779118
GEMS115,2018_Feb_28_1626,Kramer,MP,orientation,8,6,0,0-0;0-0;0-0;0-0,1,SimpleHill,0-0,0,10,selected,40-11,33-9;36-11;40-16;44-13;39-18;44-9,36-11,13.33,65,-2,1206.12828967
GEMS115,2018_Feb_28_1626,Kramer,MP,orientation,8,6,0,0-0;0-0;0-0;0-0,1,SimpleHill,0-0,0,11,selected,36-11,39-4;42-12;37-7;40-10;31-5;37-17,31-5,47.54,52,-13,1257.22236239
GEMS115,2018_Feb_28_1626,Kramer,MP,orientation,8,6,0,0-0;0-0;0-0;0-0,1,SimpleHill,0-0,0,12,selected,31-5,32-12;28-3;31-13;31-1;32-2;37-4,31-1,10.65,44,-8,1271.44849291
GEMS115,2018_Feb_28_1626,Kramer,MP,orientation,8,6,0,0-0;0-0;0-0;0-0,1,SimpleHill,0-0,0,13,selected,31-1,30-8;37-1;34-4;38-2;25-3;26-6,30-8,16.31,56,12,1291.32858134
GEMS115,2018_Feb_28_1626,Kramer,MP,orientation,8,6,0,0-0;0-0;0-0;0-0,1,SimpleHill,0-0,0,14,selected,30-8,37-5;24-6;27-4;25-6;30-4;34-6,25-6,31.32,48,-8,1326.20452618
GEMS115,2018_Feb_28_1626,Kramer,MP,orientation,8,6,0,0-0;0-0;0-0;0-0,1,SimpleHill,0-0,0,15,selected,25-6,25-7;18-4;26-6;30-9;31-2;28-0,31-2,4.4,46,-2,1334.18157168
GEMS115,2018_Feb_28_1626,Kramer,MP,orientation,8,6,0,0-0;0-0;0-0;0-0,1,SimpleHill,0-0,0,16,selected,31-2,36-7;36-5;35-2;37-5;33-4;28-1,28-1,9.3,42,-4,1347.0189831
GEMS115,2018_Feb_28_1626,Kramer,MP,orientation,8,6,0,0-0;0-0;0-0;0-0,1,SimpleHill,0-0,0,17,selected,28-1,25-2;34-0;27-2;28-0;25-0;25-6,28-0,8.0,40,-2,1358.59233653
GEMS115,2018_Feb_28_1626,Kramer,MP,orientation,8,6,0,0-0;0-0;0-0;0-0,1,SimpleHill,0-0,0,18,selected,28-0,22-1;28-3;28-2;31-0;30-7;27-0,31-0,6.47,42,2,1368.64576578
GEMS115,2018_Feb_28_1626,Kramer,MP,orientation,8,6,0,0-0;0-0;0-0;0-0,1,SimpleHill,0-0,0,19,selected,31-0,29-0;38-3;38-2;27-1;24-1;35-5,35-5,56.83,55,13,1429.05217193
GEMS115,2018_Feb_28_1626,Kramer,MP,orientation,8,6,0,0-0;0-0;0-0;0-0,1,SimpleHill,0-0,0,20,selected,35-5,41-8;38-1;34-11;43-5;31-3;38-8,38-8,28.89,61,6,1461.49925322
GEMS115,2018_Feb_28_1626,Kramer,MP,orientation,8,6,0,0-0;0-0;0-0;0-0,1,SimpleHill,0-0,0,21,selected,38-8,35-9;42-9;38-8;36-8;37-9;38-16,37-9,23.59,63,2,1488.64849425
GEMS115,2018_Feb_28_1626,Kramer,MP,orientation,8,6,0,0-0;0-0;0-0;0-0,1,SimpleHill,0-0,0,22,selected,37-9,33-3;31-4;39-10;42-5;36-5;32-5,33-3,18.27,50,-13,1510.47657145
GEMS115,2018_Feb_28_1626,Kramer,MP,orientation,8,6,0,0-0;0-0;0-0;0-0,1,SimpleHill,0-0,0,23,selected,33-3,32-5;33-10;34-7;40-0;33-7;33-9,33-10,33.32,62,12,1547.36231496
GEMS115,2018_Feb_28_1626,Kramer,MP,orientation,8,6,0,0-0;0-0;0-0;0-0,1,SimpleHill,0-0,0,24,selected,33-10,32-16;34-7;31-16;39-6;37-16;31-8,31-8,13.77,57,-5,1564.67947059
GEMS115,2018_Feb_28_1626,Kramer,MP,orientation,8,6,0,0-0;0-0;0-0;0-0,1,SimpleHill,0-0,0,25,selected,31-8,30-6;29-12;24-9;25-4;36-14;27-10,36-14,17.01,70,13,1585.24538986
GEMS115,2018_Feb_28_1626,Kramer,MP,orientation,8,6,0,0-0;0-0;0-0;0-0,1,SimpleHill,0-0,0,26,selected,36-14,35-15;31-10;30-12;34-10;39-8;30-17,39-8,14.97,62,-8,1603.77743275
GEMS115,2018_Feb_28_1626,Kramer,MP,orientation,8,6,0,0-0;0-0;0-0;0-0,1,SimpleHill,0-0,0,27,selected,39-8,35-3;39-12;39-10;35-9;42-14;37-8,37-8,60.12,61,-1,1667.45138943
GEMS115,2018_Feb_28_1626,Kramer,MP,orientation,8,6,0,0-0;0-0;0-0;0-0,1,SimpleHill,0-0,0,28,selected,37-8,40-7;32-2;42-9;36-15;43-10;43-3,32-2,33.46,47,-14,1704.47904609
GEMS115,2018_Feb_28_1626,Kramer,MP,orientation,8,6,0,0-0;0-0;0-0;0-0,1,SimpleHill,0-0,0,29,selected,32-2,25-0;25-4;24-2;27-2;27-4;34-6,34-6,39.22,56,9,1747.26493057
GEMS115,2018_Feb_28_1626,Kramer,MP,orientation,8,6,0,0-0;0-0;0-0;0-0,1,SimpleHill,0-0,0,30,selected,34-6,35-6;29-0;37-9;41-4;34-4;28-7,34-4,19.91,52,-4,1770.72593046
GEMS115,2018_Feb_28_1626,Kramer,MP,orientation,8,6,0,0-0;0-0;0-0;0-0,1,SimpleHill,0-0,0,31,selected,34-4,32-1;34-11;35-5;31-4;40-9;29-0,34-11,26.83,64,12,1801.11200687
GEMS115,2018_Feb_28_1626,Kramer,MP,orientation,8,6,0,0-0;0-0;0-0;0-0,1,SimpleHill,0-0,0,32,selected,34-11,32-11;31-18;39-14;37-13;32-17;38-10,31-18,43.97,72,8,1848.6557117
GEMS115,2018_Feb_28_1626,Kramer,MP,orientation,8,6,0,0-0;0-0;0-0;0-0,1,SimpleHill,0-0,0,33,selected,31-18,30-18;32-17;32-21;28-24;32-19;29-11,32-17,47.54,71,-1,1899.76274498
GEMS115,2018_Feb_28_1626,Kramer,MP,orientation,8,6,0,0-0;0-0;0-0;0-0,1,SimpleHill,0-0,0,34,selected,32-17,30-24;27-19;31-14;28-14;37-17;32-16,37-17,33.22,74,3,1936.54195552
GEMS115,2018_Feb_28_1626,Kramer,MP,orientation,8,6,0,0-0;0-0;0-0;0-0,1,SimpleHill,0-0,0,35,selected,37-17,44-17;35-18;32-22;31-13;30-17;35-22,35-22,28.77,79,5,1968.8695465
GEMS115,2018_Feb_28_1626,Kramer,MP,orientation,8,6,0,0-0;0-0;0-0;0-0,1,SimpleHill,0-0,0,36,selected,35-22,43-22;32-22;33-19;32-26;35-24;34-21,33-19,39.25,75,-4,2011.66578566
GEMS115,2018_Feb_28_1626,Kramer,MP,orientation,8,6,0,0-0;0-0;0-0;0-0,1,SimpleHill,0-0,0,37,selected,33-19,33-11;28-13;30-12;40-22;30-18;33-19,33-19,42.38,75,0,2057.60516809
GEMS115,2018_Feb_28_1626,Kramer,MP,orientation,8,6,0,0-0;0-0;0-0;0-0,1,SimpleHill,0-0,0,38,selected,33-19,26-16;27-23;38-16;34-13;39-19;28-20,34-13,24.9,67,-8,2086.05945532
GEMS115,2018_Feb_28_1626,Kramer,MP,orientation,8,6,0,0-0;0-0;0-0;0-0,1,SimpleHill,0-0,0,39,selected,34-13,35-14;38-8;29-11;36-17;31-11;35-12,35-12,34.38,66,-1,2124.00412119
GEMS115,2018_Feb_28_1626,Kramer,MP,orientation,8,6,0,0-0;0-0;0-0;0-0,2,SimpleHill,0-0,0,0,selected,0-0,6-5;1-3;7-0;0-2;1-1;7-1,6-5,11.91,20,20,2147.28963789
GEMS115,2018_Feb_28_1626,Kramer,MP,orientation,8,6,0,0-0;0-0;0-0;0-0,2,SimpleHill,0-0,0,1,selected,6-5,5-6;10-3;8-3;6-12;4-8;10-4,10-4,5.88,25,5,2156.72579506
GEMS115,2018_Feb_28_1626,Kramer,MP,orientation,8,6,0,0-0;0-0;0-0;0-0,2,SimpleHill,0-0,0,2,selected,10-4,16-7;5-7;4-3;7-10;8-6;10-4,16-7,4.67,39,14,2164.975035
GEMS115,2018_Feb_28_1626,Kramer,MP,orientation,8,6,0,0-0;0-0;0-0;0-0,2,SimpleHill,0-0,0,3,selected,16-7,22-2;18-7;15-4;11-2;20-11;9-5,22-2,3.96,38,-1,2172.51074744
GEMS115,2018_Feb_28_1626,Kramer,MP,orientation,8,6,0,0-0;0-0;0-0;0-0,2,SimpleHill,0-0,0,4,selected,22-2,19-7;29-3;22-9;25-1;15-3;18-8,29-3,21.28,47,9,2197.34652446
GEMS115,2018_Feb_28_1626,Kramer,MP,orientation,8,6,0,0-0;0-0;0-0;0-0,2,SimpleHill,0-0,0,5,selected,29-3,25-3;36-2;35-8;23-7;26-5;31-2,35-8,22.29,60,13,2223.19134636
GEMS115,2018_Feb_28_1626,Kramer,MP,orientation,8,6,0,0-0;0-0;0-0;0-0,2,SimpleHill,0-0,0,6,selected,35-8,39-3;31-3;30-3;42-9;38-7;41-6,41-6,11.89,59,-1,2238.65350466
GEMS115,2018_Feb_28_1626,Kramer,MP,orientation,8,6,0,0-0;0-0;0-0;0-0,2,SimpleHill,0-0,0,7,selected,41-6,37-5;44-8;35-9;40-2;44-7;37-0,37-0,10.99,46,-13,2253.21304289
GEMS115,2018_Feb_28_1626,Kramer,MP,orientation,8,6,0,0-0;0-0;0-0;0-0,2,SimpleHill,0-0,0,8,selected,37-0,31-3;36-7;30-0;35-7;33-4;37-6,36-7,8.49,59,13,2265.26652303
GEMS115,2018_Feb_28_1626,Kramer,MP,orientation,8,6,0,0-0;0-0;0-0;0-0,2,SimpleHill,0-0,0,9,selected,36-7,31-6;36-4;37-6;31-5;31-13;33-0,33-0,13.07,44,-15,2281.90407427
GEMS115,2018_Feb_28_1626,Kramer,MP,orientation,8,6,0,0-0;0-0;0-0;0-0,2,SimpleHill,0-0,0,10,selected,33-0,32-5;35-2;37-1;33-8;30-2;30-4,35-2,8.12,49,5,2293.58446929
GEMS115,2018_Feb_28_1626,Kramer,MP,orientation,8,6,0,0-0;0-0;0-0;0-0,2,SimpleHill,0-0,0,11,selected,35-2,37-7;30-8;30-2;37-6;39-2;40-4,37-6,11.89,57,8,2309.04307873
GEMS115,2018_Feb_28_1626,Kramer,MP,orientation,8,6,0,0-0;0-0;0-0;0-0,2,SimpleHill,0-0,0,12,selected,37-6,43-4;34-9;40-13;39-12;38-5;32-6,34-9,22.51,61,4,2335.12860849
GEMS115,2018_Feb_28_1626,Kramer,MP,orientation,8,6,0,0-0;0-0;0-0;0-0,2,SimpleHill,0-0,0,13,selected,34-9,27-8;32-3;32-12;31-13;35-14;35-13,32-3,10.73,49,-12,2349.43513703
GEMS115,2018_Feb_28_1626,Kramer,MP,orientation,8,6,0,0-0;0-0;0-0;0-0,2,SimpleHill,0-0,0,14,selected,32-3,34-6;32-3;30-1;35-6;32-4;27-9,32-4,23.32,51,2,2376.3031775
GEMS115,2018_Feb_28_1626,Kramer,MP,orientation,8,6,0,0-0;0-0;0-0;0-0,2,SimpleHill,0-0,0,15,selected,32-4,28-4;37-10;34-11;25-2;26-7;33-9,34-11,7.16,64,13,2387.01379536
GEMS115,2018_Feb_28_1626,Kramer,MP,orientation,8,6,0,0-0;0-0;0-0;0-0,2,SimpleHill,0-0,0,16,selected,34-11,38-17;39-16;31-11;37-10;28-12;36-5,36-5,20.05,55,-9,2410.6297621
GEMS115,2018_Feb_28_1626,Kramer,MP,orientation,8,6,0,0-0;0-0;0-0;0-0,2,SimpleHill,0-0,0,17,selected,36-5,38-3;39-2;34-7;30-10;34-10;30-9,34-10,23.69,62,7,2437.89619967
GEMS115,2018_Feb_28_1626,Kramer,MP,orientation,8,6,0,0-0;0-0;0-0;0-0,2,SimpleHill,0-0,0,18,selected,34-10,36-15;41-11;30-14;36-10;39-10;27-10,36-10,12.16,64,2,2453.59928735
GEMS115,2018_Feb_28_1626,Kramer,MP,orientation,8,6,0,0-0;0-0;0-0;0-0,2,SimpleHill,0-0,0,19,selected,36-10,39-7;37-4;43-13;39-16;41-8;29-11,37-4,7.97,54,-10,2465.14006973
GEMS115,2018_Feb_28_1626,Kramer,MP,orientation,8,6,0,0-0;0-0;0-0;0-0,2,SimpleHill,0-0,0,20,selected,37-4,37-1;35-1;43-0;37-12;39-4;36-1,36-1,10.84,48,-6,2479.53603477
GEMS115,2018_Feb_28_1626,Kramer,MP,orientation,8,6,0,0-0;0-0;0-0;0-0,2,SimpleHill,0-0,0,21,selected,36-1,39-3;37-4;43-2;33-2;37-3;34-6,37-4,3.82,54,6,2486.90359157
GEMS115,2018_Feb_28_1626,Kramer,MP,orientation,8,6,0,0-0;0-0;0-0;0-0,2,SimpleHill,0-0,0,22,selected,37-4,36-10;33-8;31-6;31-1;32-0;32-5,36-10,7.46,64,10,2497.93579547
GEMS115,2018_Feb_28_1626,Kramer,MP,orientation,8,6,0,0-0;0-0;0-0;0-0,2,SimpleHill,0-0,0,23,selected,36-10,42-13;35-15;34-16;43-8;40-9;35-8,34-16,4.29,71,7,2505.78778904
GEMS115,2018_Feb_28_1626,Kramer,MP,orientation,8,6,0,0-0;0-0;0-0;0-0,2,SimpleHill,0-0,0,24,selected,34-16,28-14;33-19;32-10;38-13;28-15;40-16,33-19,23.29,75,4,2532.63528978
GEMS115,2018_Feb_28_1626,Kramer,MP,orientation,8,6,0,0-0;0-0;0-0;0-0,2,SimpleHill,0-0,0,25,selected,33-19,36-22;31-19;38-21;41-19;40-16;30-23,36-22,11.31,80,5,2547.49840722
GEMS115,2018_Feb_28_1626,Kramer,MP,orientation,8,6,0,0-0;0-0;0-0;0-0,2,SimpleHill,0-0,0,26,selected,36-22,42-22;34-16;30-20;35-25;42-19;31-25,35-25,3.99,83,3,2555.06068479
GEMS115,2018_Feb_28_1626,Kramer,MP,orientation,8,6,0,0-0;0-0;0-0;0-0,2,SimpleHill,0-0,0,27,selected,35-25,34-26;31-23;39-28;28-24;35-18;33-25,34-26,9.61,83,0,2568.22965634
GEMS115,2018_Feb_28_1626,Kramer,MP,orientation,8,6,0,0-0;0-0;0-0;0-0,2,SimpleHill,0-0,0,28,selected,34-26,36-26;29-28;40-23;38-21;36-25;37-26,36-25,7.1,83,0,2578.91606431
GEMS115,2018_Feb_28_1626,Kramer,MP,orientation,8,6,0,0-0;0-0;0-0;0-0,2,SimpleHill,0-0,0,29,selected,36-25,34-29;41-26;34-32;43-27;38-21;32-30,38-21,7.72,80,-3,2590.2005423
GEMS115,2018_Feb_28_1626,Kramer,MP,orientation,8,6,0,0-0;0-0;0-0;0-0,2,SimpleHill,0-0,0,30,selected,38-21,37-22;33-18;39-24;36-21;33-15;35-25,36-21,9.27,79,-1,2603.01972348
GEMS115,2018_Feb_28_1626,Kramer,MP,orientation,8,6,0,0-0;0-0;0-0;0-0,2,SimpleHill,0-0,0,31,selected,36-21,40-15;39-17;38-15;33-23;30-16;29-19,33-23,17.14,79,0,2623.72889612
GEMS115,2018_Feb_28_1626,Kramer,MP,orientation,8,6,0,0-0;0-0;0-0;0-0,2,SimpleHill,0-0,0,32,selected,33-23,39-23;31-18;30-24;34-25;33-31;40-25,34-25,4.32,82,3,2631.6013433
GEMS115,2018_Feb_28_1626,Kramer,MP,orientation,8,6,0,0-0;0-0;0-0;0-0,2,SimpleHill,0-0,0,33,selected,34-25,33-29;37-18;35-22;37-20;34-19;33-20,33-20,15.46,76,-6,2650.58795478
GEMS115,2018_Feb_28_1626,Kramer,MP,orientation,8,6,0,0-0;0-0;0-0;0-0,2,SimpleHill,0-0,0,34,selected,33-20,34-14;31-15;37-22;28-23;32-27;31-19,31-15,9.63,68,-8,2663.74519877
GEMS115,2018_Feb_28_1626,Kramer,MP,orientation,8,6,0,0-0;0-0;0-0;0-0,2,SimpleHill,0-0,0,35,selected,31-15,24-14;33-9;29-12;31-7;35-16;31-11,29-12,6.03,62,-6,2673.34360138
GEMS115,2018_Feb_28_1626,Kramer,MP,orientation,8,6,0,0-0;0-0;0-0;0-0,2,SimpleHill,0-0,0,36,selected,29-12,36-11;26-6;25-6;32-17;30-5;28-11,32-17,7.01,71,9,2683.92362202
GEMS115,2018_Feb_28_1626,Kramer,MP,orientation,8,6,0,0-0;0-0;0-0;0-0,2,SimpleHill,0-0,0,37,selected,32-17,39-19;25-19;25-16;29-13;36-18;29-15,29-13,13.23,63,-8,2700.72866373
GEMS115,2018_Feb_28_1626,Kramer,MP,orientation,8,6,0,0-0;0-0;0-0;0-0,2,SimpleHill,0-0,0,38,selected,29-13,28-17;29-6;34-13;33-17;25-11;23-15,33-17,12.94,72,9,2717.25060482
GEMS115,2018_Feb_28_1626,Kramer,MP,orientation,8,6,0,0-0;0-0;0-0;0-0,2,SimpleHill,0-0,0,39,selected,33-17,31-13;38-23;26-19;38-15;40-14;40-20,40-20,8.05,80,8,2728.84043694
GEMS115,2018_Feb_28_1626,Kramer,MP,orientation,8,6,0,0-0;0-0;0-0;0-0,3,SimpleHill,0-0,0,0,selected,0-0,3-2;6-4;6-1;7-2;0-1;6-0,6-0,7.92,11,11,2746.36620441
GEMS115,2018_Feb_28_1626,Kramer,MP,orientation,8,6,0,0-0;0-0;0-0;0-0,3,SimpleHill,0-0,0,1,selected,6-0,3-4;1-3;5-5;13-3;13-2;14-0,13-2,4.16,26,15,2754.11338711
GEMS115,2018_Feb_28_1626,Kramer,MP,orientation,8,6,0,0-0;0-0;0-0;0-0,3,SimpleHill,0-0,0,2,selected,13-2,20-1;14-9;12-2;6-3;14-7;8-5,14-7,1.11,37,11,2758.78192782
GEMS115,2018_Feb_28_1626,Kramer,MP,orientation,8,6,0,0-0;0-0;0-0;0-0,3,SimpleHill,0-0,0,3,selected,14-7,10-2;21-7;7-10;11-11;21-6;21-4,21-6,2.56,44,7,2764.9145221
GEMS115,2018_Feb_28_1626,Kramer,MP,orientation,8,6,0,0-0;0-0;0-0;0-0,3,SimpleHill,0-0,0,4,selected,21-6,21-14;20-11;20-8;17-11;15-4;22-3,20-8,11.62,46,2,2780.11285416
GEMS115,2018_Feb_28_1626,Kramer,MP,orientation,8,6,0,0-0;0-0;0-0;0-0,3,SimpleHill,0-0,0,5,selected,20-8,23-13;20-15;22-7;19-13;21-4;21-9,21-4,1.22,40,-6,2784.9143102
GEMS115,2018_Feb_28_1626,Kramer,MP,orientation,8,6,0,0-0;0-0;0-0;0-0,3,SimpleHill,0-0,0,6,selected,21-4,28-1;15-6;25-7;22-7;26-2;25-6,28-1,6.21,42,2,2794.70030735
GEMS115,2018_Feb_28_1626,Kramer,MP,orientation,8,6,0,0-0;0-0;0-0;0-0,3,SimpleHill,0-0,0,7,selected,28-1,31-3;36-1;26-4;25-3;23-0;33-6,33-6,6.7,55,13,2804.95747951
GEMS115,2018_Feb_28_1626,Kramer,MP,orientation,8,6,0,0-0;0-0;0-0;0-0,3,SimpleHill,0-0,0,8,selected,33-6,26-7;32-3;31-8;30-12;35-8;29-1,32-3,8.03,49,-6,2816.57120144
GEMS115,2018_Feb_28_1626,Kramer,MP,orientation,8,6,0,0-0;0-0;0-0;0-0,3,SimpleHill,0-0,0,9,selected,32-3,38-2;34-8;30-6;40-3;30-8;36-5,34-8,15.0,59,10,2835.12866258
GEMS115,2018_Feb_28_1626,Kramer,MP,orientation,8,6,0,0-0;0-0;0-0;0-0,3,SimpleHill,0-0,0,10,selected,34-8,38-10;27-7;40-5;41-9;27-6;39-10,38-10,7.13,65,6,2845.82619121
GEMS115,2018_Feb_28_1626,Kramer,MP,orientation,8,6,0,0-0;0-0;0-0;0-0,3,SimpleHill,0-0,0,11,selected,38-10,38-18;41-8;44-8;41-16;37-8;40-5,37-8,11.84,61,-4,2861.24513923
GEMS115,2018_Feb_28_1626,Kramer,MP,orientation,8,6,0,0-0;0-0;0-0;0-0,3,SimpleHill,0-0,0,12,selected,37-8,36-10;41-9;30-5;32-13;39-7;42-8,36-10,9.54,64,3,2874.3420771
GEMS115,2018_Feb_28_1626,Kramer,MP,orientation,8,6,0,0-0;0-0;0-0;0-0,3,SimpleHill,0-0,0,13,selected,36-10,38-13;34-10;32-7;33-8;35-3;34-6,35-3,16.62,51,-13,2894.53422944
GEMS115,2018_Feb_28_1626,Kramer,MP,orientation,8,6,0,0-0;0-0;0-0;0-0,3,SimpleHill,0-0,0,14,selected,35-3,34-1;40-0;32-7;32-2;35-2;40-7,32-7,11.23,56,5,2909.32991805
GEMS115,2018_Feb_28_1626,Kramer,MP,orientation,8,6,0,0-0;0-0;0-0;0-0,3,SimpleHill,0-0,0,15,selected,32-7,33-7;31-14;32-9;30-8;30-12;34-11,32-9,5.12,59,3,2918.01807596
GEMS115,2018_Feb_28_1626,Kramer,MP,orientation,8,6,0,0-0;0-0;0-0;0-0,3,SimpleHill,0-0,0,16,selected,32-9,27-3;26-4;32-10;35-6;33-15;36-8,33-15,1.61,69,10,2923.1955623
GEMS115,2018_Feb_28_1626,Kramer,MP,orientation,8,6,0,0-0;0-0;0-0;0-0,3,SimpleHill,0-0,0,17,selected,33-15,36-11;39-16;29-13;29-17;37-14;36-9,37-14,9.35,70,1,2936.19958682
GEMS115,2018_Feb_28_1626,Kramer,MP,orientation,8,6,0,0-0;0-0;0-0;0-0,3,SimpleHill,0-0,0,18,selected,37-14,36-17;41-10;32-16;42-17;42-13;33-19,33-19,1.02,75,5,2940.79906591
GEMS115,2018_Feb_28_1626,Kramer,MP,orientation,8,6,0,0-0;0-0;0-0;0-0,3,SimpleHill,0-0,0,19,selected,33-19,31-25;28-22;36-19;33-16;28-19;38-24,28-22,3.32,74,-1,2947.70231241
GEMS115,2018_Feb_28_1626,Kramer,MP,orientation,8,6,0,0-0;0-0;0-0;0-0,3,SimpleHill,0-0,0,20,selected,28-22,22-19;34-24;20-22;27-18;25-21;33-20,27-18,4.04,68,-6,2955.31947822
GEMS115,2018_Feb_28_1626,Kramer,MP,orientation,8,6,0,0-0;0-0;0-0;0-0,3,SimpleHill,0-0,0,21,selected,27-18,28-11;26-15;24-23;25-14;21-20;23-18,26-15,2.03,63,-5,2960.91213581
GEMS115,2018_Feb_28_1626,Kramer,MP,orientation,8,6,0,0-0;0-0;0-0;0-0,3,SimpleHill,0-0,0,22,selected,26-15,29-20;28-14;24-20;24-18;24-12;21-17,29-20,1.24,73,10,2965.71142162
GEMS115,2018_Feb_28_1626,Kramer,MP,orientation,8,6,0,0-0;0-0;0-0;0-0,3,SimpleHill,0-0,0,23,selected,29-20,32-16;35-17;35-25;25-21;30-26;22-23,32-16,1.04,70,-3,2970.31694021
GEMS115,2018_Feb_28_1626,Kramer,MP,orientation,8,6,0,0-0;0-0;0-0;0-0,3,SimpleHill,0-0,0,24,selected,32-16,32-12;28-18;35-17;29-17;39-16;39-17,28-18,0.97,69,-1,2974.84559139
GEMS115,2018_Feb_28_1626,Kramer,MP,orientation,8,6,0,0-0;0-0;0-0;0-0,3,SimpleHill,0-0,0,25,selected,28-18,33-12;30-14;22-16;27-18;35-18;30-22,30-14,1.46,66,-3,2979.88432806
GEMS115,2018_Feb_28_1626,Kramer,MP,orientation,8,6,0,0-0;0-0;0-0;0-0,3,SimpleHill,0-0,0,26,selected,30-14,33-16;35-8;36-18;26-16;37-11;36-16,36-18,0.96,75,9,2984.39802932
GEMS115,2018_Feb_28_1626,Kramer,MP,orientation,8,6,0,0-0;0-0;0-0;0-0,3,SimpleHill,0-0,0,27,selected,36-18,36-12;40-23;32-24;34-25;37-16;37-22,34-25,4.21,82,7,2992.20454602
GEMS115,2018_Feb_28_1626,Kramer,MP,orientation,8,6,0,0-0;0-0;0-0;0-0,3,SimpleHill,0-0,0,28,selected,34-25,34-17;32-25;36-29;33-19;37-30;30-31,30-31,2.52,84,2,2998.30940362
GEMS115,2018_Feb_28_1626,Kramer,MP,orientation,8,6,0,0-0;0-0;0-0;0-0,3,SimpleHill,0-0,0,29,selected,30-31,27-25;34-30;23-30;29-26;26-26;29-32,26-26,3.08,76,-8,3004.94557558
GEMS115,2018_Feb_28_1626,Kramer,MP,orientation,8,6,0,0-0;0-0;0-0;0-0,3,SimpleHill,0-0,0,30,selected,26-26,26-30;30-27;29-22;22-20;25-29;30-23,29-22,1.95,75,-1,3010.49289938
GEMS115,2018_Feb_28_1626,Kramer,MP,orientation,8,6,0,0-0;0-0;0-0;0-0,3,SimpleHill,0-0,0,31,selected,29-22,34-22;31-16;24-24;27-18;31-19;25-28,25-28,2.74,77,2,3016.79913408
GEMS115,2018_Feb_28_1626,Kramer,MP,orientation,8,6,0,0-0;0-0;0-0;0-0,3,SimpleHill,0-0,0,32,selected,25-28,27-23;24-27;27-30;27-24;32-28;19-33,19-33,1.4,75,-2,3021.78431571
GEMS115,2018_Feb_28_1626,Kramer,MP,orientation,8,6,0,0-0;0-0;0-0;0-0,3,SimpleHill,0-0,0,33,selected,19-33,17-28;21-35;13-30;15-34;20-30;25-36,25-36,6.27,83,8,3031.63107704
GEMS115,2018_Feb_28_1626,Kramer,MP,orientation,8,6,0,0-0;0-0;0-0;0-0,3,SimpleHill,0-0,0,34,selected,25-36,27-32;26-38;30-35;25-34;28-32;20-30,30-35,7.53,87,4,3042.75853607
GEMS115,2018_Feb_28_1626,Kramer,MP,orientation,8,6,0,0-0;0-0;0-0;0-0,3,SimpleHill,0-0,0,35,selected,30-35,26-39;32-34;32-39;25-34;29-28;27-41,27-41,7.5,87,0,3053.82146952
GEMS115,2018_Feb_28_1626,Kramer,MP,orientation,8,6,0,0-0;0-0;0-0;0-0,3,SimpleHill,0-0,0,36,selected,27-41,25-45;28-38;31-39;32-36;30-46;21-41,21-41,2.66,81,-6,3060.04705844
GEMS115,2018_Feb_28_1626,Kramer,MP,orientation,8,6,0,0-0;0-0;0-0;0-0,3,SimpleHill,0-0,0,37,selected,21-41,14-40;15-38;17-47;24-43;18-46;26-40,18-46,3.44,79,-2,3067.04524704
GEMS115,2018_Feb_28_1626,Kramer,MP,orientation,8,6,0,0-0;0-0;0-0;0-0,3,SimpleHill,0-0,0,38,selected,18-46,22-52;23-50;14-41;18-47;19-47;17-43,22-52,1.34,84,5,3071.94269539
GEMS115,2018_Feb_28_1626,Kramer,MP,orientation,8,6,0,0-0;0-0;0-0;0-0,3,SimpleHill,0-0,0,39,selected,22-52,29-52;20-51;15-51;17-46;28-57;20-53,29-52,1.93,91,7,3077.43634731
GEMS115,2018_Feb_28_1626,Kramer,MP,orientation,8,6,0,0-0;0-0;0-0;0-0,4,SimpleHill,0-0,0,0,selected,0-0,0-4;5-0;3-7;0-8;4-5;7-2,4-5,4.09,17,17,3090.63058762
GEMS115,2018_Feb_28_1626,Kramer,MP,orientation,8,6,0,0-0;0-0;0-0;0-0,4,SimpleHill,0-0,0,1,selected,4-5,1-8;2-8;4-11;7-9;6-0;0-3,4-11,3.19,27,10,3097.38774986
GEMS115,2018_Feb_28_1626,Kramer,MP,orientation,8,6,0,0-0;0-0;0-0;0-0,4,SimpleHill,0-0,0,2,selected,4-11,9-15;7-16;0-8;7-15;9-11;6-15,9-15,2.27,41,14,3103.21054552
GEMS115,2018_Feb_28_1626,Kramer,MP,orientation,8,6,0,0-0;0-0;0-0;0-0,4,SimpleHill,0-0,0,3,selected,9-15,13-11;7-21;7-8;14-18;6-22;4-15,14-18,2.08,53,12,3108.85313886
GEMS115,2018_Feb_28_1626,Kramer,MP,orientation,8,6,0,0-0;0-0;0-0;0-0,4,SimpleHill,0-0,0,4,selected,14-18,17-21;8-18;17-17;19-16;9-23;16-18,19-16,0.88,57,4,3113.31114493
GEMS115,2018_Feb_28_1626,Kramer,MP,orientation,8,6,0,0-0;0-0;0-0;0-0,4,SimpleHill,0-0,0,5,selected,19-16,19-19;26-13;27-16;24-16;26-14;22-9,26-14,2.67,62,5,3119.54921267
GEMS115,2018_Feb_28_1626,Kramer,MP,orientation,8,6,0,0-0;0-0;0-0;0-0,4,SimpleHill,0-0,0,6,selected,26-14,31-19;29-16;22-9;23-17;30-9;22-8,22-8,3.78,49,-13,3126.86584623
GEMS115,2018_Feb_28_1626,Kramer,MP,orientation,8,6,0,0-0;0-0;0-0;0-0,4,SimpleHill,0-0,0,7,selected,22-8,18-2;29-5;26-13;24-11;24-12;21-6,24-11,4.14,56,7,3134.56430888
GEMS115,2018_Feb_28_1626,Kramer,MP,orientation,8,6,0,0-0;0-0;0-0;0-0,4,SimpleHill,0-0,0,8,selected,24-11,25-7;29-16;31-9;23-11;21-14;20-14,23-11,1.52,55,-1,3139.65290257
GEMS115,2018_Feb_28_1626,Kramer,MP,orientation,8,6,0,0-0;0-0;0-0;0-0,4,SimpleHill,0-0,0,9,selected,23-11,20-16;26-15;27-6;24-16;16-8;29-14,16-8,4.69,41,-14,3147.91825534
GEMS115,2018_Feb_28_1626,Kramer,MP,orientation,8,6,0,0-0;0-0;0-0;0-0,4,SimpleHill,0-0,0,10,selected,16-8,10-4;14-7;17-1;24-8;14-12;15-7,14-7,3.95,37,-4,3155.4415661
GEMS115,2018_Feb_28_1626,Kramer,MP,orientation,8,6,0,0-0;0-0;0-0;0-0,4,SimpleHill,0-0,0,11,selected,14-7,13-10;21-4;16-7;15-8;12-0;13-7,15-8,1.11,40,3,3160.12454843
GEMS115,2018_Feb_28_1626,Kramer,MP,orientation,8,6,0,0-0;0-0;0-0;0-0,4,SimpleHill,0-0,0,12,selected,15-8,20-10;12-1;10-3;20-3;8-11;12-13,20-3,1.64,37,-3,3165.33009506
GEMS115,2018_Feb_28_1626,Kramer,MP,orientation,8,6,0,0-0;0-0;0-0;0-0,4,SimpleHill,0-0,0,13,selected,20-3,27-0;13-3;26-1;16-3;20-11;14-1,20-11,1.3,51,14,3170.19816017
GEMS115,2018_Feb_28_1626,Kramer,MP,orientation,8,6,0,0-0;0-0;0-0;0-0,4,SimpleHill,0-0,0,14,selected,20-11,24-6;23-16;20-19;18-6;15-15;21-13,15-15,2.13,51,0,3175.89802388
GEMS115,2018_Feb_28_1626,Kramer,MP,orientation,8,6,0,0-0;0-0;0-0;0-0,4,SimpleHill,0-0,0,15,selected,15-15,17-10;18-8;20-10;11-20;19-18;20-15,19-18,2.4,60,9,3181.85679976
GEMS115,2018_Feb_28_1626,Kramer,MP,orientation,8,6,0,0-0;0-0;0-0;0-0,4,SimpleHill,0-0,0,16,selected,19-18,15-18;18-19;14-16;17-19;19-14;24-23,18-19,2.36,60,0,3187.80051497
GEMS115,2018_Feb_28_1626,Kramer,MP,orientation,8,6,0,0-0;0-0;0-0;0-0,4,SimpleHill,0-0,0,17,selected,18-19,15-18;20-19;22-23;24-24;18-16;25-20,25-20,2.81,69,9,3194.19288824
GEMS115,2018_Feb_28_1626,Kramer,MP,orientation,8,6,0,0-0;0-0;0-0;0-0,4,SimpleHill,0-0,0,18,selected,25-20,29-17;23-16;21-16;31-21;23-13;27-20,31-21,2.4,75,6,3200.16188565
GEMS115,2018_Feb_28_1626,Kramer,MP,orientation,8,6,0,0-0;0-0;0-0;0-0,4,SimpleHill,0-0,0,19,selected,31-21,33-14;25-23;32-17;26-21;26-26;33-18,25-23,1.62,72,-3,3205.3593397
GEMS115,2018_Feb_28_1626,Kramer,MP,orientation,8,6,0,0-0;0-0;0-0;0-0,4,SimpleHill,0-0,0,20,selected,25-23,27-23;22-27;25-15;22-21;29-22;23-28,23-28,1.78,75,3,3210.71170714
GEMS115,2018_Feb_28_1626,Kramer,MP,orientation,8,6,0,0-0;0-0;0-0;0-0,4,SimpleHill,0-0,0,21,selected,23-28,20-35;25-27;23-29;26-30;19-31;15-28,25-27,1.29,76,1,3215.59296871
GEMS115,2018_Feb_28_1626,Kramer,MP,orientation,8,6,0,0-0;0-0;0-0;0-0,4,SimpleHill,0-0,0,22,selected,25-27,20-31;30-25;30-31;26-25;29-30;32-29,29-30,2.6,83,7,3221.76493761
GEMS115,2018_Feb_28_1626,Kramer,MP,orientation,8,6,0,0-0;0-0;0-0;0-0,4,SimpleHill,0-0,0,23,selected,29-30,31-24;31-36;22-31;24-29;30-35;35-29,31-24,1.28,79,-4,3226.60577691
GEMS115,2018_Feb_28_1626,Kramer,MP,orientation,8,6,0,0-0;0-0;0-0;0-0,4,SimpleHill,0-0,0,24,selected,31-24,26-18;34-24;31-25;26-24;29-21;33-24,33-24,2.58,80,1,3232.73607772
GEMS115,2018_Feb_28_1626,Kramer,MP,orientation,8,6,0,0-0;0-0;0-0;0-0,4,SimpleHill,0-0,0,25,selected,33-24,37-24;34-24;33-24;37-21;35-21;28-23,28-23,1.07,75,-5,3237.38337451
GEMS115,2018_Feb_28_1626,Kramer,MP,orientation,8,6,0,0-0;0-0;0-0;0-0,4,SimpleHill,0-0,0,26,selected,28-23,34-19;29-26;31-22;31-28;24-19;30-22,31-28,2.0,83,8,3242.93520489
GEMS115,2018_Feb_28_1626,Kramer,MP,orientation,8,6,0,0-0;0-0;0-0;0-0,4,SimpleHill,0-0,0,27,selected,31-28,28-31;38-28;28-25;34-27;31-26;29-22,38-28,2.82,87,4,3249.32558911
GEMS115,2018_Feb_28_1626,Kramer,MP,orientation,8,6,0,0-0;0-0;0-0;0-0,4,SimpleHill,0-0,0,28,selected,38-28,38-30;43-31;42-24;32-32;37-35;35-25,37-35,1.32,92,5,3254.21551848
GEMS115,2018_Feb_28_1626,Kramer,MP,orientation,8,6,0,0-0;0-0;0-0;0-0,4,SimpleHill,0-0,0,29,selected,37-35,37-28;38-36;35-28;33-39;34-40;41-38,34-40,1.2,92,0,3258.99377195
GEMS115,2018_Feb_28_1626,Kramer,MP,orientation,8,6,0,0-0;0-0;0-0;0-0,4,SimpleHill,0-0,0,30,selected,34-40,30-46;28-36;35-45;34-42;41-39;31-38,34-42,1.49,93,1,3264.05351343
GEMS115,2018_Feb_28_1626,Kramer,MP,orientation,8,6,0,0-0;0-0;0-0;0-0,4,SimpleHill,0-0,0,31,selected,34-42,27-42;32-40;36-47;39-46;37-40;29-42,36-47,1.26,95,2,3268.8621562
GEMS115,2018_Feb_28_1626,Kramer,MP,orientation,8,6,0,0-0;0-0;0-0;0-0,4,SimpleHill,0-0,0,32,selected,36-47,41-47;41-52;40-42;34-50;30-52;35-52,30-52,1.5,91,-4,3273.92533931
GEMS115,2018_Feb_28_1626,Kramer,MP,orientation,8,6,0,0-0;0-0;0-0;0-0,4,SimpleHill,0-0,0,33,selected,30-52,25-49;30-60;30-53;34-56;37-50;25-54,30-53,1.06,91,0,3278.55129999
GEMS115,2018_Feb_28_1626,Kramer,MP,orientation,8,6,0,0-0;0-0;0-0;0-0,4,SimpleHill,0-0,0,34,selected,30-53,28-56;36-55;27-52;30-58;35-56;32-58,36-55,0.79,95,4,3282.92118707
GEMS115,2018_Feb_28_1626,Kramer,MP,orientation,8,6,0,0-0;0-0;0-0;0-0,4,SimpleHill,0-0,0,35,selected,36-55,41-54;37-59;38-55;41-60;42-55;29-52,37-59,1.78,95,0,3288.2544965
GEMS115,2018_Feb_28_1626,Kramer,MP,orientation,8,6,0,0-0;0-0;0-0;0-0,4,SimpleHill,0-0,0,36,selected,37-59,37-56;37-63;44-59;40-53;37-59;38-61,37-63,0.82,93,-2,3292.65420343
GEMS115,2018_Feb_28_1626,Kramer,MP,orientation,8,6,0,0-0;0-0;0-0;0-0,4,SimpleHill,0-0,0,37,selected,37-63,37-66;37-65;37-69;34-60;41-61;31-59,37-69,0.83,89,-4,3297.04801616
GEMS115,2018_Feb_28_1626,Kramer,MP,orientation,8,6,0,0-0;0-0;0-0;0-0,4,SimpleHill,0-0,0,38,selected,37-69,31-69;36-68;44-68;37-69;35-66;39-63,36-68,0.92,89,0,3301.52705969
GEMS115,2018_Feb_28_1626,Kramer,MP,orientation,8,6,0,0-0;0-0;0-0;0-0,4,SimpleHill,0-0,0,39,selected,36-68,36-68;35-64;34-61;34-69;39-64;35-67,35-67,0.69,89,0,3305.79633487
