subj_id,date,computer,experimenter,version,generation,inherit_from,sight_radius,n_gabors,block_ix,landscape_name,starting_pos,starting_score,trial,pos,stims,selected,rt,score,delta,exp_time
GEMS195,2018_Oct_24_1024,Kramer,AG,1.3,2,GEMS179,10,6,1,SimpleHill,0-0,0,0,0-0,9-0;2-4;5-2;9-4;3-9;4-4,5-2,1.01,13,13,360.53718358
GEMS195,2018_Oct_24_1024,Kramer,AG,1.3,2,GEMS179,10,6,1,SimpleHill,0-0,0,1,5-2,11-10;9-10;3-10;7-0;12-3;6-1,7-0,3.41,13,0,368.035798859
GEMS195,2018_Oct_24_1024,Kramer,AG,1.3,2,GEMS179,10,6,1,SimpleHill,0-0,0,2,7-0,14-4;10-8;6-6;6-2;9-4;2-4,6-6,1.6,22,9,373.704905166
GEMS195,2018_Oct_24_1024,Kramer,AG,1.3,2,GEMS179,10,6,1,SimpleHill,0-0,0,3,6-6,2-6;14-12;3-14;9-11;13-5;4-13,2-6,2.14,15,-7,379.913421619
GEMS195,2018_Oct_24_1024,Kramer,AG,1.3,2,GEMS179,10,6,1,SimpleHill,0-0,0,4,2-6,1-10;2-13;1-5;5-14;6-3;6-12,1-5,0.58,11,-4,384.545767189
GEMS195,2018_Oct_24_1024,Kramer,AG,1.3,2,GEMS179,10,6,1,SimpleHill,0-0,0,5,1-5,8-1;5-7;9-7;0-11;7-1;4-14,7-1,1.1,15,4,389.704088609
GEMS195,2018_Oct_24_1024,Kramer,AG,1.3,2,GEMS179,10,6,1,SimpleHill,0-0,0,6,7-1,15-7;10-3;5-1;6-3;0-5;14-6,14-6,3.68,35,20,397.458151387
GEMS195,2018_Oct_24_1024,Kramer,AG,1.3,2,GEMS179,10,6,1,SimpleHill,0-0,0,7,14-6,6-11;9-14;18-7;11-8;10-6;8-0,18-7,4.02,42,7,405.550931566
GEMS195,2018_Oct_24_1024,Kramer,AG,1.3,2,GEMS179,10,6,1,SimpleHill,0-0,0,8,18-7,14-10;27-8;15-8;20-12;16-16;20-0,15-8,2.16,40,-2,411.775197865
GEMS195,2018_Oct_24_1024,Kramer,AG,1.3,2,GEMS179,10,6,1,SimpleHill,0-0,0,9,15-8,7-14;22-7;6-6;11-5;19-1;20-0,22-7,2.77,47,7,418.598100121
GEMS195,2018_Oct_24_1024,Kramer,AG,1.3,2,GEMS179,10,6,1,SimpleHill,0-0,0,10,22-7,16-3;31-9;17-8;16-13;21-8;16-12,16-13,4.27,49,2,426.957847299
GEMS195,2018_Oct_24_1024,Kramer,AG,1.3,2,GEMS179,10,6,1,SimpleHill,0-0,0,11,16-13,19-13;24-15;13-13;20-19;12-5;23-16,12-5,4.29,30,-19,435.329349245
GEMS195,2018_Oct_24_1024,Kramer,AG,1.3,2,GEMS179,10,6,1,SimpleHill,0-0,0,12,12-5,6-13;12-2;6-1;3-9;12-3;19-4,6-1,1.3,13,-17,440.702903946
GEMS195,2018_Oct_24_1024,Kramer,AG,1.3,2,GEMS179,10,6,1,SimpleHill,0-0,0,13,6-1,3-5;10-1;4-2;7-10;13-6;2-9,7-10,0.53,31,18,445.368803564
GEMS195,2018_Oct_24_1024,Kramer,AG,1.3,2,GEMS179,10,6,1,SimpleHill,0-0,0,14,7-10,4-3;10-4;13-2;13-17;2-15;12-6,2-15,2.23,29,-2,451.662951563
GEMS195,2018_Oct_24_1024,Kramer,AG,1.3,2,GEMS179,10,6,1,SimpleHill,0-0,0,15,2-15,1-6;10-11;1-23;8-13;6-18;11-11,8-13,1.2,37,8,456.912782714
GEMS195,2018_Oct_24_1024,Kramer,AG,1.3,2,GEMS179,10,6,1,SimpleHill,0-0,0,16,8-13,11-21;7-6;7-8;3-19;4-22;0-14,7-6,0.94,24,-13,461.923663949
GEMS195,2018_Oct_24_1024,Kramer,AG,1.3,2,GEMS179,10,6,1,SimpleHill,0-0,0,17,7-6,14-7;10-2;7-7;3-11;16-3;6-13,3-11,2.06,25,1,468.044456409
GEMS195,2018_Oct_24_1024,Kramer,AG,1.3,2,GEMS179,10,6,1,SimpleHill,0-0,0,18,3-11,1-7;7-12;4-14;8-12;7-3;9-11,9-11,3.73,35,10,475.856321865
GEMS195,2018_Oct_24_1024,Kramer,AG,1.3,2,GEMS179,10,6,1,SimpleHill,0-0,0,19,9-11,11-10;0-14;17-17;5-18;8-17;6-7,17-17,2.04,56,21,481.977462266
GEMS195,2018_Oct_24_1024,Kramer,AG,1.3,2,GEMS179,10,6,1,SimpleHill,0-0,0,20,17-17,14-21;10-18;23-21;12-18;14-12;18-24,23-21,1.19,68,12,487.313732877
GEMS195,2018_Oct_24_1024,Kramer,AG,1.3,2,GEMS179,10,6,1,SimpleHill,0-0,0,21,23-21,21-22;30-15;30-16;24-23;21-18;16-28,21-22,1.91,67,-1,493.311921792
GEMS195,2018_Oct_24_1024,Kramer,AG,1.3,2,GEMS179,10,6,1,SimpleHill,0-0,0,22,21-22,12-19;19-27;26-21;16-23;22-14;16-22,16-22,4.48,61,-6,501.858403108
GEMS195,2018_Oct_24_1024,Kramer,AG,1.3,2,GEMS179,10,6,1,SimpleHill,0-0,0,23,16-22,21-25;15-19;13-19;12-26;11-14;19-24,12-26,2.58,59,-2,508.493026458
GEMS195,2018_Oct_24_1024,Kramer,AG,1.3,2,GEMS179,10,6,1,SimpleHill,0-0,0,24,12-26,13-19;16-21;21-25;14-34;14-28;6-26,14-34,0.97,68,9,513.527161475
GEMS195,2018_Oct_24_1024,Kramer,AG,1.3,2,GEMS179,10,6,1,SimpleHill,0-0,0,25,14-34,6-38;23-30;14-32;23-33;8-28;7-33,7-33,5.12,57,-11,522.709567318
GEMS195,2018_Oct_24_1024,Kramer,AG,1.3,2,GEMS179,10,6,1,SimpleHill,0-0,0,26,7-33,10-34;1-28;2-29;4-31;7-25;0-40,10-34,4.07,62,5,530.840138293
GEMS195,2018_Oct_24_1024,Kramer,AG,1.3,2,GEMS179,10,6,1,SimpleHill,0-0,0,27,10-34,6-43;16-27;14-41;5-31;5-33;8-43,6-43,1.46,60,-2,536.367014565
GEMS195,2018_Oct_24_1024,Kramer,AG,1.3,2,GEMS179,10,6,1,SimpleHill,0-0,0,28,6-43,7-46;4-49;12-50;3-34;11-45;0-48,7-46,1.35,62,2,541.792376606
GEMS195,2018_Oct_24_1024,Kramer,AG,1.3,2,GEMS179,10,6,1,SimpleHill,0-0,0,29,7-46,3-45;12-51;13-51;11-50;16-47;4-41,3-45,0.67,55,-7,546.533381838
GEMS195,2018_Oct_24_1024,Kramer,AG,1.3,2,GEMS179,10,6,1,SimpleHill,0-0,0,30,3-45,13-45;9-45;7-42;3-45;7-53;5-40,7-53,2.09,62,7,552.69191484
GEMS195,2018_Oct_24_1024,Kramer,AG,1.3,2,GEMS179,10,6,1,SimpleHill,0-0,0,31,7-53,5-57;6-56;1-61;4-44;8-59;4-47,1-61,4.25,49,-13,561.013070669
GEMS195,2018_Oct_24_1024,Kramer,AG,1.3,2,GEMS179,10,6,1,SimpleHill,0-0,0,32,1-61,9-65;3-60;10-59;9-61;4-67;8-67,9-61,5.64,63,14,570.726695804
GEMS195,2018_Oct_24_1024,Kramer,AG,1.3,2,GEMS179,10,6,1,SimpleHill,0-0,0,33,9-61,13-53;12-63;8-62;0-63;8-67;6-68,8-67,2.08,58,-5,576.874991918
GEMS195,2018_Oct_24_1024,Kramer,AG,1.3,2,GEMS179,10,6,1,SimpleHill,0-0,0,34,8-67,0-68;14-68;13-60;10-64;0-62;14-64,10-64,2.44,64,6,583.390534984
GEMS195,2018_Oct_24_1024,Kramer,AG,1.3,2,GEMS179,10,6,1,SimpleHill,0-0,0,35,10-64,2-61;1-62;7-56;19-65;13-65;7-69,7-69,2.81,55,-9,590.288577744
GEMS195,2018_Oct_24_1024,Kramer,AG,1.3,2,GEMS179,10,6,1,SimpleHill,0-0,0,36,7-69,6-66;10-70;16-66;15-68;1-67;13-63,15-68,0.82,69,14,595.174196423
GEMS195,2018_Oct_24_1024,Kramer,AG,1.3,2,GEMS179,10,6,1,SimpleHill,0-0,0,37,15-68,10-60;17-62;14-66;9-67;9-68;23-70,9-67,0.29,60,-9,599.548168205
GEMS195,2018_Oct_24_1024,Kramer,AG,1.3,2,GEMS179,10,6,1,SimpleHill,0-0,0,38,9-67,0-63;14-66;14-64;8-64;1-62;16-68,8-64,0.2,60,0,603.806212937
GEMS195,2018_Oct_24_1024,Kramer,AG,1.3,2,GEMS179,10,6,1,SimpleHill,0-0,0,39,8-64,13-62;4-70;7-66;10-60;6-60;10-64,10-60,0.27,66,6,608.165166925
GEMS195,2018_Oct_24_1024,Kramer,AG,1.3,2,GEMS179,10,6,1,SimpleHill,0-0,0,40,10-60,13-68;16-54;9-63;12-64;9-55;17-56,9-55,0.29,65,-1,612.528367264
GEMS195,2018_Oct_24_1024,Kramer,AG,1.3,2,GEMS179,10,6,1,SimpleHill,0-0,0,41,9-55,6-56;8-60;10-47;8-57;6-50;16-48,6-50,0.23,61,-4,616.831556605
GEMS195,2018_Oct_24_1024,Kramer,AG,1.3,2,GEMS179,10,6,1,SimpleHill,0-0,0,42,6-50,0-46;2-42;10-51;4-44;14-44;12-43,14-44,0.84,73,12,621.740455633
GEMS195,2018_Oct_24_1024,Kramer,AG,1.3,2,GEMS179,10,6,1,SimpleHill,0-0,0,43,14-44,8-39;5-44;15-37;23-40;14-46;6-42,6-42,0.94,60,-13,626.765461923
GEMS195,2018_Oct_24_1024,Kramer,AG,1.3,2,GEMS179,10,6,1,SimpleHill,0-0,0,44,6-42,4-40;11-40;3-36;12-48;13-43;6-43,6-43,0.23,60,0,631.064280076
GEMS195,2018_Oct_24_1024,Kramer,AG,1.3,2,GEMS179,10,6,1,SimpleHill,0-0,0,45,6-43,7-52;7-38;1-44;11-41;8-46;4-51,4-51,0.23,57,-3,635.369662693
GEMS195,2018_Oct_24_1024,Kramer,AG,1.3,2,GEMS179,10,6,1,SimpleHill,0-0,0,46,4-51,11-57;8-50;3-48;6-42;6-44;0-51,0-51,0.21,49,-8,639.661913502
GEMS195,2018_Oct_24_1024,Kramer,AG,1.3,2,GEMS179,10,6,1,SimpleHill,0-0,0,47,0-51,0-61;8-55;5-54;6-55;3-49;3-54,3-54,0.16,55,6,643.886791178
GEMS195,2018_Oct_24_1024,Kramer,AG,1.3,2,GEMS179,10,6,1,SimpleHill,0-0,0,48,3-54,7-47;10-61;1-61;11-54;11-53;0-60,7-47,1.74,62,7,649.68957016
GEMS195,2018_Oct_24_1024,Kramer,AG,1.3,2,GEMS179,10,6,1,SimpleHill,0-0,0,49,7-47,11-44;16-51;10-46;6-45;7-54;5-43,16-51,0.25,76,14,653.990415781
GEMS195,2018_Oct_24_1024,Kramer,AG,1.3,2,GEMS179,10,6,1,SimpleHill,0-0,0,50,16-51,17-43;20-57;23-49;13-58;16-53;9-51,23-49,0.22,85,9,658.268043151
GEMS195,2018_Oct_24_1024,Kramer,AG,1.3,2,GEMS179,10,6,1,SimpleHill,0-0,0,51,23-49,29-53;16-51;25-50;25-43;17-56;23-40,25-43,0.24,86,1,662.563766327
GEMS195,2018_Oct_24_1024,Kramer,AG,1.3,2,GEMS179,10,6,1,SimpleHill,0-0,0,52,25-43,20-43;17-42;28-39;33-43;23-38;18-46,23-38,0.2,82,-4,666.814821193
GEMS195,2018_Oct_24_1024,Kramer,AG,1.3,2,GEMS179,10,6,1,SimpleHill,0-0,0,53,23-38,29-46;21-45;20-47;23-33;18-46;20-34,20-34,0.22,76,-6,671.105480821
GEMS195,2018_Oct_24_1024,Kramer,AG,1.3,2,GEMS179,10,6,1,SimpleHill,0-0,0,54,20-34,19-27;17-36;20-32;24-43;24-28;25-29,24-28,0.24,76,0,675.419777382
GEMS195,2018_Oct_24_1024,Kramer,AG,1.3,2,GEMS179,10,6,1,SimpleHill,0-0,0,55,24-28,16-29;21-35;18-32;19-35;26-31;28-21,28-21,0.27,73,-3,679.762104789
GEMS195,2018_Oct_24_1024,Kramer,AG,1.3,2,GEMS179,10,6,1,SimpleHill,0-0,0,56,28-21,26-22;21-21;24-23;28-26;27-24;23-26,23-26,0.24,73,0,684.085218307
GEMS195,2018_Oct_24_1024,Kramer,AG,1.3,2,GEMS179,10,6,1,SimpleHill,0-0,0,57,23-26,24-18;29-28;31-32;20-34;14-25;30-25,30-25,0.25,79,6,688.415185651
GEMS195,2018_Oct_24_1024,Kramer,AG,1.3,2,GEMS179,10,6,1,SimpleHill,0-0,0,58,30-25,39-23;30-30;28-18;31-32;26-31;34-21,26-31,0.22,81,2,692.710805117
GEMS195,2018_Oct_24_1024,Kramer,AG,1.3,2,GEMS179,10,6,1,SimpleHill,0-0,0,59,26-31,18-31;24-40;19-31;25-23;17-35;24-29,18-31,0.57,72,-9,697.346754611
GEMS195,2018_Oct_24_1024,Kramer,AG,1.3,2,GEMS179,10,6,1,SimpleHill,0-0,0,60,18-31,14-22;13-32;16-24;27-35;24-32;14-23,14-22,0.33,58,-14,701.75262076
GEMS195,2018_Oct_24_1024,Kramer,AG,1.3,2,GEMS179,10,6,1,SimpleHill,0-0,0,61,14-22,16-17;7-26;12-20;16-19;20-20;21-29,16-17,0.39,55,-3,706.20529888
GEMS195,2018_Oct_24_1024,Kramer,AG,1.3,2,GEMS179,10,6,1,SimpleHill,0-0,0,62,16-17,8-18;11-25;11-9;16-27;24-17;21-11,8-18,0.22,44,-11,710.492300808
GEMS195,2018_Oct_24_1024,Kramer,AG,1.3,2,GEMS179,10,6,1,SimpleHill,0-0,0,63,8-18,2-16;2-17;0-23;14-19;15-16;8-27,14-19,3.41,54,10,717.984821199
GEMS195,2018_Oct_24_1024,Kramer,AG,1.3,2,GEMS179,10,6,1,SimpleHill,0-0,0,64,14-19,18-10;14-12;5-17;16-14;7-22;17-20,17-20,5.15,60,6,727.191853702
GEMS195,2018_Oct_24_1024,Kramer,AG,1.3,2,GEMS179,10,6,1,SimpleHill,0-0,0,65,17-20,11-27;25-22;18-18;16-11;15-26;15-11,18-18,4.99,59,-1,736.254698162
GEMS195,2018_Oct_24_1024,Kramer,AG,1.3,2,GEMS179,10,6,1,SimpleHill,0-0,0,66,18-18,17-26;12-18;10-24;14-18;15-20;14-12,14-18,3.01,53,-6,743.328994262
GEMS195,2018_Oct_24_1024,Kramer,AG,1.3,2,GEMS179,10,6,1,SimpleHill,0-0,0,67,14-18,19-15;17-13;13-22;14-9;11-25;23-18,23-18,2.43,64,11,749.842810428
GEMS195,2018_Oct_24_1024,Kramer,AG,1.3,2,GEMS179,10,6,1,SimpleHill,0-0,0,68,23-18,28-26;29-21;31-19;21-17;23-22;25-23,21-17,3.69,61,-3,757.596345052
GEMS195,2018_Oct_24_1024,Kramer,AG,1.3,2,GEMS179,10,6,1,SimpleHill,0-0,0,69,21-17,22-18;24-9;16-10;23-12;17-25;28-12,22-18,4.54,63,2,766.221315684
GEMS195,2018_Oct_24_1024,Kramer,AG,1.3,2,GEMS179,10,6,1,SimpleHill,0-0,0,70,22-18,27-21;21-12;32-18;21-13;24-23;19-23,32-18,1.68,73,10,771.953599027
GEMS195,2018_Oct_24_1024,Kramer,AG,1.3,2,GEMS179,10,6,1,SimpleHill,0-0,0,71,32-18,30-26;40-18;37-26;22-18;34-15;27-17,40-18,6.01,77,4,782.035902889
GEMS195,2018_Oct_24_1024,Kramer,AG,1.3,2,GEMS179,10,6,1,SimpleHill,0-0,0,72,40-18,45-17;36-24;42-26;31-16;39-10;41-14,45-17,4.94,77,0,791.047266504
GEMS195,2018_Oct_24_1024,Kramer,AG,1.3,2,GEMS179,10,6,1,SimpleHill,0-0,0,73,45-17,47-12;45-7;51-11;53-22;40-20;48-13,51-11,10.22,69,-8,805.338098021
GEMS195,2018_Oct_24_1024,Kramer,AG,1.3,2,GEMS179,10,6,1,SimpleHill,0-0,0,74,51-11,44-18;49-5;55-18;56-10;60-7;49-13,56-10,6.82,67,-2,816.234085786
GEMS195,2018_Oct_24_1024,Kramer,AG,1.3,2,GEMS179,10,6,1,SimpleHill,0-0,0,75,56-10,55-17;52-11;53-4;60-7;56-15;54-18,52-11,4.22,69,2,824.511757009
GEMS195,2018_Oct_24_1024,Kramer,AG,1.3,2,GEMS179,10,6,1,SimpleHill,0-0,0,76,52-11,56-16;44-15;55-11;45-5;45-8;57-5,45-8,4.36,64,-5,832.943451125
GEMS195,2018_Oct_24_1024,Kramer,AG,1.3,2,GEMS179,10,6,1,SimpleHill,0-0,0,77,45-8,43-15;48-11;47-3;39-13;46-17;40-3,46-17,6.23,77,13,843.243373279
GEMS195,2018_Oct_24_1024,Kramer,AG,1.3,2,GEMS179,10,6,1,SimpleHill,0-0,0,78,46-17,41-17;52-16;54-12;47-17;40-19;47-11,52-16,3.68,76,-1,851.005529603
GEMS195,2018_Oct_24_1024,Kramer,AG,1.3,2,GEMS179,10,6,1,SimpleHill,0-0,0,79,52-16,52-15;46-12;44-11;57-16;60-12;47-18,57-16,2.08,75,-1,857.156867239
GEMS195,2018_Oct_24_1024,Kramer,AG,1.3,2,GEMS179,10,6,2,SimpleHill,0-0,0,0,0-0,8-1;3-8;6-7;7-4;6-1;10-0,7-4,3.65,20,20,984.504357423
GEMS195,2018_Oct_24_1024,Kramer,AG,1.3,2,GEMS179,10,6,2,SimpleHill,0-0,0,1,7-4,16-3;3-3;0-10;13-2;12-4;14-0,13-2,1.14,26,6,989.715363558
GEMS195,2018_Oct_24_1024,Kramer,AG,1.3,2,GEMS179,10,6,2,SimpleHill,0-0,0,2,13-2,11-7;11-8;13-9;16-2;14-2;20-3,16-2,0.93,30,4,994.720080446
GEMS195,2018_Oct_24_1024,Kramer,AG,1.3,2,GEMS179,10,6,2,SimpleHill,0-0,0,3,16-2,13-5;18-5;9-2;16-12;10-5;15-0,16-12,0.62,48,18,999.412082031
GEMS195,2018_Oct_24_1024,Kramer,AG,1.3,2,GEMS179,10,6,2,SimpleHill,0-0,0,4,16-12,15-18;23-8;19-14;15-11;15-15;8-17,15-11,0.22,45,-3,1003.7193023
GEMS195,2018_Oct_24_1024,Kramer,AG,1.3,2,GEMS179,10,6,2,SimpleHill,0-0,0,5,15-11,10-7;24-13;23-9;10-18;12-12;21-8,10-18,0.18,47,2,1007.98210425
GEMS195,2018_Oct_24_1024,Kramer,AG,1.3,2,GEMS179,10,6,2,SimpleHill,0-0,0,6,10-18,18-13;8-12;3-16;10-20;14-25;2-23,10-20,0.07,50,3,1012.13159463
GEMS195,2018_Oct_24_1024,Kramer,AG,1.3,2,GEMS179,10,6,2,SimpleHill,0-0,0,7,10-20,13-20;4-19;1-18;14-17;10-13;11-15,14-17,0.17,52,2,1016.37861889
GEMS195,2018_Oct_24_1024,Kramer,AG,1.3,2,GEMS179,10,6,2,SimpleHill,0-0,0,8,14-17,21-15;22-18;16-11;19-14;20-14;7-23,19-14,0.36,54,2,1020.81221308
GEMS195,2018_Oct_24_1024,Kramer,AG,1.3,2,GEMS179,10,6,2,SimpleHill,0-0,0,9,19-14,14-14;23-23;26-16;22-16;12-17;25-19,22-16,0.21,61,7,1025.09749835
GEMS195,2018_Oct_24_1024,Kramer,AG,1.3,2,GEMS179,10,6,2,SimpleHill,0-0,0,10,22-16,24-16;17-8;25-24;25-8;21-25;28-21,25-8,0.19,52,-9,1029.34074647
GEMS195,2018_Oct_24_1024,Kramer,AG,1.3,2,GEMS179,10,6,2,SimpleHill,0-0,0,11,25-8,29-11;18-5;32-12;16-5;29-1;26-12,16-5,0.21,36,-16,1033.6233516
GEMS195,2018_Oct_24_1024,Kramer,AG,1.3,2,GEMS179,10,6,2,SimpleHill,0-0,0,12,16-5,12-11;8-1;12-0;11-11;16-13;23-6,16-13,0.22,49,13,1037.94589952
GEMS195,2018_Oct_24_1024,Kramer,AG,1.3,2,GEMS179,10,6,2,SimpleHill,0-0,0,13,16-13,12-20;7-14;15-14;11-8;9-12;8-11,9-12,0.37,37,-12,1042.3914975
GEMS195,2018_Oct_24_1024,Kramer,AG,1.3,2,GEMS179,10,6,2,SimpleHill,0-0,0,14,9-12,13-7;5-6;12-17;11-6;10-7;7-11,10-7,0.25,31,-6,1046.7086749
GEMS195,2018_Oct_24_1024,Kramer,AG,1.3,2,GEMS179,10,6,2,SimpleHill,0-0,0,15,10-7,17-3;16-13;9-14;16-3;3-1;14-1,14-1,0.51,26,-5,1051.29736205
GEMS195,2018_Oct_24_1024,Kramer,AG,1.3,2,GEMS179,10,6,2,SimpleHill,0-0,0,16,14-1,11-3;8-2;12-7;17-1;11-1;16-6,11-3,0.27,25,-1,1055.66062161
GEMS195,2018_Oct_24_1024,Kramer,AG,1.3,2,GEMS179,10,6,2,SimpleHill,0-0,0,17,11-3,19-7;9-12;13-4;19-3;14-11;15-6,19-7,0.24,43,18,1059.9788137
GEMS195,2018_Oct_24_1024,Kramer,AG,1.3,2,GEMS179,10,6,2,SimpleHill,0-0,0,18,19-7,11-4;24-13;28-11;10-3;20-7;18-13,24-13,0.17,59,16,1064.2232276
GEMS195,2018_Oct_24_1024,Kramer,AG,1.3,2,GEMS179,10,6,2,SimpleHill,0-0,0,19,24-13,20-4;19-15;20-15;22-11;29-21;17-11,20-15,0.42,57,-2,1068.70961597
GEMS195,2018_Oct_24_1024,Kramer,AG,1.3,2,GEMS179,10,6,2,SimpleHill,0-0,0,20,20-15,25-9;27-22;18-13;13-19;20-15;22-22,13-19,0.56,53,-4,1073.35243946
GEMS195,2018_Oct_24_1024,Kramer,AG,1.3,2,GEMS179,10,6,2,SimpleHill,0-0,0,21,13-19,17-20;15-12;9-13;15-28;13-24;16-20,13-24,0.35,59,6,1077.77121367
GEMS195,2018_Oct_24_1024,Kramer,AG,1.3,2,GEMS179,10,6,2,SimpleHill,0-0,0,22,13-24,15-16;18-32;9-25;9-26;8-22;17-33,17-33,0.29,72,13,1082.13389226
GEMS195,2018_Oct_24_1024,Kramer,AG,1.3,2,GEMS179,10,6,2,SimpleHill,0-0,0,23,17-33,14-36;22-35;26-32;10-27;18-31;20-33,14-36,1.55,70,-2,1087.76026746
GEMS195,2018_Oct_24_1024,Kramer,AG,1.3,2,GEMS179,10,6,2,SimpleHill,0-0,0,24,14-36,15-41;15-33;8-38;11-41;17-38;7-39,15-33,0.74,69,-1,1092.57986251
GEMS195,2018_Oct_24_1024,Kramer,AG,1.3,2,GEMS179,10,6,2,SimpleHill,0-0,0,25,15-33,9-33;18-42;17-40;13-26;15-30;21-26,17-40,0.57,76,7,1097.22371126
GEMS195,2018_Oct_24_1024,Kramer,AG,1.3,2,GEMS179,10,6,2,SimpleHill,0-0,0,26,17-40,9-46;13-31;12-36;20-48;22-32;22-34,20-48,0.2,81,5,1101.49736212
GEMS195,2018_Oct_24_1024,Kramer,AG,1.3,2,GEMS179,10,6,2,SimpleHill,0-0,0,27,20-48,23-57;24-56;17-49;19-56;18-56;26-46,18-56,0.21,78,-3,1105.76837157
GEMS195,2018_Oct_24_1024,Kramer,AG,1.3,2,GEMS179,10,6,2,SimpleHill,0-0,0,28,18-56,12-60;16-64;21-49;17-56;19-55;13-61,13-61,0.64,70,-8,1110.48258183
GEMS195,2018_Oct_24_1024,Kramer,AG,1.3,2,GEMS179,10,6,2,SimpleHill,0-0,0,29,13-61,14-62;16-58;18-62;13-67;18-54;10-52,16-58,1.88,75,5,1116.43173093
GEMS195,2018_Oct_24_1024,Kramer,AG,1.3,2,GEMS179,10,6,2,SimpleHill,0-0,0,30,16-58,20-50;12-51;10-62;19-53;11-52;22-60,11-52,1.02,69,-6,1121.52474541
GEMS195,2018_Oct_24_1024,Kramer,AG,1.3,2,GEMS179,10,6,2,SimpleHill,0-0,0,31,11-52,8-52;9-56;8-61;13-50;10-48;14-50,10-48,1.55,67,-2,1127.1388521
GEMS195,2018_Oct_24_1024,Kramer,AG,1.3,2,GEMS179,10,6,2,SimpleHill,0-0,0,32,10-48,8-53;4-55;4-53;13-49;12-44;7-56,12-44,0.57,70,3,1131.7698043
GEMS195,2018_Oct_24_1024,Kramer,AG,1.3,2,GEMS179,10,6,2,SimpleHill,0-0,0,33,12-44,20-40;10-44;3-41;8-36;15-37;12-50,12-50,4.36,71,1,1140.18995491
GEMS195,2018_Oct_24_1024,Kramer,AG,1.3,2,GEMS179,10,6,2,SimpleHill,0-0,0,34,12-50,21-52;19-47;16-45;13-53;19-44;10-57,10-57,2.75,67,-4,1147.01493809
GEMS195,2018_Oct_24_1024,Kramer,AG,1.3,2,GEMS179,10,6,2,SimpleHill,0-0,0,35,10-57,14-49;5-49;5-62;14-48;7-60;11-58,5-62,1.43,56,-11,1152.52346152
GEMS195,2018_Oct_24_1024,Kramer,AG,1.3,2,GEMS179,10,6,2,SimpleHill,0-0,0,36,5-62,1-64;8-54;0-66;11-65;0-58;7-61,11-65,1.8,65,9,1158.39613149
GEMS195,2018_Oct_24_1024,Kramer,AG,1.3,2,GEMS179,10,6,2,SimpleHill,0-0,0,37,11-65,5-62;11-58;14-61;8-65;2-69;12-65,5-62,2.73,56,-9,1165.20626204
GEMS195,2018_Oct_24_1024,Kramer,AG,1.3,2,GEMS179,10,6,2,SimpleHill,0-0,0,38,5-62,10-56;6-65;8-59;14-64;6-68;3-61,6-68,0.65,54,-2,1169.9379673
GEMS195,2018_Oct_24_1024,Kramer,AG,1.3,2,GEMS179,10,6,2,SimpleHill,0-0,0,39,6-68,12-65;12-63;6-59;13-61;10-70;7-66,10-70,1.42,60,6,1175.43367549
GEMS195,2018_Oct_24_1024,Kramer,AG,1.3,2,GEMS179,10,6,2,SimpleHill,0-0,0,40,10-70,11-63;5-64;16-62;15-64;18-65;5-68,5-68,2.87,53,-7,1182.38061115
GEMS195,2018_Oct_24_1024,Kramer,AG,1.3,2,GEMS179,10,6,2,SimpleHill,0-0,0,41,5-68,9-70;4-67;8-66;8-64;0-62;3-68,0-62,2.01,47,-6,1188.45135102
GEMS195,2018_Oct_24_1024,Kramer,AG,1.3,2,GEMS179,10,6,2,SimpleHill,0-0,0,42,0-62,8-59;3-63;2-66;6-67;5-65;1-58,6-67,2.41,55,8,1194.9165278
GEMS195,2018_Oct_24_1024,Kramer,AG,1.3,2,GEMS179,10,6,2,SimpleHill,0-0,0,43,6-67,7-62;2-59;4-70;6-58;8-70;13-67,4-70,3.01,49,-6,1201.99948945
GEMS195,2018_Oct_24_1024,Kramer,AG,1.3,2,GEMS179,10,6,2,SimpleHill,0-0,0,44,4-70,4-60;9-65;4-67;10-68;2-69;11-70,10-68,1.34,61,12,1207.41586329
GEMS195,2018_Oct_24_1024,Kramer,AG,1.3,2,GEMS179,10,6,2,SimpleHill,0-0,0,45,10-68,6-60;6-59;5-69;9-69;8-64;19-67,9-69,0.83,59,-2,1212.3076748
GEMS195,2018_Oct_24_1024,Kramer,AG,1.3,2,GEMS179,10,6,2,SimpleHill,0-0,0,46,9-69,9-62;10-66;14-65;15-69;6-62;6-64,15-69,1.89,68,9,1218.27907867
GEMS195,2018_Oct_24_1024,Kramer,AG,1.3,2,GEMS179,10,6,2,SimpleHill,0-0,0,47,15-69,23-66;14-70;18-61;20-67;10-67;18-67,14-70,4.16,66,-2,1226.50492239
GEMS195,2018_Oct_24_1024,Kramer,AG,1.3,2,GEMS179,10,6,2,SimpleHill,0-0,0,48,14-70,10-70;21-63;17-63;19-62;12-68;16-64,19-62,1.49,77,11,1232.06704952
GEMS195,2018_Oct_24_1024,Kramer,AG,1.3,2,GEMS179,10,6,2,SimpleHill,0-0,0,49,19-62,23-61;15-59;17-58;25-62;20-65;24-54,20-65,1.44,77,0,1237.58023542
GEMS195,2018_Oct_24_1024,Kramer,AG,1.3,2,GEMS179,10,6,2,SimpleHill,0-0,0,50,20-65,19-60;12-67;15-67;19-64;22-61;23-69,19-64,2.7,76,-1,1244.33997761
GEMS195,2018_Oct_24_1024,Kramer,AG,1.3,2,GEMS179,10,6,2,SimpleHill,0-0,0,51,19-64,22-66;21-70;27-65;15-56;24-69;26-68,24-69,2.84,79,3,1251.26519497
GEMS195,2018_Oct_24_1024,Kramer,AG,1.3,2,GEMS179,10,6,2,SimpleHill,0-0,0,52,24-69,21-63;21-67;20-66;25-64;16-65;18-69,20-66,1.65,76,-3,1256.97747187
GEMS195,2018_Oct_24_1024,Kramer,AG,1.3,2,GEMS179,10,6,2,SimpleHill,0-0,0,53,20-66,26-60;20-67;19-60;18-67;19-65;22-64,18-67,5.36,73,-3,1266.40868104
GEMS195,2018_Oct_24_1024,Kramer,AG,1.3,2,GEMS179,10,6,2,SimpleHill,0-0,0,54,18-67,17-70;14-68;9-64;18-68;19-58;14-64,14-68,1.99,67,-6,1272.47753365
GEMS195,2018_Oct_24_1024,Kramer,AG,1.3,2,GEMS179,10,6,2,SimpleHill,0-0,0,55,14-68,13-65;10-69;15-63;7-69;13-70;9-62,7-69,1.02,55,-12,1277.57533064
GEMS195,2018_Oct_24_1024,Kramer,AG,1.3,2,GEMS179,10,6,2,SimpleHill,0-0,0,56,7-69,4-69;2-70;8-66;9-70;3-70;11-60,9-70,0.8,58,3,1282.4524102
GEMS195,2018_Oct_24_1024,Kramer,AG,1.3,2,GEMS179,10,6,2,SimpleHill,0-0,0,57,9-70,12-68;15-66;18-70;10-69;14-69;2-68,10-69,0.22,60,2,1286.74382717
GEMS195,2018_Oct_24_1024,Kramer,AG,1.3,2,GEMS179,10,6,2,SimpleHill,0-0,0,58,10-69,2-64;6-62;8-67;15-66;4-67;15-67,15-66,0.5,70,10,1291.31030916
GEMS195,2018_Oct_24_1024,Kramer,AG,1.3,2,GEMS179,10,6,2,SimpleHill,0-0,0,59,15-66,22-64;23-66;15-66;20-68;17-62;9-60,20-68,0.25,75,5,1295.6181565
GEMS195,2018_Oct_24_1024,Kramer,AG,1.3,2,GEMS179,10,6,2,SimpleHill,0-0,0,60,20-68,14-69;28-68;16-69;28-67;17-63;29-66,28-67,0.19,84,9,1299.87406493
GEMS195,2018_Oct_24_1024,Kramer,AG,1.3,2,GEMS179,10,6,2,SimpleHill,0-0,0,61,28-67,34-61;23-67;37-63;29-63;22-69;25-66,29-63,0.2,87,3,1304.13159463
GEMS195,2018_Oct_24_1024,Kramer,AG,1.3,2,GEMS179,10,6,2,SimpleHill,0-0,0,62,29-63,27-55;38-66;20-65;37-69;27-60;20-60,37-69,0.22,89,2,1308.44252158
GEMS195,2018_Oct_24_1024,Kramer,AG,1.3,2,GEMS179,10,6,2,SimpleHill,0-0,0,63,37-69,36-62;38-66;37-67;33-65;37-68;38-70,33-65,0.18,89,0,1312.71492983
GEMS195,2018_Oct_24_1024,Kramer,AG,1.3,2,GEMS179,10,6,2,SimpleHill,0-0,0,64,33-65,28-67;24-69;42-69;25-59;26-67;27-59,25-59,0.2,85,-4,1316.98043881
GEMS195,2018_Oct_24_1024,Kramer,AG,1.3,2,GEMS179,10,6,2,SimpleHill,0-0,0,65,25-59,25-69;27-51;30-57;31-66;30-65;29-64,29-64,0.17,87,2,1321.23250325
GEMS195,2018_Oct_24_1024,Kramer,AG,1.3,2,GEMS179,10,6,2,SimpleHill,0-0,0,66,29-64,20-65;22-57;29-64;34-61;37-65;37-59,37-59,0.22,95,8,1325.50316252
GEMS195,2018_Oct_24_1024,Kramer,AG,1.3,2,GEMS179,10,6,2,SimpleHill,0-0,0,67,37-59,35-57;38-63;28-63;46-57;40-52;43-60,43-60,0.36,97,2,1330.05472979
GEMS195,2018_Oct_24_1024,Kramer,AG,1.3,2,GEMS179,10,6,2,SimpleHill,0-0,0,68,43-60,42-69;52-59;42-59;41-59;37-55;37-66,37-66,0.29,91,-6,1334.42081544
GEMS195,2018_Oct_24_1024,Kramer,AG,1.3,2,GEMS179,10,6,2,SimpleHill,0-0,0,69,37-66,42-60;44-62;39-62;39-63;33-62;31-67,44-62,0.18,96,5,1338.65518451
GEMS195,2018_Oct_24_1024,Kramer,AG,1.3,2,GEMS179,10,6,2,SimpleHill,0-0,0,70,44-62,37-58;52-66;41-54;45-63;40-55;43-65,52-66,0.52,94,-2,1343.25610241
GEMS195,2018_Oct_24_1024,Kramer,AG,1.3,2,GEMS179,10,6,2,SimpleHill,0-0,0,71,52-66,54-60;55-70;48-61;49-58;50-66;52-63,55-70,0.21,91,-3,1347.5425669
GEMS195,2018_Oct_24_1024,Kramer,AG,1.3,2,GEMS179,10,6,2,SimpleHill,0-0,0,72,55-70,60-69;58-62;47-67;55-64;54-61;59-64,55-64,0.41,95,4,1352.03126122
GEMS195,2018_Oct_24_1024,Kramer,AG,1.3,2,GEMS179,10,6,2,SimpleHill,0-0,0,73,55-64,52-63;62-58;50-59;64-67;61-62;46-60,64-67,0.18,90,-5,1356.28841386
GEMS195,2018_Oct_24_1024,Kramer,AG,1.3,2,GEMS179,10,6,2,SimpleHill,0-0,0,74,64-67,66-65;64-67;70-62;60-70;56-65;57-60,57-60,0.25,97,7,1360.58852519
GEMS195,2018_Oct_24_1024,Kramer,AG,1.3,2,GEMS179,10,6,2,SimpleHill,0-0,0,75,57-60,65-58;56-56;51-63;62-63;55-63;48-59,56-56,0.36,98,1,1365.02905482
GEMS195,2018_Oct_24_1024,Kramer,AG,1.3,2,GEMS179,10,6,2,SimpleHill,0-0,0,76,56-56,63-62;49-52;56-54;58-55;57-47;47-55,58-55,0.21,98,0,1369.3026327
GEMS195,2018_Oct_24_1024,Kramer,AG,1.3,2,GEMS179,10,6,2,SimpleHill,0-0,0,77,58-55,53-50;60-60;54-62;59-63;62-64;59-52,59-52,0.21,98,0,1373.56625313
GEMS195,2018_Oct_24_1024,Kramer,AG,1.3,2,GEMS179,10,6,2,SimpleHill,0-0,0,78,59-52,52-53;65-48;59-55;53-50;64-52;53-53,65-48,0.2,95,-3,1377.84163569
GEMS195,2018_Oct_24_1024,Kramer,AG,1.3,2,GEMS179,10,6,2,SimpleHill,0-0,0,79,65-48,61-45;61-52;60-42;62-54;66-49;61-41,61-45,0.49,97,2,1382.39026995
