subj_id,date,computer,experimenter,version,generation,inherit_from,sight_radius,n_gabors,block_ix,landscape_ix,landscape_name,starting_pos,starting_score,trial,pos,stims,selected,rt,score,delta,exp_time
GEMS284,2018_Nov_15_1724,Elaine,AG,1.5,2,GEMS000,10,6,1,1,SimpleHill,0-0,1,0,0-0,10-0;7-1;5-7;6-8;0-2;1-2,5-7,18.8,23,22,221.673624195
GEMS284,2018_Nov_15_1724,Elaine,AG,1.5,2,GEMS000,10,6,1,1,SimpleHill,0-0,1,1,5-7,7-2;0-5;3-2;3-6;1-8;5-5,5-5,5.06,20,-3,230.83501798
GEMS284,2018_Nov_15_1724,Elaine,AG,1.5,2,GEMS000,10,6,1,1,SimpleHill,0-0,1,2,5-5,12-9;14-8;4-6;14-7;6-3;8-11,14-7,1.95,38,18,236.84180713900003
GEMS284,2018_Nov_15_1724,Elaine,AG,1.5,2,GEMS000,10,6,1,1,SimpleHill,0-0,1,3,14-7,20-8;5-4;16-2;11-10;20-4;10-0,20-8,7.59,47,9,248.52474986400003
GEMS284,2018_Nov_15_1724,Elaine,AG,1.5,2,GEMS000,10,6,1,1,SimpleHill,0-0,1,4,20-8,11-7;19-17;12-13;17-3;23-10;22-4,11-7,3.05,33,-14,255.648979001
GEMS284,2018_Nov_15_1724,Elaine,AG,1.5,2,GEMS000,10,6,1,1,SimpleHill,0-0,1,5,11-7,8-15;15-13;19-13;5-9;11-16;7-9,19-13,3.02,54,21,262.749679748
GEMS284,2018_Nov_15_1724,Elaine,AG,1.5,2,GEMS000,10,6,1,1,SimpleHill,0-0,1,6,19-13,11-13;15-6;17-15;21-6;20-5;26-18,21-6,4.55,45,-9,271.37589986
GEMS284,2018_Nov_15_1724,Elaine,AG,1.5,2,GEMS000,10,6,1,1,SimpleHill,0-0,1,7,21-6,27-4;25-3;19-3;20-1;24-7;13-3,27-4,2.89,48,3,278.350474921
GEMS284,2018_Nov_15_1724,Elaine,AG,1.5,2,GEMS000,10,6,1,1,SimpleHill,0-0,1,8,27-4,24-11;32-8;36-0;23-11;35-3;28-9,36-0,4.48,47,-1,286.902275473
GEMS284,2018_Nov_15_1724,Elaine,AG,1.5,2,GEMS000,10,6,1,1,SimpleHill,0-0,1,9,36-0,31-1;32-8;43-3;36-6;37-3;38-7,32-8,3.6,59,12,294.56894886099997
GEMS284,2018_Nov_15_1724,Elaine,AG,1.5,2,GEMS000,10,6,1,1,SimpleHill,0-0,1,10,32-8,25-9;35-17;28-16;35-10;37-8;39-4,28-16,2.63,68,9,301.275218639
GEMS284,2018_Nov_15_1724,Elaine,AG,1.5,2,GEMS000,10,6,1,1,SimpleHill,0-0,1,11,28-16,33-21;26-22;23-15;32-20;35-21;29-18,29-18,3.17,71,3,308.509850843
GEMS284,2018_Nov_15_1724,Elaine,AG,1.5,2,GEMS000,10,6,1,1,SimpleHill,0-0,1,12,29-18,21-15;33-14;36-22;26-10;25-22;37-15,36-22,2.79,81,10,315.36198320299997
GEMS284,2018_Nov_15_1724,Elaine,AG,1.5,2,GEMS000,10,6,1,1,SimpleHill,0-0,1,13,36-22,29-29;40-14;28-23;44-21;34-13;35-30,40-14,2.61,73,-8,322.034650962
GEMS284,2018_Nov_15_1724,Elaine,AG,1.5,2,GEMS000,10,6,1,1,SimpleHill,0-0,1,14,40-14,40-22;49-14;46-18;44-20;35-9;38-11,46-18,3.21,80,7,329.325152092
GEMS284,2018_Nov_15_1724,Elaine,AG,1.5,2,GEMS000,10,6,1,1,SimpleHill,0-0,1,15,46-18,38-23;45-26;51-14;47-21;40-12;52-25,51-14,6.91,75,-5,340.31039071099997
GEMS284,2018_Nov_15_1724,Elaine,AG,1.5,2,GEMS000,10,6,1,1,SimpleHill,0-0,1,16,51-14,54-21;53-20;44-12;59-11;46-19;46-7,44-12,1.55,71,-4,345.935572764
GEMS284,2018_Nov_15_1724,Elaine,AG,1.5,2,GEMS000,10,6,1,1,SimpleHill,0-0,1,17,44-12,43-20;39-15;44-17;44-9;53-9;40-16,40-16,2.76,75,4,352.759784104
GEMS284,2018_Nov_15_1724,Elaine,AG,1.5,2,GEMS000,10,6,1,1,SimpleHill,0-0,1,18,40-16,34-22;38-17;36-10;33-16;39-10;48-10,36-10,1.57,65,-10,358.405642205
GEMS284,2018_Nov_15_1724,Elaine,AG,1.5,2,GEMS000,10,6,1,1,SimpleHill,0-0,1,19,36-10,42-2;41-14;30-18;36-13;35-6;31-13,30-18,4.72,72,7,367.201578824
GEMS284,2018_Nov_15_1724,Elaine,AG,1.5,2,GEMS000,10,6,1,1,SimpleHill,0-0,1,20,30-18,26-15;26-27;34-10;29-20;39-18;36-26,26-27,2.73,78,6,374.02345381
GEMS284,2018_Nov_15_1724,Elaine,AG,1.5,2,GEMS000,10,6,1,1,SimpleHill,0-0,1,21,26-27,25-27;33-24;26-29;18-29;23-19;25-29,26-29,1.91,80,2,379.99968086800004
GEMS284,2018_Nov_15_1724,Elaine,AG,1.5,2,GEMS000,10,6,1,1,SimpleHill,0-0,1,22,26-29,33-24;27-36;25-34;27-35;30-22;22-23,30-22,3.21,77,-3,387.29064741199994
GEMS284,2018_Nov_15_1724,Elaine,AG,1.5,2,GEMS000,10,6,1,1,SimpleHill,0-0,1,23,30-22,36-29;35-14;25-29;26-20;30-25;32-16,25-29,1.67,79,2,393.033131163
GEMS284,2018_Nov_15_1724,Elaine,AG,1.5,2,GEMS000,10,6,1,1,SimpleHill,0-0,1,24,25-29,27-31;30-31;30-27;22-37;23-31;17-25,30-27,2.08,82,3,399.18444683900003
GEMS284,2018_Nov_15_1724,Elaine,AG,1.5,2,GEMS000,10,6,1,1,SimpleHill,0-0,1,25,30-27,24-29;27-21;35-23;29-30;23-26;23-25,23-26,17.27,74,-8,420.515543046
GEMS284,2018_Nov_15_1724,Elaine,AG,1.5,2,GEMS000,10,6,1,1,SimpleHill,0-0,1,26,23-26,20-34;24-19;25-18;28-26;27-17;22-34,28-26,1.13,79,5,425.715803409
GEMS284,2018_Nov_15_1724,Elaine,AG,1.5,2,GEMS000,10,6,1,1,SimpleHill,0-0,1,27,28-26,22-25;31-34;30-19;19-27;36-23;33-28,31-34,1.77,88,9,431.55553539
GEMS284,2018_Nov_15_1724,Elaine,AG,1.5,2,GEMS000,10,6,1,1,SimpleHill,0-0,1,28,31-34,29-25;28-27;36-40;23-36;23-29;26-34,36-40,1.39,95,7,437.00578407
GEMS284,2018_Nov_15_1724,Elaine,AG,1.5,2,GEMS000,10,6,1,1,SimpleHill,0-0,1,29,36-40,30-44;29-42;29-41;35-37;30-47;36-41,30-47,1.47,92,-3,442.529019576
GEMS284,2018_Nov_15_1724,Elaine,AG,1.5,2,GEMS000,10,6,1,1,SimpleHill,0-0,1,30,30-47,31-50;25-40;27-52;27-49;25-47;28-51,25-40,1.37,86,-6,447.98514355199995
GEMS284,2018_Nov_15_1724,Elaine,AG,1.5,2,GEMS000,10,6,1,1,SimpleHill,0-0,1,31,25-40,22-44;27-41;25-31;28-39;19-41;24-46,22-44,1.58,84,-2,453.645999901
GEMS284,2018_Nov_15_1724,Elaine,AG,1.5,2,GEMS000,10,6,1,1,SimpleHill,0-0,1,32,22-44,29-44;27-44;15-43;28-51;25-43;24-48,28-51,2.59,91,7,460.30625863800003
GEMS284,2018_Nov_15_1724,Elaine,AG,1.5,2,GEMS000,10,6,1,1,SimpleHill,0-0,1,33,28-51,24-44;32-54;26-54;31-59;28-44;21-50,31-59,3.76,92,1,468.147238339
GEMS284,2018_Nov_15_1724,Elaine,AG,1.5,2,GEMS000,10,6,1,1,SimpleHill,0-0,1,34,31-59,24-53;25-63;37-54;25-59;22-60;41-59,37-54,1.0,97,5,473.233698495
GEMS284,2018_Nov_15_1724,Elaine,AG,1.5,2,GEMS000,10,6,1,1,SimpleHill,0-0,1,35,37-54,43-53;32-53;46-53;38-54;44-52;28-54,44-52,1.33,100,3,478.640892507
GEMS284,2018_Nov_15_1724,Elaine,AG,1.5,2,GEMS000,10,6,1,1,SimpleHill,0-0,1,36,44-52,44-45;50-54;49-49;45-47;44-49;50-56,50-54,5.41,100,0,488.12105638199995
GEMS284,2018_Nov_15_1724,Elaine,AG,1.5,2,GEMS000,10,6,1,1,SimpleHill,0-0,1,37,50-54,47-54;41-51;51-56;56-49;56-53;57-50,51-56,4.39,100,0,496.589925156
GEMS284,2018_Nov_15_1724,Elaine,AG,1.5,2,GEMS000,10,6,1,1,SimpleHill,0-0,1,38,51-56,55-57;59-55;52-50;52-57;55-59;51-49,52-57,3.88,99,-1,504.545189363
GEMS284,2018_Nov_15_1724,Elaine,AG,1.5,2,GEMS000,10,6,1,1,SimpleHill,0-0,1,39,52-57,56-56;44-53;52-49;52-52;53-61;52-56,53-61,1.44,98,-1,510.073500255
GEMS284,2018_Nov_15_1724,Elaine,AG,1.5,2,GEMS000,10,6,1,1,SimpleHill,0-0,1,40,53-61,44-65;57-54;60-55;55-54;48-56;56-58,57-54,1.08,99,1,515.2138684509999
GEMS284,2018_Nov_15_1724,Elaine,AG,1.5,2,GEMS000,10,6,1,1,SimpleHill,0-0,1,41,57-54,55-49;56-57;52-51;50-49;59-63;65-53,56-57,1.38,99,0,520.671241107
GEMS284,2018_Nov_15_1724,Elaine,AG,1.5,2,GEMS000,10,6,1,1,SimpleHill,0-0,1,42,56-57,57-62;50-57;53-54;49-60;50-61;56-61,56-61,0.6,97,-2,525.350521655
GEMS284,2018_Nov_15_1724,Elaine,AG,1.5,2,GEMS000,10,6,1,1,SimpleHill,0-0,1,43,56-61,55-64;61-66;60-62;51-53;63-61;51-61,51-53,0.93,100,3,530.345126497
GEMS284,2018_Nov_15_1724,Elaine,AG,1.5,2,GEMS000,10,6,1,1,SimpleHill,0-0,1,44,51-53,47-53;54-53;50-44;55-57;57-45;48-59,55-57,3.02,99,-1,537.438532658
GEMS284,2018_Nov_15_1724,Elaine,AG,1.5,2,GEMS000,10,6,1,1,SimpleHill,0-0,1,45,55-57,47-52;60-64;62-52;56-65;57-54;54-50,54-50,0.81,100,1,542.316304098
GEMS284,2018_Nov_15_1724,Elaine,AG,1.5,2,GEMS000,10,6,1,1,SimpleHill,0-0,1,46,54-50,62-49;50-45;59-48;45-53;57-50;54-58,59-48,2.12,99,-1,548.513381783
GEMS284,2018_Nov_15_1724,Elaine,AG,1.5,2,GEMS000,10,6,1,1,SimpleHill,0-0,1,47,59-48,67-52;63-40;55-56;60-44;51-51;50-46,63-40,1.14,95,-4,553.724753833
GEMS284,2018_Nov_15_1724,Elaine,AG,1.5,2,GEMS000,10,6,1,1,SimpleHill,0-0,1,48,63-40,68-45;59-37;62-44;61-34;69-46;68-43,69-46,0.86,93,-2,558.661285273
GEMS284,2018_Nov_15_1724,Elaine,AG,1.5,2,GEMS000,10,6,1,1,SimpleHill,0-0,1,49,69-46,65-43;69-46;66-49;66-52;68-48;68-54,69-46,1.04,93,0,563.768819032
GEMS284,2018_Nov_15_1724,Elaine,AG,1.5,2,GEMS000,10,6,1,1,SimpleHill,0-0,1,50,69-46,68-48;63-47;67-40;66-42;66-52;60-43,63-47,7.26,97,4,575.088911423
GEMS284,2018_Nov_15_1724,Elaine,AG,1.5,2,GEMS000,10,6,1,1,SimpleHill,0-0,1,51,63-47,56-40;69-52;62-38;65-42;59-42;61-52,62-38,3.51,95,-2,582.664639201
GEMS284,2018_Nov_15_1724,Elaine,AG,1.5,2,GEMS000,10,6,1,1,SimpleHill,0-0,1,52,62-38,65-39;69-35;58-46;60-42;60-32;65-34,69-35,2.06,89,-6,588.799844307
GEMS284,2018_Nov_15_1724,Elaine,AG,1.5,2,GEMS000,10,6,1,1,SimpleHill,0-0,1,53,69-35,70-30;69-25;70-29;70-26;67-34;70-35,67-34,0.9,90,1,593.83848554
GEMS284,2018_Nov_15_1724,Elaine,AG,1.5,2,GEMS000,10,6,1,1,SimpleHill,0-0,1,54,67-34,62-39;69-32;58-32;67-28;58-34;61-31,61-31,0.37,91,1,598.296905539
GEMS284,2018_Nov_15_1724,Elaine,AG,1.5,2,GEMS000,10,6,1,1,SimpleHill,0-0,1,55,61-31,64-34;69-28;53-28;56-30;65-38;56-35,65-38,1.03,93,2,603.399933037
GEMS284,2018_Nov_15_1724,Elaine,AG,1.5,2,GEMS000,10,6,1,1,SimpleHill,0-0,1,56,65-38,68-29;67-43;67-32;62-46;57-37;58-36,62-46,1.69,97,4,609.170962307
GEMS284,2018_Nov_15_1724,Elaine,AG,1.5,2,GEMS000,10,6,1,1,SimpleHill,0-0,1,57,62-46,56-53;66-51;65-49;57-38;65-43;67-45,57-38,2.11,97,0,615.3446402769999
GEMS284,2018_Nov_15_1724,Elaine,AG,1.5,2,GEMS000,10,6,1,1,SimpleHill,0-0,1,58,57-38,51-40;52-31;59-29;64-34;51-37;65-42,59-29,2.53,90,-7,621.940695842
GEMS284,2018_Nov_15_1724,Elaine,AG,1.5,2,GEMS000,10,6,1,1,SimpleHill,0-0,1,59,59-29,57-31;55-25;65-23;52-22;62-36;61-22,57-31,0.57,92,2,626.591467041
GEMS284,2018_Nov_15_1724,Elaine,AG,1.5,2,GEMS000,10,6,1,1,SimpleHill,0-0,1,60,57-31,52-39;61-35;49-37;49-36;59-24;60-28,49-36,1.63,97,5,632.2875453969999
GEMS284,2018_Nov_15_1724,Elaine,AG,1.5,2,GEMS000,10,6,1,1,SimpleHill,0-0,1,61,49-36,58-38;50-30;49-36;43-42;55-29;57-40,50-30,1.19,93,-4,637.550792261
GEMS284,2018_Nov_15_1724,Elaine,AG,1.5,2,GEMS000,10,6,1,1,SimpleHill,0-0,1,62,50-30,46-26;58-24;43-36;46-35;45-37;51-29,51-29,1.71,92,-1,643.336289707
GEMS284,2018_Nov_15_1724,Elaine,AG,1.5,2,GEMS000,10,6,1,1,SimpleHill,0-0,1,63,51-29,50-21;56-24;60-29;51-33;43-24;52-34,56-24,5.03,86,-6,652.438529777
GEMS284,2018_Nov_15_1724,Elaine,AG,1.5,2,GEMS000,10,6,1,1,SimpleHill,0-0,1,64,56-24,54-29;56-26;63-17;58-23;64-22;57-19,63-17,0.76,75,-11,657.280748235
GEMS284,2018_Nov_15_1724,Elaine,AG,1.5,2,GEMS000,10,6,1,1,SimpleHill,0-0,1,65,63-17,69-21;68-9;69-20;69-17;69-13;70-15,68-9,2.77,60,-15,664.116252755
GEMS284,2018_Nov_15_1724,Elaine,AG,1.5,2,GEMS000,10,6,1,1,SimpleHill,0-0,1,66,68-9,60-8;65-13;61-5;68-0;68-1;67-5,67-5,23.11,54,-6,691.287787067
GEMS284,2018_Nov_15_1724,Elaine,AG,1.5,2,GEMS000,10,6,1,1,SimpleHill,0-0,1,67,67-5,68-13;67-0;59-11;58-6;67-6;65-14,58-6,1.5,61,7,696.8635631789999
GEMS284,2018_Nov_15_1724,Elaine,AG,1.5,2,GEMS000,10,6,1,1,SimpleHill,0-0,1,68,58-6,49-3;60-11;55-0;64-9;67-6;58-15,58-15,4.59,75,14,705.513142033
GEMS284,2018_Nov_15_1724,Elaine,AG,1.5,2,GEMS000,10,6,1,1,SimpleHill,0-0,1,69,58-15,52-16;56-11;58-7;66-17;50-12;63-11,56-11,3.35,69,-6,712.934115063
GEMS284,2018_Nov_15_1724,Elaine,AG,1.5,2,GEMS000,10,6,1,1,SimpleHill,0-0,1,70,56-11,59-8;53-6;56-21;60-5;58-10;62-11,60-5,0.9,58,-11,717.89765718
GEMS284,2018_Nov_15_1724,Elaine,AG,1.5,2,GEMS000,10,6,1,1,SimpleHill,0-0,1,71,60-5,63-9;52-8;60-0;60-9;59-7;59-1,60-0,2.61,49,-9,724.579597695
GEMS284,2018_Nov_15_1724,Elaine,AG,1.5,2,GEMS000,10,6,1,1,SimpleHill,0-0,1,72,60-0,56-4;53-7;63-2;55-2;56-1;59-5,55-2,0.61,54,5,729.260405083
GEMS284,2018_Nov_15_1724,Elaine,AG,1.5,2,GEMS000,10,6,1,1,SimpleHill,0-0,1,73,55-2,54-0;53-11;49-8;57-1;51-0;54-2,57-1,0.73,52,-2,734.064386905
GEMS284,2018_Nov_15_1724,Elaine,AG,1.5,2,GEMS000,10,6,1,1,SimpleHill,0-0,1,74,57-1,56-7;61-3;64-2;63-9;58-0;62-3,62-3,4.85,53,1,742.9918318819998
GEMS284,2018_Nov_15_1724,Elaine,AG,1.5,2,GEMS000,10,6,1,1,SimpleHill,0-0,1,75,62-3,59-8;62-0;60-3;65-5;62-12;69-3,62-12,3.28,69,16,750.349381165
GEMS284,2018_Nov_15_1724,Elaine,AG,1.5,2,GEMS000,10,6,1,1,SimpleHill,0-0,1,76,62-12,58-17;64-13;60-11;61-6;54-7;66-15,60-11,2.72,68,-1,757.144426327
GEMS284,2018_Nov_15_1724,Elaine,AG,1.5,2,GEMS000,10,6,1,1,SimpleHill,0-0,1,77,60-11,57-5;56-14;57-7;66-14;56-17;53-11,56-14,1.92,74,6,763.1475043360001
GEMS284,2018_Nov_15_1724,Elaine,AG,1.5,2,GEMS000,10,6,1,1,SimpleHill,0-0,1,78,56-14,57-17;56-15;49-7;51-13;60-9;65-18,49-7,1.37,64,-10,768.595266218
GEMS284,2018_Nov_15_1724,Elaine,AG,1.5,2,GEMS000,10,6,1,1,SimpleHill,0-0,1,79,49-7,50-0;43-12;53-1;54-10;44-5;55-7,53-1,1.13,52,-12,773.7898475019998
GEMS284,2018_Nov_15_1724,Elaine,AG,1.5,2,GEMS000,10,6,2,1,SimpleHill,0-0,1,0,0-0,7-5;2-9;3-3;6-8;0-1;5-6,3-3,4.23,12,11,883.4785634130002
GEMS284,2018_Nov_15_1724,Elaine,AG,1.5,2,GEMS000,10,6,2,1,SimpleHill,0-0,1,1,3-3,0-6;3-3;5-8;12-2;4-0;3-8,0-6,2.41,12,0,889.9538990130002
GEMS284,2018_Nov_15_1724,Elaine,AG,1.5,2,GEMS000,10,6,2,1,SimpleHill,0-0,1,2,0-6,4-15;8-1;0-4;8-7;9-8;0-13,8-1,2.31,17,5,896.342105145
GEMS284,2018_Nov_15_1724,Elaine,AG,1.5,2,GEMS000,10,6,2,1,SimpleHill,0-0,1,3,8-1,16-7;5-1;4-1;12-0;4-4;4-10,12-0,1.86,22,5,902.26565844
GEMS284,2018_Nov_15_1724,Elaine,AG,1.5,2,GEMS000,10,6,2,1,SimpleHill,0-0,1,4,12-0,13-0;12-2;17-0;10-2;14-5;10-1,13-0,8.95,23,1,915.2877608189999
GEMS284,2018_Nov_15_1724,Elaine,AG,1.5,2,GEMS000,10,6,2,1,SimpleHill,0-0,1,5,13-0,4-2;8-0;8-5;13-6;4-3;6-1,6-1,4.89,14,-9,924.24566963
GEMS284,2018_Nov_15_1724,Elaine,AG,1.5,2,GEMS000,10,6,2,1,SimpleHill,0-0,1,6,6-1,8-7;5-8;1-5;11-1;5-6;5-7,11-1,6.17,22,8,934.490812388
GEMS284,2018_Nov_15_1724,Elaine,AG,1.5,2,GEMS000,10,6,2,1,SimpleHill,0-0,1,7,11-1,5-9;6-0;4-8;6-2;14-2;18-2,6-0,2.6,12,-10,941.1646728110001
GEMS284,2018_Nov_15_1724,Elaine,AG,1.5,2,GEMS000,10,6,2,1,SimpleHill,0-0,1,8,6-0,9-5;5-1;3-0;4-4;11-4;5-2,11-4,5.29,28,16,950.504966233
GEMS284,2018_Nov_15_1724,Elaine,AG,1.5,2,GEMS000,10,6,2,1,SimpleHill,0-0,1,9,11-4,12-11;4-10;7-9;16-10;20-1;3-10,3-10,8.72,24,-4,963.289380167
GEMS284,2018_Nov_15_1724,Elaine,AG,1.5,2,GEMS000,10,6,2,1,SimpleHill,0-0,1,10,3-10,7-18;10-4;5-11;0-2;5-5;3-5,5-11,0.3,30,6,967.663816564
GEMS284,2018_Nov_15_1724,Elaine,AG,1.5,2,GEMS000,10,6,2,1,SimpleHill,0-0,1,11,5-11,13-8;6-15;2-12;5-9;3-2;2-9,5-9,0.25,26,-4,972.001530042
GEMS284,2018_Nov_15_1724,Elaine,AG,1.5,2,GEMS000,10,6,2,1,SimpleHill,0-0,1,12,5-9,1-14;9-6;1-8;13-4;9-11;2-15,1-8,0.59,17,-9,976.676500865
GEMS284,2018_Nov_15_1724,Elaine,AG,1.5,2,GEMS000,10,6,2,1,SimpleHill,0-0,1,13,1-8,1-3;0-8;2-17;0-15;1-4;0-17,1-4,0.69,10,-7,981.437834216
GEMS284,2018_Nov_15_1724,Elaine,AG,1.5,2,GEMS000,10,6,2,1,SimpleHill,0-0,1,14,1-4,0-11;1-6;2-8;4-6;7-12;10-4,0-11,0.87,20,10,986.377197834
GEMS284,2018_Nov_15_1724,Elaine,AG,1.5,2,GEMS000,10,6,2,1,SimpleHill,0-0,1,15,0-11,0-20;3-4;1-7;8-14;1-19;6-8,8-14,0.54,39,19,990.974663087
GEMS284,2018_Nov_15_1724,Elaine,AG,1.5,2,GEMS000,10,6,2,1,SimpleHill,0-0,1,16,8-14,1-19;3-13;7-11;0-9;1-13;13-22,7-11,0.48,33,-6,995.514218824
GEMS284,2018_Nov_15_1724,Elaine,AG,1.5,2,GEMS000,10,6,2,1,SimpleHill,0-0,1,17,7-11,12-5;10-10;6-15;10-11;3-20;3-15,3-20,0.39,38,5,999.981909018
GEMS284,2018_Nov_15_1724,Elaine,AG,1.5,2,GEMS000,10,6,2,1,SimpleHill,0-0,1,18,3-20,4-15;9-21;9-18;2-28;7-22;3-13,9-21,0.84,50,12,1004.90451644
GEMS284,2018_Nov_15_1724,Elaine,AG,1.5,2,GEMS000,10,6,2,1,SimpleHill,0-0,1,19,9-21,14-25;1-19;11-15;1-23;11-20;0-19,0-19,0.32,31,-19,1009.29125655
GEMS284,2018_Nov_15_1724,Elaine,AG,1.5,2,GEMS000,10,6,2,1,SimpleHill,0-0,1,20,0-19,9-17;9-23;2-19;1-24;6-27;7-21,2-19,0.22,35,4,1013.57860381
GEMS284,2018_Nov_15_1724,Elaine,AG,1.5,2,GEMS000,10,6,2,1,SimpleHill,0-0,1,21,2-19,11-22;6-26;5-19;7-12;6-12;3-24,6-12,0.32,33,-2,1017.97752215
GEMS284,2018_Nov_15_1724,Elaine,AG,1.5,2,GEMS000,10,6,2,1,SimpleHill,0-0,1,22,6-12,0-11;7-5;5-6;7-7;6-20;9-5,5-6,0.44,21,-12,1022.488759
GEMS284,2018_Nov_15_1724,Elaine,AG,1.5,2,GEMS000,10,6,2,1,SimpleHill,0-0,1,23,5-6,5-9;4-5;11-12;9-3;5-14;0-7,11-12,0.28,41,20,1026.84413453
GEMS284,2018_Nov_15_1724,Elaine,AG,1.5,2,GEMS000,10,6,2,1,SimpleHill,0-0,1,24,11-12,7-9;6-12;11-18;5-6;14-13;4-14,6-12,27.23,33,-8,1058.16061596
GEMS284,2018_Nov_15_1724,Elaine,AG,1.5,2,GEMS000,10,6,2,1,SimpleHill,0-0,1,25,6-12,10-5;11-19;7-17;6-22;4-11;14-8,7-17,0.31,42,9,1062.54974588
GEMS284,2018_Nov_15_1724,Elaine,AG,1.5,2,GEMS000,10,6,2,1,SimpleHill,0-0,1,26,7-17,12-19;12-22;11-13;14-12;1-20;11-9,11-13,0.24,43,1,1066.87068619
GEMS284,2018_Nov_15_1724,Elaine,AG,1.5,2,GEMS000,10,6,2,1,SimpleHill,0-0,1,27,11-13,18-9;10-13;7-13;7-9;16-7;14-5,7-13,0.32,36,-7,1071.26926876
GEMS284,2018_Nov_15_1724,Elaine,AG,1.5,2,GEMS000,10,6,2,1,SimpleHill,0-0,1,28,7-13,16-14;10-17;2-8;14-8;12-12;9-9,2-8,0.54,19,-17,1075.88075598
GEMS284,2018_Nov_15_1724,Elaine,AG,1.5,2,GEMS000,10,6,2,1,SimpleHill,0-0,1,29,2-8,8-3;6-9;11-8;4-2;3-9;0-3,11-8,0.4,35,16,1080.35013498
GEMS284,2018_Nov_15_1724,Elaine,AG,1.5,2,GEMS000,10,6,2,1,SimpleHill,0-0,1,30,11-8,2-9;10-7;3-9;3-11;11-11;6-15,3-11,0.77,26,-9,1085.19835325
GEMS284,2018_Nov_15_1724,Elaine,AG,1.5,2,GEMS000,10,6,2,1,SimpleHill,0-0,1,31,3-11,4-12;2-15;7-19;8-16;1-16;3-13,4-12,0.76,29,3,1090.04159889
GEMS284,2018_Nov_15_1724,Elaine,AG,1.5,2,GEMS000,10,6,2,1,SimpleHill,0-0,1,32,4-12,2-18;6-16;6-7;7-7;9-6;7-10,9-6,0.69,28,-1,1094.81593055
GEMS284,2018_Nov_15_1724,Elaine,AG,1.5,2,GEMS000,10,6,2,1,SimpleHill,0-0,1,33,9-6,5-5;13-8;3-2;18-10;10-13;10-4,3-2,0.93,10,-18,1099.82814207
GEMS284,2018_Nov_15_1724,Elaine,AG,1.5,2,GEMS000,10,6,2,1,SimpleHill,0-0,1,34,3-2,6-5;11-2;8-9;3-8;0-0;7-0,11-2,1.24,24,14,1105.15385945
GEMS284,2018_Nov_15_1724,Elaine,AG,1.5,2,GEMS000,10,6,2,1,SimpleHill,0-0,1,35,11-2,9-11;18-3;18-0;8-10;7-8;13-7,9-11,1.06,36,12,1110.28500995
GEMS284,2018_Nov_15_1724,Elaine,AG,1.5,2,GEMS000,10,6,2,1,SimpleHill,0-0,1,36,9-11,5-16;5-12;15-8;16-14;2-15;1-15,1-15,0.73,28,-8,1115.08855388
GEMS284,2018_Nov_15_1724,Elaine,AG,1.5,2,GEMS000,10,6,2,1,SimpleHill,0-0,1,37,1-15,4-11;2-15;0-11;5-20;9-17;2-12,9-17,0.34,45,17,1119.51949843
GEMS284,2018_Nov_15_1724,Elaine,AG,1.5,2,GEMS000,10,6,2,1,SimpleHill,0-0,1,38,9-17,3-17;14-9;12-10;17-13;17-15;9-8,17-13,0.84,51,6,1124.43306068
GEMS284,2018_Nov_15_1724,Elaine,AG,1.5,2,GEMS000,10,6,2,1,SimpleHill,0-0,1,39,17-13,17-15;21-22;21-8;7-13;10-17;22-14,21-8,0.42,48,-3,1128.9255766
GEMS284,2018_Nov_15_1724,Elaine,AG,1.5,2,GEMS000,10,6,2,1,SimpleHill,0-0,1,40,21-8,14-14;16-9;15-16;16-15;22-13;27-9,16-9,0.74,44,-4,1133.74819196
GEMS284,2018_Nov_15_1724,Elaine,AG,1.5,2,GEMS000,10,6,2,1,SimpleHill,0-0,1,41,16-9,15-2;20-9;10-17;11-8;11-15;15-8,15-2,0.53,30,-14,1138.35001463
GEMS284,2018_Nov_15_1724,Elaine,AG,1.5,2,GEMS000,10,6,2,1,SimpleHill,0-0,1,42,15-2,11-7;23-1;11-6;14-10;9-4;13-6,13-6,0.43,34,4,1142.86173417
GEMS284,2018_Nov_15_1724,Elaine,AG,1.5,2,GEMS000,10,6,2,1,SimpleHill,0-0,1,43,13-6,10-8;6-6;19-6;4-4;6-1;22-5,6-1,0.33,14,-20,1147.25457716
GEMS284,2018_Nov_15_1724,Elaine,AG,1.5,2,GEMS000,10,6,2,1,SimpleHill,0-0,1,44,6-1,8-5;10-2;13-3;1-8;12-5;3-7,3-7,0.74,19,5,1152.06899463
GEMS284,2018_Nov_15_1724,Elaine,AG,1.5,2,GEMS000,10,6,2,1,SimpleHill,0-0,1,45,3-7,2-13;4-3;3-4;4-5;3-13;10-2,2-13,0.48,27,8,1156.62045365
GEMS284,2018_Nov_15_1724,Elaine,AG,1.5,2,GEMS000,10,6,2,1,SimpleHill,0-0,1,46,2-13,0-10;5-16;7-14;10-14;4-15;0-12,4-15,0.33,34,7,1161.02670467
GEMS284,2018_Nov_15_1724,Elaine,AG,1.5,2,GEMS000,10,6,2,1,SimpleHill,0-0,1,47,4-15,10-22;7-9;1-21;2-15;4-5;0-24,7-9,0.31,30,-4,1165.41083634
GEMS284,2018_Nov_15_1724,Elaine,AG,1.5,2,GEMS000,10,6,2,1,SimpleHill,0-0,1,48,7-9,5-9;14-12;2-9;10-14;1-9;7-10,10-14,0.32,43,13,1169.80635179
GEMS284,2018_Nov_15_1724,Elaine,AG,1.5,2,GEMS000,10,6,2,1,SimpleHill,0-0,1,49,10-14,16-6;13-22;17-18;8-15;13-19;6-13,17-18,0.84,58,15,1174.70500797
GEMS284,2018_Nov_15_1724,Elaine,AG,1.5,2,GEMS000,10,6,2,1,SimpleHill,0-0,1,50,17-18,16-25;20-17;9-24;8-18;13-19;22-22,22-22,1.14,69,11,1179.92696228
GEMS284,2018_Nov_15_1724,Elaine,AG,1.5,2,GEMS000,10,6,2,1,SimpleHill,0-0,1,51,22-22,30-20;22-28;16-15;28-14;22-23;15-23,30-20,1.21,75,6,1185.21631204
GEMS284,2018_Nov_15_1724,Elaine,AG,1.5,2,GEMS000,10,6,2,1,SimpleHill,0-0,1,52,30-20,39-22;31-17;28-18;30-28;37-19;27-17,30-28,1.91,83,8,1191.20623649
GEMS284,2018_Nov_15_1724,Elaine,AG,1.5,2,GEMS000,10,6,2,1,SimpleHill,0-0,1,53,30-28,25-36;32-20;30-30;24-21;26-34;35-31,30-30,0.97,85,2,1196.239891
GEMS284,2018_Nov_15_1724,Elaine,AG,1.5,2,GEMS000,10,6,2,1,SimpleHill,0-0,1,54,30-30,28-36;32-35;26-34;36-28;38-36;38-31,38-31,0.52,90,5,1200.83709026
GEMS284,2018_Nov_15_1724,Elaine,AG,1.5,2,GEMS000,10,6,2,1,SimpleHill,0-0,1,55,38-31,40-26;34-28;41-33;44-34;31-38;43-29,34-28,0.71,86,-4,1205.62153044
GEMS284,2018_Nov_15_1724,Elaine,AG,1.5,2,GEMS000,10,6,2,1,SimpleHill,0-0,1,56,34-28,34-38;28-23;32-27;36-24;28-35;30-21,36-24,0.57,83,-3,1210.27373565
GEMS284,2018_Nov_15_1724,Elaine,AG,1.5,2,GEMS000,10,6,2,1,SimpleHill,0-0,1,57,36-24,41-20;36-32;43-25;42-24;31-28;28-21,36-32,0.82,90,7,1215.17449101
GEMS284,2018_Nov_15_1724,Elaine,AG,1.5,2,GEMS000,10,6,2,1,SimpleHill,0-0,1,58,36-32,44-30;37-26;30-36;35-31;40-23;27-35,37-26,0.74,86,-4,1220.00896323
GEMS284,2018_Nov_15_1724,Elaine,AG,1.5,2,GEMS000,10,6,2,1,SimpleHill,0-0,1,59,37-26,44-28;40-23;45-28;44-22;29-29;38-25,44-22,1.16,84,-2,1225.24868426
GEMS284,2018_Nov_15_1724,Elaine,AG,1.5,2,GEMS000,10,6,2,1,SimpleHill,0-0,1,60,44-22,50-15;49-23;40-22;39-23;40-13;39-27,39-23,0.84,84,0,1230.15992104
GEMS284,2018_Nov_15_1724,Elaine,AG,1.5,2,GEMS000,10,6,2,1,SimpleHill,0-0,1,61,39-23,41-26;44-23;33-30;33-15;33-29;33-21,33-30,2.28,87,3,1236.51889761
GEMS284,2018_Nov_15_1724,Elaine,AG,1.5,2,GEMS000,10,6,2,1,SimpleHill,0-0,1,62,33-30,38-22;37-25;35-39;34-26;35-38;39-27,34-26,1.4,84,-3,1241.96838704
GEMS284,2018_Nov_15_1724,Elaine,AG,1.5,2,GEMS000,10,6,2,1,SimpleHill,0-0,1,63,34-26,37-17;34-27;28-22;29-26;32-29;26-27,26-27,1.21,78,-6,1247.255951
GEMS284,2018_Nov_15_1724,Elaine,AG,1.5,2,GEMS000,10,6,2,1,SimpleHill,0-0,1,64,26-27,19-25;29-31;29-21;22-32;18-22;20-27,29-21,3.05,75,-3,1254.37434805
GEMS284,2018_Nov_15_1724,Elaine,AG,1.5,2,GEMS000,10,6,2,1,SimpleHill,0-0,1,65,29-21,33-27;29-31;24-22;28-16;28-17;34-20,28-16,1.02,68,-7,1259.46959218
GEMS284,2018_Nov_15_1724,Elaine,AG,1.5,2,GEMS000,10,6,2,1,SimpleHill,0-0,1,66,28-16,26-9;23-11;28-22;20-17;27-21;28-16,27-21,1.02,73,5,1264.55633274
GEMS284,2018_Nov_15_1724,Elaine,AG,1.5,2,GEMS000,10,6,2,1,SimpleHill,0-0,1,67,27-21,33-25;35-18;20-25;27-12;26-27;21-18,35-18,3.47,76,3,1272.09052309
GEMS284,2018_Nov_15_1724,Elaine,AG,1.5,2,GEMS000,10,6,2,1,SimpleHill,0-0,1,68,35-18,29-18;43-17;39-25;40-23;31-17;35-9,40-23,1.03,84,8,1277.19265273
GEMS284,2018_Nov_15_1724,Elaine,AG,1.5,2,GEMS000,10,6,2,1,SimpleHill,0-0,1,69,40-23,41-23;44-19;41-25;49-21;38-26;32-23,41-25,0.28,86,2,1281.5321584
GEMS284,2018_Nov_15_1724,Elaine,AG,1.5,2,GEMS000,10,6,2,1,SimpleHill,0-0,1,70,41-25,46-20;43-19;48-20;48-26;49-29;39-29,49-29,0.96,92,6,1286.57662148
GEMS284,2018_Nov_15_1724,Elaine,AG,1.5,2,GEMS000,10,6,2,1,SimpleHill,0-0,1,71,49-29,41-25;54-32;43-25;52-34;42-26;54-22,54-32,0.91,94,2,1291.5458654
GEMS284,2018_Nov_15_1724,Elaine,AG,1.5,2,GEMS000,10,6,2,1,SimpleHill,0-0,1,72,54-32,61-31;54-22;47-28;61-35;48-34;59-26,61-35,1.62,94,0,1297.22936668
GEMS284,2018_Nov_15_1724,Elaine,AG,1.5,2,GEMS000,10,6,2,1,SimpleHill,0-0,1,73,61-35,69-32;60-29;61-25;70-33;58-39;55-37,69-32,0.59,87,-7,1301.89266662
GEMS284,2018_Nov_15_1724,Elaine,AG,1.5,2,GEMS000,10,6,2,1,SimpleHill,0-0,1,74,69-32,62-38;63-28;69-28;63-38;68-28;67-33,63-28,2.18,87,0,1308.13599573
GEMS284,2018_Nov_15_1724,Elaine,AG,1.5,2,GEMS000,10,6,2,1,SimpleHill,0-0,1,75,63-28,61-35;62-32;66-32;65-21;59-28;55-25,66-32,0.96,89,2,1313.1520122000004
GEMS284,2018_Nov_15_1724,Elaine,AG,1.5,2,GEMS000,10,6,2,1,SimpleHill,0-0,1,76,66-32,59-28;69-30;64-26;66-24;63-38;60-29,63-38,1.17,94,5,1318.39444441
GEMS284,2018_Nov_15_1724,Elaine,AG,1.5,2,GEMS000,10,6,2,1,SimpleHill,0-0,1,77,63-38,64-39;65-46;68-46;65-47;55-44;62-45,68-46,1.34,94,0,1323.80528108
GEMS284,2018_Nov_15_1724,Elaine,AG,1.5,2,GEMS000,10,6,2,1,SimpleHill,0-0,1,78,68-46,61-53;64-37;59-45;60-41;64-45;62-48,59-45,0.97,98,4,1328.83643087
GEMS284,2018_Nov_15_1724,Elaine,AG,1.5,2,GEMS000,10,6,2,1,SimpleHill,0-0,1,79,59-45,52-45;50-44;60-39;51-43;56-40;54-50,60-39,0.68,96,-2,1333.59320162
